accel_x (m/s^2),accel_y (m/s^2),accel_z (m/s^2)
-4.399817456698308822e-03,-1.041742174938081050e-02,-9.801010687394004606e+00
-4.645838337715339425e-03,7.119167278119523969e-03,-9.803195160361799054e+00
-3.945879809726800485e-04,-4.850130298318470860e-03,-9.793974039473257065e+00
-8.868929773369671477e-03,-6.838980604442914486e-04,-9.799134649049030088e+00
3.256654278904243770e-03,-1.286496631702429715e-04,-9.794912679825962698e+00
-1.247932792280348089e-03,-8.964125199777394151e-03,-9.788475575567263220e+00
3.649663339396978443e-03,-5.857155190723605485e-03,-9.792044361096744254e+00
-5.794887937042443940e-03,-3.647343257805069332e-03,-9.797616941231881427e+00
5.470633047553284146e-03,8.824667875405326151e-04,-9.798317743494870058e+00
2.602641741567047941e-03,-5.269002616172084770e-03,-9.795132544280443554e+00
2.483790729995084714e-04,-5.132809319218553830e-03,-9.797258249290530685e+00
-6.557617209420758472e-03,-4.637150471343522086e-04,-9.786751915620547138e+00
-4.143797085728471909e-04,3.683012588179495825e-03,-9.791693247865589811e+00
1.282401680431184557e-03,-3.077867756994876695e-03,-9.793004539278063802e+00
-4.737043844018962169e-03,8.631166238606251143e-05,-9.787865959954689998e+00
1.276646357357631321e-03,1.366836468829001842e-03,-9.797001477716449358e+00
1.875790430807470653e-03,7.313181612574557247e-03,-9.799429801044492905e+00
2.262034302273850921e-03,1.253631872483546190e-03,-9.802506890078019453e+00
2.888264857293919318e-04,3.368077095780003857e-03,-9.794974816654823613e+00
5.752468229345433434e-03,-7.807662665661941519e-04,-9.791853074502476773e+00
-5.102767072144296853e-03,1.320482190360885684e-03,-9.800250921488386169e+00
-3.503791395385676480e-03,-1.240644692229900085e-03,-9.797333551457541034e+00
-9.045110772484813615e-04,-8.421097680482088647e-04,-9.802546905946028843e+00
-3.937776662948266659e-05,3.077426116438779051e-03,-9.786407510571280000e+00
6.499772525747681516e-03,-6.818695626142296049e-04,-9.802789334966586665e+00
1.317184585531205659e-03,-1.089020645733235768e-03,-9.789801126264855213e+00
4.226113737429389346e-03,-3.915162043202470056e-03,-9.791072214878774105e+00
-9.614452216036233718e-04,-6.567649253991793799e-03,-9.791758197396340790e+00
-3.474751966531657542e-03,-1.751652689115238424e-03,-9.796807987973064513e+00
-1.925120746434035891e-03,2.653229948177780219e-03,-9.798783946521485433e+00
5.646653886948687848e-03,-8.108717833621673522e-04,-9.791057344028212484e+00
-3.912585233609517689e-03,-9.441485041566109390e-03,-9.792840875214656293e+00
-5.805007472486052936e-04,-1.187545197405340432e-02,-9.793732420156709750e+00
-5.375543168480816092e-03,-9.095946553590644398e-03,-9.788469136077166510e+00
-1.254248076837777975e-02,9.709454206657696556e-04,-9.788399985535917835e+00
-3.823386745795646826e-03,-2.706525779523104476e-03,-9.797862940201431670e+00
1.003799987678704979e-02,-2.498667058217615613e-03,-9.796469670304633226e+00
8.826809656866163372e-04,9.802744093598053307e-04,-9.804249865180667101e+00
-7.697643639846833610e-04,-8.115887223828943675e-03,-9.803800132127344469e+00
3.194094290946025705e-03,-5.148336604214962670e-03,-9.790631383543514588e+00
2.984968490141717747e-04,-4.266375727897106507e-03,-9.807734638466564903e+00
6.511442064874736757e-03,1.494839600730469903e-03,-9.800467434677779366e+00
2.435296800260401337e-03,-2.507527830466447626e-03,-9.796233702568436286e+00
-3.706791380665248967e-03,8.351034159085244345e-04,-9.803193572535651157e+00
1.386514903641254638e-03,-4.826822132354041499e-03,-9.791077687066918500e+00
-3.449996494745569044e-03,2.256785433506511914e-04,-9.797024341768851841e+00
3.411055772878885100e-03,-4.903774476596034840e-03,-9.784591451750852542e+00
5.727373063369047002e-03,5.949630738965463496e-03,-9.795009710013006909e+00
4.729596622873342288e-03,5.526007258956570044e-03,-9.784718575258539275e+00
9.939922981823518227e-04,9.457469080032601672e-03,-9.798875565432570767e+00
-7.150562882035373894e-05,-7.679276220893607730e-04,-9.796156958780143142e+00
-3.612170039980687648e-03,1.801263913301663242e-03,-9.787944842140159807e+00
-1.018781470714880816e-02,4.482794138517607989e-03,-9.791159062663258084e+00
1.294951686204922009e-03,-8.705778868421645746e-04,-9.792602656376637071e+00
6.833602735678083809e-03,-3.554133487187635838e-03,-9.785944026476496305e+00
-6.259760996166736187e-04,-2.685651480947086681e-03,-9.803900919368777167e+00
5.812572210814955127e-03,-3.722269401281561745e-04,-9.795412133507415575e+00
5.892336498411990687e-04,6.193867079022868580e-03,-9.793321773919169360e+00
-4.138155013904954577e-03,-2.975883953213668501e-03,-9.800785416140932682e+00
-4.676650248068656298e-04,-3.903279039240021338e-03,-9.794317258311210139e+00
9.714902080799895289e-04,-4.965676538024050256e-03,-9.791190032735105575e+00
1.472095712033999774e-03,-7.449341491144845337e-05,-9.791585398120648875e+00
-9.890112031738426939e-04,1.701771231635398600e-05,-9.800302547651794427e+00
8.503747137234226889e-04,-7.867727688114075843e-03,-9.796509359707908260e+00
-3.924065935704219854e-03,-1.777180121596616189e-03,-9.793258914632582801e+00
6.354513729279752908e-03,3.465948735469970027e-03,-9.789737717666133321e+00
-5.124293335931531107e-04,-3.806036650591535560e-03,-9.794034517686309727e+00
-6.556196178871048427e-04,5.108155983887616852e-03,-9.795885108358390880e+00
2.750237303832468727e-03,-5.509699599928530311e-03,-9.794643068412133502e+00
6.063046945418033677e-03,-7.393637435945041997e-03,-9.796178506022245713e+00
-7.861944292281883642e-03,-4.943099316122914581e-03,-9.805031286822023517e+00
6.788764457056372433e-04,-6.582911588423319069e-03,-9.806298587724805671e+00
-4.044518531925058238e-03,8.605049107637853523e-03,-9.791417653912947827e+00
-1.284273148809616811e-03,9.224183236372551688e-04,-9.796752331294827698e+00
3.288625655361404783e-03,4.171976575549282695e-03,-9.797528800881453392e+00
-7.652750357398799622e-04,-1.989724689887744161e-03,-9.793500608237550864e+00
5.015975729069263936e-03,-2.546278526994565083e-03,-9.793085984528245191e+00
-3.151524478042267829e-03,-7.629030940049632940e-03,-9.794534872981824236e+00
3.377788716595173449e-03,-4.913974541461882915e-05,-9.796239613690838510e+00
5.250276103486608073e-03,-3.470396479607913438e-03,-9.804216106093546657e+00
-9.527949334209809967e-04,-1.921510624696569835e-03,-9.795091149173805078e+00
7.845554794229657111e-03,-4.220823010024524029e-03,-9.795353998691163966e+00
-7.098857727911980775e-03,-7.753674556937343795e-03,-9.797211312580159870e+00
2.847439231874038853e-03,-5.514816546509043391e-03,-9.790753794161636492e+00
1.367351344779113402e-03,-5.981201588117981624e-03,-9.780308044877116913e+00
-1.202706668564813971e-03,-3.541735394496507792e-03,-9.788843473128231665e+00
-8.789182377738458118e-03,3.357297170207314361e-03,-9.797549420838262080e+00
1.094342750209367386e-03,3.860394358131719224e-03,-9.802489179747583492e+00
3.447703208754972822e-03,1.960565930218033295e-03,-9.786857609056090368e+00
-8.040740187962221522e-03,2.989778065362785724e-03,-9.790073812800732966e+00
-4.112788705362187557e-05,-4.063926238830887941e-04,-9.794245392466928379e+00
2.865140532941743215e-03,-1.121032169330544699e-03,-9.794733073044106675e+00
5.483683286493510819e-03,9.191568618078863051e-03,-9.788186997470585737e+00
8.274659423060383131e-04,-2.469365175197625129e-04,-9.792171774868808853e+00
1.275908005774533055e-03,-3.129230499500785558e-03,-9.788724342283078528e+00
-1.126243574385234029e-02,-3.549729272307943721e-03,-9.789288708152067642e+00
-5.468477445023759397e-03,1.322997197199846315e-03,-9.797785960370289260e+00
2.625972587008489414e-03,4.711623699437338629e-03,-9.797316360036450789e+00
-9.616890352014099627e-03,-1.733959735310767059e-04,-9.795023588943044146e+00
-1.270803058039410988e-03,4.507777175457759571e-03,-9.796708089208667758e+00
1.139862490011053005e-04,1.295290883650493646e-03,-9.793560803902035872e+00
-6.426823837803577293e-03,-2.723142511019565216e-03,-9.796167331374574516e+00
1.807896613598622892e-03,-5.720934086620028643e-04,-9.795694757920941242e+00
7.326789434275354828e-04,-1.140477810943444498e-02,-9.785446425005119409e+00
-1.047523234138146749e-02,4.379753355511857918e-03,-9.799173556521736828e+00
7.901626076979523586e-03,-3.091902295244163858e-03,-9.798642636062769640e+00
-3.292439458931080074e-03,1.034584273528154665e-02,-9.790245604924026068e+00
-1.577964237902288857e-03,-4.307925504231189563e-03,-9.793331132560549435e+00
-5.907794262147591895e-03,1.403030848470958845e-02,-9.796744495548757925e+00
-4.999070762246401838e-03,-2.108280707706503346e-03,-9.790157296180916902e+00
-3.674239975354321765e-03,-4.120430567926648756e-04,-9.804805442382555469e+00
5.289549744308637887e-04,5.673055017089548291e-03,-9.795876211165847280e+00
3.407266457388857632e-03,4.899708992911258327e-05,-9.792806801419695617e+00
3.365412476287390955e-03,-5.829160448851243397e-03,-9.795741107822570015e+00
-3.934124645483354048e-03,5.930671964803589657e-03,-9.797564571143354328e+00
4.219913579999182629e-04,-2.419985231151847160e-03,-9.797538578982475599e+00
-5.429510458536021024e-03,-3.387809420300379876e-03,-9.794278894501717403e+00
4.453705313175868562e-03,1.007488649940249843e-02,-9.796252733446069172e+00
5.416676171858541763e-03,9.961753703940716756e-03,-9.784612772373526113e+00
-3.647200732830996588e-03,4.484233133321509877e-03,-9.796462685173141338e+00
1.442712669527478455e-03,-4.740229704376435290e-05,-9.786622223543254506e+00
1.264984468036464867e-03,-3.565527531316384745e-03,-9.803867611915572766e+00
8.571155299817811643e-03,7.263245268636389813e-03,-9.795731141976020240e+00
3.738833856514738908e-03,-4.334886746586124120e-03,-9.800838111630985949e+00
-8.498310820736617796e-04,1.029522501262400592e-04,-9.798963515590905615e+00
2.492490254545940380e-05,-4.906453890136638950e-04,-9.788345666453880156e+00
5.921632780078822308e-03,6.222382520673757841e-03,-9.797894089869535250e+00
-2.785138290085309443e-03,3.310089434778034755e-03,-9.791604863610492870e+00
7.961970828734483453e-04,6.600519477340213367e-03,-9.785172103342008043e+00
3.223260484673902936e-03,1.150881141083499567e-03,-9.801970124976534748e+00
3.921674853113433189e-03,-3.079381599522384386e-03,-9.792507170653982129e+00
1.501034675362366991e-03,3.588907069512936761e-03,-9.792622812196027482e+00
-9.131790345199704523e-06,-3.478122463059131128e-03,-9.801286923739207069e+00
-9.868719430221368702e-03,-2.951511290013478922e-03,-9.790068676822533789e+00
-6.935291414747802620e-03,-2.322916703791474274e-03,-9.782706702273646471e+00
-4.166994908928959695e-04,-1.027780960890849887e-02,-9.803589494852579023e+00
2.184845178496301870e-03,-2.993440761118133786e-03,-9.790501395601038936e+00
1.022682589997562022e-02,-7.895994213579294804e-03,-9.797985644350955425e+00
-1.210542536974608494e-04,-5.156934814068652069e-03,-9.798723208825931508e+00
2.149950591607674606e-03,7.906904734969784007e-03,-9.800025307259931040e+00
-2.323997432593824432e-03,-5.347109157554931838e-03,-9.792127036233756243e+00
5.706343478451308959e-03,5.800122635874310241e-03,-9.794772322965384248e+00
-2.069396646370582314e-03,8.678933020952940558e-03,-9.799791551432106118e+00
-8.921805731420449047e-04,-1.844963820537934068e-03,-9.803379986658377732e+00
1.022921233252058540e-02,-1.569934019899271943e-03,-9.807585496126625557e+00
4.468452050854165858e-03,4.487668319721221065e-03,-9.799935085617304864e+00
4.106350398885976263e-03,5.099832076222685605e-03,-9.782889457801386968e+00
2.053399281074251136e-03,2.256274964956991869e-03,-9.804609478115388299e+00
-3.617367662611249528e-03,5.831788505539100241e-03,-9.796695338305996259e+00
-4.022890494999403440e-04,6.555586986076875067e-03,-9.792755241943039479e+00
-3.496890928682903910e-03,4.520603145192003485e-04,-9.789621908641471748e+00
3.719842024842938584e-03,1.184197216633273674e-02,-9.797340772778783347e+00
-3.632424304271925780e-03,8.040507703657573738e-03,-9.800859459274780860e+00
-6.219887482868069646e-03,-8.807960170540635528e-03,-9.792939068871456598e+00
6.458529267990802472e-03,2.053958008560830256e-03,-9.805731440617673655e+00
1.825554142697782259e-03,-2.135487658145797125e-03,-9.801427323328399055e+00
-9.030211157604547262e-03,-1.715507470938347143e-03,-9.792331174136217342e+00
-5.272024101597600279e-03,7.237757937131253502e-04,-9.793745388913672301e+00
-3.595053723927591014e-03,-5.228787968626884795e-03,-9.797270664483793468e+00
3.598088651926350297e-03,1.373527122700308719e-03,-9.793235880149197214e+00
-1.671229107693952267e-03,1.683991232459140829e-03,-9.797409968470461195e+00
8.565979324746418599e-03,8.515000529652542310e-03,-9.797130944176910106e+00
-2.741147072952616805e-03,-8.950387625960560048e-03,-9.794455652604176166e+00
-6.431599304457897778e-03,-8.759789920802827463e-04,-9.791970457869224376e+00
7.456608080996259165e-03,2.109065474991688208e-04,-9.791460492015326977e+00
-1.547041405285243818e-03,-5.143852880382568903e-04,-9.797562228543878149e+00
1.188155592482653330e-02,5.579207260551674943e-03,-9.790212476399325681e+00
1.120142856404009743e-03,-1.169595912375698699e-03,-9.800885865843831368e+00
-3.594119657641754208e-03,-3.497228642587153855e-03,-9.799725516701556671e+00
3.174854404218530133e-03,9.503450877950356604e-03,-9.798963265080008256e+00
3.818040102905989261e-03,7.047529985457561333e-03,-9.798896628456995828e+00
4.182595972547824091e-05,-6.230716724941289149e-03,-9.793157460027813954e+00
-1.387855175789685881e-03,2.742536266779985969e-03,-9.794090836086734697e+00
-5.583404463192264203e-03,-4.653634741683202077e-03,-9.794594973074959299e+00
-1.523461581594927859e-03,8.746171764417285180e-03,-9.796306558722234215e+00
1.050662591858638004e-03,-3.263334965940817897e-03,-9.796993947577762540e+00
-2.189000635031150034e-03,-5.572920986830780590e-03,-9.793249790515027087e+00
2.405371585289013550e-04,3.438625865121286949e-03,-9.793651884468621560e+00
3.703253712925339957e-03,-3.212836731525441975e-05,-9.790034860520417936e+00
3.923772039543196692e-03,-1.240768901259926447e-03,-9.796652896326753179e+00
5.478884936377931628e-03,2.108341298399097653e-03,-9.798766303017799828e+00
-4.221920278002650948e-03,-7.382035512554989236e-03,-9.802583186904266555e+00
7.292809602952190053e-04,-3.433369501863359923e-05,-9.789628725805897602e+00
-5.303481719384253419e-04,-5.414737065402375552e-03,-9.795688965329315323e+00
2.411589665397161856e-03,-1.614384589537690845e-02,-9.802515091166888794e+00
-1.001410329910628000e-03,-9.073142959256560438e-04,-9.798999144620776036e+00
-5.375369349698043485e-05,2.850572312872052486e-03,-9.795119012075167220e+00
1.362437414469867044e-03,4.328407401257692265e-03,-9.795324632687083977e+00
-4.778592143352441263e-04,-8.055930430553294398e-04,-9.791942135315382600e+00
-2.447774835752855160e-03,6.489320395543196097e-03,-9.794801896257091300e+00
5.367912584781930202e-03,-5.102508104969195185e-03,-9.799803886080507453e+00
-1.148999032598583062e-03,-1.149329638232289433e-03,-9.799578944830139804e+00
5.130679678208321937e-03,-3.489400651150469297e-04,-9.802248837603368514e+00
2.848007251833298628e-03,8.390730169635200741e-03,-9.801738341871670812e+00
-1.013216045377315130e-03,4.399432256628273315e-03,-9.796203233449213954e+00
-8.321624170901608091e-04,3.684635846357850030e-03,-9.793930342066881067e+00
1.546186966038137029e-03,3.171619909348691053e-03,-9.801705319956935725e+00
-8.848302869652792000e-04,-1.835795263004786010e-03,-9.793693834014666422e+00
2.247440157043438871e-03,-1.049013656214533609e-02,-9.792161249263706679e+00
4.435234250043864658e-03,-6.767453301346982621e-03,-9.808810987009609406e+00
-2.697869003925815277e-03,-7.371694287850958163e-03,-9.799701331493480438e+00
-2.484136513483903037e-03,5.374349923285794660e-03,-9.797511002854482953e+00
1.229284811448334066e-03,-2.493786842050347424e-03,-9.788928842888347859e+00
-4.771453245035743584e-03,1.248052354446106509e-03,-9.786944063766023660e+00
3.074319304704240842e-03,2.864028445618044001e-03,-9.792248099066302558e+00
2.274095766896996711e-03,-4.734581836186522660e-03,-9.801905041412773301e+00
6.056025930704674173e-04,2.138911963068714905e-03,-9.793080331314234499e+00
-1.355606567282480190e-03,3.570182806727524062e-03,-9.796033424031987735e+00
-7.314702767388374383e-03,2.238315228284537810e-03,-9.798285708176628361e+00
8.289372584555733392e-03,7.775303940123584568e-04,-9.794815589630346153e+00
2.683965550495844617e-03,3.756626094620703089e-03,-9.799270055913110511e+00
-1.392454252915064977e-03,4.001520293691683550e-03,-9.796089599180527685e+00
-6.956727681369150561e-03,5.433339917697751478e-04,-9.785369551094166951e+00
1.511451699761812758e-03,2.495113156174821965e-03,-9.795052466364381871e+00
-1.146097433425138923e-02,-5.168314664243372353e-03,-9.799490155888117116e+00
2.386389308940274016e-03,7.464170226402688270e-03,-9.789841643009646432e+00
-6.010259133146574062e-03,1.283199187341725091e-03,-9.794406810517223505e+00
-8.521132673923369205e-03,2.739291538150647777e-03,-9.791247299600534859e+00
-1.281073581596287167e-04,6.335188312084610168e-03,-9.785040943280021608e+00
1.805979522473514631e-03,-8.321561314789123476e-03,-9.795383358098350257e+00
7.102547625657580285e-03,-1.192485980488880914e-03,-9.799974468504400349e+00
3.060325824744228665e-03,-2.482801330690934897e-03,-9.794417504883497827e+00
-6.803929437107522279e-03,3.816604736395830949e-03,-9.798876842696294887e+00
-4.853455243012443944e-03,-5.643004024093990767e-03,-9.798414907201602020e+00
-3.756573920563072416e-03,-4.891653277448313603e-03,-9.791099950746721348e+00
1.286933288737128478e-02,-1.330518216592118741e-03,-9.800357045358570218e+00
-1.568671786010595367e-03,-4.392720296884053063e-03,-9.794859870826998716e+00
-6.418588886388019651e-03,2.039001610362196470e-03,-9.789480366886358809e+00
-8.691543797630801177e-03,-1.856077896074939323e-03,-9.796782493223910038e+00
3.019233438227843843e-03,9.267729277116628847e-04,-9.799453153883499468e+00
1.134337820724586401e-03,-1.543109029004826075e-03,-9.793890183238767477e+00
-7.936407525247907158e-03,-1.608641958553975624e-03,-9.785664404932136407e+00
4.165514046894616164e-03,-1.359495854656090534e-04,-9.790640563855605549e+00
-7.308565128139011061e-03,-3.705173331562019133e-03,-9.793015226065719503e+00
4.831505015837744138e-03,-1.084509039878780827e-03,-9.795752090601686390e+00
8.362951908714545213e-04,5.025703540266122228e-06,-9.787692442782544688e+00
-4.183975041206548957e-03,-9.918295582491199955e-03,-9.797605440975839741e+00
1.172461042177703897e-03,7.314586396782370506e-03,-9.791830954712935409e+00
-1.147552038872031279e-03,5.142961979960785409e-04,-9.794654533087971515e+00
-2.587509843879657982e-03,4.086076340228796643e-03,-9.794183798779357630e+00
-9.769012727266662352e-03,-6.317539930235073703e-04,-9.791155383599750905e+00
6.205005176442898306e-05,5.424533944056022855e-04,-9.793390274779252280e+00
-6.931909438538445996e-03,5.233563084388145230e-04,-9.791185002717085695e+00
-2.136690044838260825e-03,9.987231226377825399e-03,-9.787658518612916581e+00
1.488177137425647934e-03,2.931762036425904477e-03,-9.792397509204409545e+00
4.679978690433000271e-03,-3.568907710619887656e-03,-9.800334195483449307e+00
-6.544645731210073369e-03,-4.471793633648305649e-03,-9.790729700933468393e+00
3.599655930822725537e-03,-2.435222832318133051e-04,-9.800807458129312977e+00
5.104288046465114970e-03,1.086534758591702066e-02,-9.792378148200622690e+00
-5.175581761663057556e-03,-4.994457171268284167e-03,-9.792113430988667488e+00
2.607617760354529997e-04,3.662216305505173607e-05,-9.792865657496401255e+00
1.453277022084787339e-03,-7.417418024811199377e-04,-9.794997034303190020e+00
7.276011631607970549e-03,-4.096933657503624981e-03,-9.791451945650353039e+00
4.726026270327280884e-03,1.518756801325557787e-03,-9.794157622914759997e+00
5.312756764888869332e-04,8.218011026871672314e-03,-9.799145314631013903e+00
2.418301706693751565e-03,5.924402539479910017e-03,-9.799684651350585085e+00
8.925392622163887124e-03,-7.289528513966514293e-03,-9.795373182106041909e+00
2.772378441621990101e-03,-3.133914809853691284e-03,-9.791488705727813269e+00
-1.247435430072207094e-03,-8.999624684977817210e-04,-9.790579399454799159e+00
6.716086036609806784e-03,2.880512504314333786e-03,-9.800452737916993229e+00
5.382663532916708363e-03,-1.596939824085735976e-03,-9.795952589260103593e+00
7.314338251587119283e-03,4.359885195847521336e-03,-9.798272323932037509e+00
-2.072252564894456854e-03,-5.554736224048620157e-03,-9.796013203072565290e+00
-8.039529529395338450e-03,4.765583200267218059e-03,-9.800596213519490618e+00
6.035341760016542378e-03,4.923372777774117325e-03,-9.796368510646670913e+00
2.337006259451000160e-03,2.074626684823105329e-03,-9.793314113517190833e+00
1.066070025149256284e-03,-2.772672878417758568e-03,-9.794797993665959268e+00
6.023290927818540468e-03,1.567406623601817458e-03,-9.791503492834326750e+00
-3.629324683415102466e-03,-1.629841978484612057e-03,-9.785163466161121093e+00
2.132244813648992085e-03,3.465338184613435315e-03,-9.791928705265569022e+00
1.806404254461140262e-04,6.621696102672956774e-05,-9.794834820860620184e+00
-3.093286972184724863e-03,2.935031215332035461e-03,-9.789359013247610264e+00
4.472064934869584944e-03,-5.489752382389329922e-03,-9.797393470093156864e+00
4.012528589215968999e-03,1.449694016634190514e-04,-9.794309518098929246e+00
-2.968131785994562993e-03,-2.982704394178860860e-04,-9.797043848831481938e+00
7.919723146325450061e-03,-5.979132771822408786e-03,-9.792947963240379750e+00
2.834072627803551746e-03,4.075284602738955299e-03,-9.786527960711140395e+00
-2.757617477979881337e-03,-2.264963419556662516e-04,-9.795647881889495423e+00
8.902529564409542712e-03,4.570445357045703136e-03,-9.797417787403006173e+00
9.815157526489814120e-04,-2.041415525117543615e-03,-9.796490919628761063e+00
3.111512494857753604e-03,-9.695676562980509727e-03,-9.802448431633091985e+00
2.215246941318439137e-03,-2.183022419227273296e-03,-9.800957812860945140e+00
-4.667769662902908345e-03,6.601985357620346415e-04,-9.803100060961256190e+00
-4.612974173955224945e-03,9.277398425930078601e-03,-9.791768196392590440e+00
-7.234530117950616589e-03,-4.541331192517187101e-03,-9.801880588157462881e+00
5.380578951436690294e-03,1.159413184905565448e-03,-9.795416205689043920e+00
-2.246292131651902915e-03,5.654836460123942310e-03,-9.792876382548531211e+00
-3.519473304535149986e-04,4.260160560150221161e-03,-9.801830019130584049e+00
9.204828913965150058e-04,-6.979330161033565558e-03,-9.792796793284518131e+00
3.052087209905960004e-03,3.069015980717659884e-03,-9.797092993903248725e+00
2.148587132734247618e-03,-7.964938844283560998e-03,-9.796678373432936127e+00
7.816105424807571339e-03,6.611841889733179739e-03,-9.798764758605233993e+00
-7.831803833233383361e-03,8.868700908326082946e-03,-9.791032339253160188e+00
-2.350110619007337882e-03,-2.917670200261076197e-03,-9.791940387795884604e+00
-1.209599907913634295e-02,-5.991643793088505948e-03,-9.801834132325897286e+00
-4.697221305774265838e-03,5.634934702364674530e-03,-9.789560190833368480e+00
3.989240185225451096e-03,-4.785606207700462272e-03,-9.801282195473644876e+00
6.830681188220709757e-03,3.555935575188831545e-03,-9.804639515815749107e+00
2.303378709919230629e-03,7.632249506815216335e-03,-9.795093572568479345e+00
-4.993657825375218996e-03,2.070958174279455364e-03,-9.801214170692585270e+00
8.830257297639948488e-04,-7.310165196332920820e-03,-9.783123379391895469e+00
5.520117112762870822e-03,4.621324260420077434e-03,-9.798721993771620120e+00
-2.672564193899230976e-03,-4.748767881812579646e-03,-9.790701205976034771e+00
-6.229101151819625357e-03,-8.312009910932663045e-03,-9.798661983878437454e+00
-1.546097607224693454e-03,-8.198731174647292189e-03,-9.798034915348436513e+00
-1.057414124632229981e-02,-7.230883891838574794e-03,-9.795408711065970664e+00
1.615106855317349332e-03,-1.169874293786420539e-03,-9.800207630194480046e+00
-2.294028668465369902e-03,-1.594420865296623671e-03,-9.798383131311283023e+00
4.963306585449103921e-03,6.615716917609996452e-03,-9.792150123944530549e+00
-1.398037678447282489e-03,5.814858498212139085e-03,-9.796748500085980638e+00
-4.548627927563169034e-03,3.694767124214339178e-03,-9.797010185492494472e+00
-2.421443826364400639e-03,-9.653277220018330849e-04,-9.793114891778211373e+00
-5.964640912674848243e-03,-6.904592220476676173e-04,-9.790065207389968549e+00
-4.157120210387933680e-04,3.657133189181880142e-03,-9.797365491859522990e+00
-3.591566872169757452e-03,3.047349530976085127e-03,-9.792428361200466114e+00
-2.588396101177973304e-03,1.852408678814559517e-03,-9.792242670455220122e+00
-5.988639252766727282e-03,7.989420990383943808e-03,-9.790307375666932543e+00
-1.279297310544739866e-03,2.102070803865002061e-03,-9.798485453739987250e+00
-7.959199429629413777e-03,3.964088138477014737e-03,-9.803042498371892677e+00
-2.033702685453866055e-03,5.397712966377788378e-03,-9.799609706068016735e+00
-1.293194393973158410e-04,1.079200011568121759e-02,-9.796825267937347093e+00
1.000530532661924243e-03,8.206438609671330708e-03,-9.796414145164586529e+00
-5.912740352433231567e-03,-1.571862732300670232e-03,-9.794396959352635434e+00
-6.442590956994115672e-03,-6.627844375536049229e-03,-9.790507030527082932e+00
1.064262116748939356e-03,5.444804086095543158e-03,-9.798174297191481585e+00
-1.690529757502940659e-03,1.312336901958057432e-02,-9.793297937672312159e+00
2.383045934025074600e-03,-1.641160566844332772e-03,-9.799902947398223318e+00
-5.772025338051999660e-03,4.330322075733195053e-03,-9.788665561602721610e+00
4.969549704375085357e-03,7.643727267681994742e-04,-9.785130705572250065e+00
3.647169346485758506e-03,2.250696339916878879e-03,-9.793270204001123247e+00
1.419126017143111955e-03,1.065741301174516356e-03,-9.792243131398418399e+00
-6.444264246629776392e-03,2.509367168743008043e-03,-9.791514751953439344e+00
1.169235397817491645e-03,1.814974944269854380e-03,-9.796905742525490624e+00
2.500491293152166689e-03,-6.525845667529158421e-03,-9.798166653774879720e+00
-1.333796255262992324e-03,-3.628521233728180043e-03,-9.799021805375348393e+00
-7.334874457854930092e-03,8.915801560063173897e-03,-9.787308190444523603e+00
9.428388110464864039e-03,-5.716197697375027635e-03,-9.802444423729690826e+00
-3.988637567186383535e-03,-3.253526950173853734e-03,-9.800963412007199338e+00
1.571126265316343494e-04,-5.326660592688654654e-03,-9.788770482918163651e+00
-4.070028511590538869e-03,1.184745970195567400e-03,-9.795285430293054318e+00
-8.032171097362742276e-03,5.876619533600442070e-03,-9.790383130749679808e+00
7.396009386213346290e-03,1.809490593674277677e-03,-9.800188095864696081e+00
1.701048794571865478e-03,-1.493375591688680167e-03,-9.791410485902332539e+00
2.887828294460180901e-03,8.190431344422428048e-04,-9.801246903119839260e+00
-3.991970246935719335e-03,1.523165679896215652e-03,-9.792456148554524731e+00
2.674431185984046857e-03,1.795984268608828574e-03,-9.790607048092351050e+00
5.109970522927069839e-03,6.236636932585089277e-03,-9.794274710120394190e+00
-9.964290713851148978e-04,4.375066760314208665e-03,-9.790794816921556176e+00
1.728374248222179976e-03,-6.676429175499797204e-03,-9.798652792285379221e+00
1.075681498907587325e-02,2.243715695245158286e-04,-9.786218199701545828e+00
5.936565775467436343e-04,1.481234718018179962e-03,-9.795474530527286561e+00
-9.945622268945945258e-04,-1.447642049853669656e-03,-9.796333076989625965e+00
-8.540666242074900633e-03,-1.562347200574722497e-02,-9.794178304902162679e+00
-5.560078046020183740e-03,1.919753758704804449e-03,-9.788725534374854931e+00
-2.212830200018312508e-03,-9.882274786351641707e-03,-9.787677936881642893e+00
-2.433595239147009689e-03,-1.790191240447487012e-03,-9.793893029409314721e+00
3.448021320264480199e-03,2.152797333707380870e-03,-9.792902855020278352e+00
-3.282075776438703012e-03,-4.467795304843277457e-03,-9.800003951210381814e+00
1.455117402963243848e-03,2.029359162254401906e-05,-9.804033407628827135e+00
-4.698170862257384952e-04,-3.247570653181395227e-04,-9.787724966736512044e+00
-1.334227186473533125e-02,5.436749668527739512e-03,-9.807094076649587322e+00
-8.894893318892319739e-03,-3.213179778452731998e-03,-9.795847988237115445e+00
2.534432150631221563e-03,4.739665618623390905e-03,-9.795687531844970763e+00
2.343106466504827137e-03,-1.824132032222830534e-04,-9.801258363383777095e+00
8.164500161976892718e-04,2.269403202655801127e-03,-9.786810781614146748e+00
-5.918660359451026302e-03,5.332142852675741430e-03,-9.792470363380676446e+00
8.032498163415360132e-03,-3.502653946546879608e-03,-9.792869870622434192e+00
-2.396139017174498190e-03,-5.098860260551366270e-03,-9.801373297348868974e+00
-2.241613144219420199e-03,-9.548533559429890974e-03,-9.785873860380663203e+00
1.481131252887046054e-03,2.943776325197210793e-04,-9.789529115487423994e+00
-1.201679550755019484e-03,2.043634258254162315e-03,-9.793182338180686841e+00
-2.338380551259958834e-03,-4.706060705228767502e-04,-9.792934183043785268e+00
-2.948049509984627774e-03,-8.443764645417883505e-03,-9.794791999626045964e+00
-3.672815979201873079e-03,-4.437018731997617073e-03,-9.794396750030728072e+00
3.034689997328554947e-03,3.310096162322984266e-03,-9.794763529693019777e+00
4.617495699533057454e-03,-4.468608422814573065e-03,-9.796103634396237325e+00
-9.333742101015892606e-03,1.087729136519304148e-02,-9.790179153485230046e+00
-2.697690137770531512e-03,-3.813667072632135301e-03,-9.794463295330437802e+00
3.611122247087936946e-03,1.732882987658697273e-03,-9.795863490015852548e+00
5.054110742251152581e-03,-1.539078636305879445e-03,-9.794815111331882207e+00
8.988579938538786632e-03,4.760567202489329394e-03,-9.798313421985778149e+00
6.934612670198217607e-04,3.836937197308998900e-03,-9.793716615073819298e+00
-3.232048265859339948e-05,8.248514052372359464e-04,-9.803063415231106248e+00
2.569219747851622399e-03,2.451369484111515749e-03,-9.787312296733265526e+00
6.477857850533014737e-03,-2.303970797271675565e-03,-9.789786508862404091e+00
5.222092585996787779e-03,8.740547773355075711e-03,-9.793167494660014682e+00
-5.890282907421111498e-03,1.848342684983124906e-03,-9.798562900410921372e+00
9.324640673963451379e-03,-6.784695602227915415e-03,-9.803344254633122645e+00
-5.787023087119744441e-04,-1.100271256992302500e-02,-9.793244609910304987e+00
5.549691365292415066e-03,3.158128027118704481e-03,-9.804283480945299445e+00
-5.444812758416789703e-03,2.668923866290169068e-03,-9.803466603781451738e+00
-3.610455408633386504e-04,4.542944213917893964e-03,-9.786313338769447867e+00
-1.011447641571287803e-02,-1.005182109249100342e-02,-9.787839472321751444e+00
6.804923315107215542e-03,-2.980295171363808553e-03,-9.786764444316098377e+00
-1.112310186312116377e-03,-2.038206287662612786e-03,-9.793766972834969664e+00
-2.185519046993513164e-03,-4.853333448819567054e-03,-9.793313257650682502e+00
9.214870067219388047e-03,-1.263885940336902970e-02,-9.797334234353412441e+00
3.334840991383366832e-03,1.032627240350470204e-04,-9.790280711579836037e+00
6.817639580804178527e-03,-4.628876662958064832e-03,-9.785209848573357405e+00
7.804958158539142613e-03,2.992815331893526783e-03,-9.794667932198096949e+00
-2.789617241866707530e-03,4.487394140187789780e-03,-9.785177510873301898e+00
4.010318319349128434e-03,7.106519093076742004e-03,-9.797814082127647595e+00
-5.485791774907443179e-03,-5.332188219778558058e-04,-9.782791160620574189e+00
-2.721408551496354907e-03,1.002450158022296419e-03,-9.794697410777812863e+00
4.642420528528271896e-03,6.612125572080899093e-03,-9.790844872950305700e+00
-8.082912468194612893e-04,6.777430816897250451e-03,-9.802637675091609992e+00
2.845579691651280076e-03,3.533978249967639155e-04,-9.790367674710417134e+00
1.179947333635088073e-03,4.839254504320602613e-04,-9.789951511125506656e+00
2.767147317396217564e-03,3.968458743994007255e-03,-9.793095027241454531e+00
2.021354045936129683e-04,-1.196286622961783034e-03,-9.796677037149565948e+00
2.231447501545536991e-03,4.470020116276614101e-03,-9.794159118055590696e+00
-4.190350078054340898e-04,5.376714284582199271e-03,-9.793899011317114045e+00
-1.068255531200432975e-03,3.662640147391012582e-03,-9.791565829837862722e+00
-3.883107627674514586e-03,4.860777389830789005e-04,-9.795574004632509713e+00
-7.946222656542106452e-03,-1.163822013391498100e-02,-9.796193997134503562e+00
-6.987729800447962936e-03,-1.427172353092929233e-03,-9.796799445033542497e+00
-6.717736996626256542e-03,-6.529413883425042725e-03,-9.792139040494737046e+00
-7.449018185895033700e-03,-3.180460000451675560e-03,-9.795644153226888307e+00
-6.094525514245504628e-03,3.325742004596907620e-04,-9.798425003103984565e+00
2.405541978603995608e-04,-9.916397515457265818e-04,-9.782312532805168104e+00
2.536915629287383317e-03,-5.281607442766284369e-03,-9.796368107394203051e+00
-4.230423207208110561e-03,-1.013594766910819422e-04,-9.799233373521394341e+00
-4.813217771096438280e-03,-6.436469709961687748e-03,-9.801340374857483440e+00
-4.060033953288393754e-03,-3.114404328259335383e-03,-9.790966188059755382e+00
8.833388281010131141e-04,3.520980031711612012e-03,-9.799402000179798122e+00
1.188485433702890200e-03,2.649494741239826531e-03,-9.795700624453475669e+00
-2.754427648403002128e-03,-1.024655602123605153e-02,-9.795416527422659669e+00
4.483890831506314248e-03,-4.507087275697487742e-04,-9.788760629549766890e+00
-5.873172471977234493e-03,-2.255149785439291915e-05,-9.791261557075404909e+00
-3.707991190225575634e-03,-5.861961067783518116e-03,-9.788759414843367423e+00
-1.376395960870979013e-03,-1.809231171672812371e-03,-9.791427873288153449e+00
-1.014970578241250910e-03,5.619766732515724290e-03,-9.793707688037365244e+00
3.379735535254304018e-03,-2.405672968380584247e-03,-9.792145654262348842e+00
-4.703249483733064513e-03,-4.090114792151725021e-03,-9.795855544770269319e+00
-9.116109031065399229e-03,-2.028163141608594570e-03,-9.796054121970549033e+00
-4.651715435898114322e-03,-7.262577870337043849e-03,-9.787379012238490716e+00
-1.984628289056106253e-04,-1.593079876898082859e-03,-9.791200696396154868e+00
-5.695362766782692066e-04,-1.167994335565977412e-02,-9.796401848209654872e+00
6.567178380511678494e-03,-4.521172244988226271e-03,-9.793877385518820589e+00
1.540014823440061990e-04,-9.695040172688083923e-04,-9.794550404021272527e+00
-9.756298160756094254e-03,4.118020753576613451e-03,-9.799197781769123594e+00
-2.538677948902775833e-03,8.129545746176431581e-03,-9.795374497760555244e+00
-2.027564440768573045e-03,-8.160837450926015924e-03,-9.793461808491986886e+00
1.603727603696630333e-03,-2.872178352386582992e-03,-9.800636059417058732e+00
-1.748864762550578818e-03,5.688745617740358475e-04,-9.795473540710220917e+00
-8.093258697333238771e-03,1.054146807462895408e-02,-9.801478321229033952e+00
-1.651231085424845332e-03,7.614105343236104821e-03,-9.794011695335754553e+00
4.384636077653609153e-03,-5.045729828849774071e-03,-9.792030438820255256e+00
3.602184050237659980e-03,-9.078586565633347269e-04,-9.795623510013243163e+00
-2.467503326359053294e-03,2.521411174924888688e-03,-9.793539495863257116e+00
-1.405474798167112463e-04,2.954414908238688076e-03,-9.797008256778878987e+00
-2.372829159865138832e-03,4.477767403688492041e-03,-9.791302182894666473e+00
1.068929095480333248e-02,-5.362663039571708909e-03,-9.797927644116075641e+00
3.541129456603629537e-03,8.554122219960666809e-03,-9.797574585593807228e+00
-3.259270295919070807e-03,-5.144443636615572170e-03,-9.797437434350436902e+00
1.927889063013463709e-03,7.265773820597719659e-03,-9.788267160466576300e+00
-3.438400935114016045e-03,-4.018661982956609098e-03,-9.798683997170673621e+00
8.323896033376540146e-03,2.941741139273113329e-03,-9.787867430982183592e+00
1.886544727615627887e-03,-3.833436824556723209e-03,-9.798377740389167201e+00
2.021530145306703417e-03,9.078780269800463057e-03,-9.792670295412666093e+00
-1.065129761761290580e-02,-5.328765911024751362e-03,-9.800597378339189092e+00
-2.109262043313958959e-03,4.655192124868747124e-03,-9.798342101543401128e+00
-2.795851544664950533e-03,-2.407762137915314942e-03,-9.795812613100849831e+00
-6.000444765958520745e-04,-3.989457950350023575e-03,-9.797727043231059696e+00
-2.649373579931128733e-03,4.597604571795782524e-03,-9.795802369786775543e+00
-6.505217825327458056e-03,2.140742409859679347e-03,-9.798513091385055773e+00
-3.354089306874879443e-03,3.124536209003029100e-03,-9.790715852482211545e+00
1.383482704068972943e-03,5.381539956590836345e-03,-9.800942514888729917e+00
-1.758471170628562010e-03,2.286479928135364253e-03,-9.791918431072891948e+00
3.316691694034276314e-03,1.506293478844755859e-03,-9.786781322542184469e+00
-8.549433479450101962e-04,-6.767759800643963382e-03,-9.796296606785547922e+00
-9.016944732117176172e-04,-6.574649869278955359e-03,-9.794536385508898491e+00
-3.571562120944025975e-03,-3.110184845814822473e-03,-9.797404372704786368e+00
-1.626852800919300094e-03,2.687411046056151741e-03,-9.796241126066524529e+00
1.041952747566284336e-03,-1.059395325930671426e-03,-9.797870747042253470e+00
3.041898307055221438e-03,-3.985704645419952362e-03,-9.801126930661862247e+00
4.329728602127647791e-03,2.574239202765070227e-03,-9.799199988703289677e+00
-2.006894492369869654e-03,-7.351819381253509554e-03,-9.802702839078229147e+00
-1.388767087521343944e-02,-1.458107990450763659e-03,-9.792046947082059916e+00
-1.910593830870332965e-03,-1.780091174921761893e-03,-9.793617303543921793e+00
-5.384163422527023755e-03,-3.166975663609822734e-03,-9.793707534287177552e+00
-8.201206149266167082e-05,2.170024377249771784e-03,-9.794309019615733192e+00
-1.720831674326115486e-03,8.226853145074677215e-03,-9.792196954505314466e+00
-4.871160509128225069e-03,5.497897641319347307e-03,-9.793898349430806505e+00
-4.073331044175315663e-03,-2.483254302966862812e-03,-9.792671729303600969e+00
1.192980485777282197e-02,1.380918897605635945e-03,-9.803219939742430000e+00
2.332265117561315750e-03,2.408628413390953311e-03,-9.787411437528129809e+00
2.078983991444244370e-03,2.401173509579863918e-03,-9.792279776423670867e+00
8.496620298694227205e-03,5.666080280834747372e-03,-9.790836281942997488e+00
3.919162684057273839e-03,-3.602383820043118280e-03,-9.803697868509200219e+00
3.773324580750513860e-03,2.855713528565851419e-03,-9.796156785774279285e+00
-2.952203397218992973e-03,-1.229409586834154244e-02,-9.796550145124568232e+00
1.715649165980184538e-03,3.630241339521876956e-03,-9.789433326120839496e+00
-5.668566494101350862e-03,-7.309413079622940033e-03,-9.797909409339506936e+00
5.278691836587507888e-03,-5.937567943114248521e-03,-9.796697672504908638e+00
3.411791964307419028e-03,-1.506699414936898008e-03,-9.799773927196779866e+00
-6.577359878422117884e-04,-6.913955906672101604e-04,-9.782821125350903202e+00
-4.953861239280204533e-03,5.496399423081149010e-03,-9.787470470439012971e+00
-3.548028330224539770e-07,-7.129841431855277710e-03,-9.798519565269783627e+00
-2.072838531733467611e-03,7.702799620948626476e-03,-9.802811549527598700e+00
6.243752278249582646e-05,-5.622561320690332674e-03,-9.793448222737643150e+00
-1.198832668225957576e-03,1.547411343240019145e-03,-9.796596922071968194e+00
6.014689160196164640e-03,3.492000696392453564e-03,-9.796039892110684377e+00
-6.597070448055311620e-03,-7.905195694818798260e-03,-9.792428018716163862e+00
5.594962604023103435e-03,-1.984434776873554888e-04,-9.810810028310648079e+00
-1.202907731378811485e-03,-2.865303880756554095e-03,-9.793698079789244559e+00
4.803121347912228147e-03,8.833983637771223316e-04,-9.790324194628388099e+00
1.656722696419017735e-03,1.698189748084688068e-03,-9.792186887667691408e+00
1.165518572293153254e-02,-3.330914377437829612e-03,-9.789127007744587772e+00
4.318546511455823370e-03,3.784416788741289377e-03,-9.799597475897520837e+00
3.157022308765875928e-03,7.027128733503629036e-03,-9.786868505767403192e+00
-6.932966445805868391e-03,-3.667243416011081638e-03,-9.792767041270218797e+00
6.209544954859045132e-03,1.856648946934774105e-03,-9.803805454764214389e+00
-9.260155931014210336e-04,2.071897656055175091e-03,-9.795291085702702460e+00
3.632409281755239437e-03,8.466029509580330972e-03,-9.787656176109280182e+00
9.116729164285264711e-03,1.324231579769726951e-03,-9.793581101616874562e+00
-4.532669359987498274e-04,-7.946365565815315113e-03,-9.802041704742954664e+00
-6.391468608475832629e-04,-3.682095056580507019e-03,-9.790282060981422063e+00
2.339148793602920887e-03,-3.387359033151210886e-03,-9.798369110480024347e+00
5.772315745073162757e-04,-4.231366513662499114e-03,-9.790698543202335458e+00
2.194897500193743536e-03,2.533235663824121107e-03,-9.796204325529892287e+00
3.571910580242407696e-03,-7.984999350390019953e-04,-9.790718195629105836e+00
-5.378352656586080950e-03,2.536991054416934659e-03,-9.792750137205450400e+00
-2.583339894340532655e-04,-3.410078447209163779e-03,-9.784370553762055778e+00
4.435599397989817456e-03,-4.306119666841186182e-03,-9.794398493556304430e+00
-3.224615011410770886e-03,-2.619879883885422190e-03,-9.787595113603368091e+00
3.244814317039748566e-03,-1.679766938861817788e-03,-9.802598009535405055e+00
3.005988255740954691e-03,-4.133754146746533228e-03,-9.790788326511428608e+00
-1.680594059921013128e-03,2.203263600066496502e-03,-9.802561906307262873e+00
-3.150074073236374967e-03,6.126161323590909903e-03,-9.798637944749355455e+00
-2.654096236116319524e-03,-1.103400713340440403e-02,-9.797202008455069944e+00
1.944467019614479382e-03,-3.005026781412448687e-03,-9.790218413216678073e+00
1.893589327221565592e-03,5.738845029067721551e-03,-9.800632792696712059e+00
5.180794241120485408e-03,-2.645689483698835005e-03,-9.793752544012528816e+00
1.210318381865096559e-03,-7.525708689376076933e-03,-9.789831361936649046e+00
-7.830108824192074518e-03,8.215334436225008724e-04,-9.796362145585735703e+00
2.463810009072335203e-03,2.788162960922286465e-03,-9.798699699306510524e+00
-5.009775346178842702e-03,2.545050972231109945e-03,-9.804665436190841632e+00
-1.167844110995284275e-03,-2.141645344411906293e-03,-9.794327905471110540e+00
5.949234006841040180e-03,8.103954886325365550e-03,-9.800906926165016131e+00
2.816008194627826929e-03,-3.974086289254620194e-03,-9.797766285452487622e+00
-2.581416848835851874e-03,-4.412056061360225198e-03,-9.802852280272288610e+00
6.021212510712828543e-03,-6.496924270511566547e-03,-9.786074013390704707e+00
-7.845871359137092382e-03,7.911274528407240964e-03,-9.791267327459880931e+00
7.130974309564824072e-04,2.528840661847451925e-03,-9.792455783126456481e+00
-7.809678737540581145e-03,6.194600490782735175e-04,-9.793670075008265030e+00
5.637549475221421622e-03,7.460293061123844487e-03,-9.793104967925419402e+00
-4.614668486894795037e-03,-6.061274548976374084e-03,-9.789035290159933567e+00
2.665468076886313119e-03,7.041513190770881843e-03,-9.797313067146468768e+00
9.127642690695537920e-04,-7.588851636846583254e-04,-9.793123548940791068e+00
-3.641469417946489526e-03,-3.568800158029963691e-03,-9.791211450532959049e+00
1.693742108635012966e-04,6.879481805035759200e-03,-9.792585535691054943e+00
-7.642764612456764582e-04,1.207406614409984452e-02,-9.792233750261987169e+00
4.244480465600988447e-03,-6.297381670270800133e-03,-9.795179143621211892e+00
-3.510050291713711582e-03,-6.186825912394938211e-03,-9.802047383219345988e+00
3.524717518873819472e-03,-7.969099392210425917e-03,-9.794492239716882764e+00
-1.860214447993716567e-03,2.147462158587573784e-03,-9.794145682365609673e+00
-9.366741261424901951e-04,3.385487666267691584e-03,-9.791069274981220261e+00
2.314916871001669856e-03,5.982062921303120395e-03,-9.791671634929036472e+00
1.166766050558797237e-02,4.526906725715443280e-03,-9.808846685596256165e+00
3.964443278736104297e-03,-4.157812150952954443e-03,-9.795077746364867721e+00
-4.427223507003368204e-04,2.838762475034927943e-03,-9.790761268557099939e+00
-2.058252762250294566e-03,3.113458425756021088e-03,-9.789416935804286624e+00
-2.675010451522143694e-03,-2.329632766381535807e-03,-9.792038809584870052e+00
2.704839994193507149e-03,3.285892049698123981e-04,-9.789585762042159800e+00
-1.573438571054320070e-03,-1.954227673190068147e-03,-9.796302650480804175e+00
-9.415464233116527942e-04,1.104815750477223727e-04,-9.794787883186375055e+00
1.036237348585987948e-03,8.767325672368050200e-04,-9.800110135305434511e+00
-1.054583578325491051e-02,4.968147011544655871e-03,-9.783255305830959259e+00
-5.239024622759773549e-03,9.437924930821412449e-04,-9.795055770197773626e+00
1.488675342369475720e-03,-2.172318111742137584e-03,-9.791368788103692822e+00
-3.110784362907669746e-03,2.876534489038534096e-03,-9.805615280863989369e+00
-4.403852687716922239e-03,3.102424278150626991e-03,-9.786883611732976718e+00
3.846323532656013497e-03,-4.458161817866974214e-03,-9.795938145730113789e+00
-5.890035472346963688e-03,-3.258403938452991526e-03,-9.797920574209888045e+00
6.655602441653561858e-03,2.355831288314388060e-03,-9.794875789480398609e+00
2.085326266888558322e-03,7.744800375234864049e-04,-9.784940056405078579e+00
-2.516858794225018616e-04,2.801037315892706669e-03,-9.800278761585929033e+00
7.074580055547383117e-04,-1.045889631455396910e-04,-9.794761501390190972e+00
-4.369880911893522964e-03,2.408930240318013418e-03,-9.801568101381166187e+00
-7.316685251621629638e-03,5.219929687262685669e-04,-9.805353361781667942e+00
-2.585530189255009614e-03,4.670030770950094057e-03,-9.793232165611728490e+00
2.466425559093219158e-03,3.043786410327470934e-03,-9.796508960602164251e+00
-4.918113115493158438e-03,2.865319989057567469e-03,-9.797614323821184357e+00
3.434238252253852836e-03,4.952424736134491447e-03,-9.797872898381564610e+00
-1.033062555036644986e-02,-9.796698483790571357e-03,-9.804228638316464739e+00
1.714847434893995845e-03,-1.660610710483604539e-04,-9.796311429759292366e+00
5.073616635270402882e-04,1.270527181491701253e-03,-9.792966950073457966e+00
-3.294640992561788991e-03,-1.434825979284936812e-02,-9.790956948012057737e+00
5.559236706258884227e-03,-2.071153124650200374e-03,-9.795198383695923994e+00
1.051806382528016129e-02,4.835425448675192452e-03,-9.792659961906052146e+00
-1.028342348180540274e-02,3.511871983353767514e-03,-9.794323448444009372e+00
8.142310686203494893e-03,-4.465590159094760120e-03,-9.792676224180970834e+00
4.490839716005579421e-03,1.554405830165872700e-03,-9.786056848145012310e+00
-2.486721637074459056e-03,1.353154663301094247e-03,-9.797096548176337905e+00
3.022756692179117983e-03,-4.703067986256645808e-03,-9.792746636704706020e+00
-5.701221609065714336e-04,-2.786297044527903579e-03,-9.791861636145181791e+00
3.776388527702695657e-03,-3.107693250419824114e-03,-9.805613862914498213e+00
-1.019296491835809974e-03,-2.398698894731099429e-03,-9.796214141008720233e+00
1.862444837066172662e-03,3.704318698147582994e-03,-9.800586083108468571e+00
-3.427753391160443842e-03,1.314768320262056905e-03,-9.792496327025951075e+00
1.436341966527977386e-04,3.998084029013319364e-03,-9.800096290965132795e+00
-3.428241069979842941e-03,-1.243355652568778336e-02,-9.790087410730025752e+00
1.193914229842272948e-03,-3.015922617967210697e-03,-9.794559007389221250e+00
-5.539839767516719846e-03,-3.874666354638281983e-03,-9.798049179771105344e+00
2.946057142294866617e-03,7.422979662922715542e-03,-9.794422104305882115e+00
4.718342147172151571e-03,7.333269245787393809e-04,-9.795123453381368250e+00
-1.107291799020737599e-02,-2.312542548331637804e-03,-9.794465376150389702e+00
6.517456665139015511e-03,6.212410783194214151e-03,-9.789049024370790164e+00
3.487172342448357186e-03,-1.038854465430592800e-03,-9.793950664356529501e+00
-2.566686649418839332e-04,-6.217836488964170608e-04,-9.785302385497477218e+00
2.238339772703186806e-03,-1.844488961140466508e-03,-9.794690869953795342e+00
2.611929017577153955e-03,-1.945461273440806348e-03,-9.800199583978901785e+00
7.188556746398233610e-03,-6.479610899987635862e-03,-9.787753061306219138e+00
-1.089935638759701071e-02,-1.088384005276519031e-02,-9.789112832497821159e+00
7.608718103196024200e-03,-4.845763672155859944e-03,-9.794331399008077810e+00
-2.935123113210295724e-03,-8.818888223643236296e-03,-9.791678473544241257e+00
2.228568968878334548e-03,-2.014316558246657604e-03,-9.791522917511571222e+00
-1.572918556539550311e-03,-3.839522526529816002e-03,-9.789626096499601360e+00
-1.985838278683830539e-03,2.363852573386604310e-03,-9.794956895335797498e+00
-2.963560238321749987e-03,4.939678554456346585e-03,-9.797355045107014604e+00
1.133422551452324852e-02,-9.653032616505660517e-04,-9.799995781138822082e+00
3.106747722945519402e-03,5.182848227478584896e-04,-9.792874696141426583e+00
6.083289688610092963e-03,5.292577297734909342e-03,-9.797029939589725345e+00
1.732188945565888186e-04,5.596353567135915578e-03,-9.791058170186309084e+00
3.920412864677815315e-03,-1.899586780225207558e-03,-9.793534156689078785e+00
2.548164775974939150e-03,-1.309000976669345926e-03,-9.796888309709984810e+00
4.805399007019616787e-04,1.022001668582918441e-03,-9.793967252792331379e+00
6.761501114565609226e-03,-3.620435045631001554e-03,-9.794590452220393928e+00
-1.378791825723423969e-03,-5.338003338991155478e-03,-9.791760926404222687e+00
3.248243232442526323e-04,-5.919071161371043839e-03,-9.794712813356515113e+00
-4.778211647499566207e-03,-6.012042807504146442e-03,-9.792278596846346161e+00
9.011007455536771196e-03,-5.894579418138898991e-03,-9.790974379630242197e+00
-4.826959584574927985e-03,1.537753463162111955e-03,-9.793525046100896247e+00
1.970549124312516269e-03,-3.136812824939084598e-03,-9.794930076331358038e+00
5.288610141765596670e-03,-7.057013622098866346e-03,-9.792970296154489773e+00
5.433811518071755072e-05,3.413744795876962989e-04,-9.792172514791829485e+00
2.592952520064998375e-03,-4.902450767990963396e-03,-9.798069521643107294e+00
-1.733368191337735040e-03,4.450122965657474922e-03,-9.794488355924755751e+00
-5.412912199201085940e-03,-2.002305537103999528e-03,-9.786453387135006565e+00
4.093697601752609855e-03,-4.434820208641436501e-03,-9.802877525980912665e+00
-4.853221186803353612e-03,7.060732023639055242e-03,-9.806714294606114990e+00
-8.191380779138548660e-03,-4.288540924287360489e-05,-9.802158893910611681e+00
4.176448244083781972e-03,1.784910191939700040e-04,-9.793394725382661647e+00
4.105548685824007490e-03,-1.119908263840078445e-02,-9.794271254143499306e+00
-2.373613231834375593e-03,-6.250136685153844136e-03,-9.799635806304671348e+00
2.086174826201651466e-03,9.484900362201559645e-04,-9.792913281954243487e+00
1.307305042208020424e-03,2.831505662842354575e-04,-9.791134492555601199e+00
-1.225716262326363541e-02,9.656077471971966390e-04,-9.800561775634344386e+00
3.119745146203173423e-03,9.457740865941616226e-03,-9.787324453250690226e+00
5.181995403211807696e-03,4.245147197402047295e-03,-9.793093301475140677e+00
-2.862526639716869974e-03,-2.264536031608338062e-03,-9.789303708587636876e+00
-4.005576862883951199e-03,-5.185146922697400108e-03,-9.789675213350520266e+00
-7.132564835687153250e-03,-8.065840931597182545e-03,-9.793102920602020589e+00
1.066256435101797491e-03,-4.659749456121011976e-03,-9.792014280812184168e+00
-3.128160287166191055e-03,2.141214937237608928e-03,-9.791144309250778832e+00
-1.066739050525145234e-02,2.227227347079654540e-03,-9.789061945086414696e+00
-9.248758334779389259e-04,-6.400107668377358165e-03,-9.792245720089249872e+00
-8.091774515746079019e-03,-7.123386902186491310e-04,-9.807943351799245590e+00
3.138670657739853990e-03,-1.665637532454610110e-03,-9.801908660033562981e+00
1.147775646894242697e-02,-2.054452994114041101e-03,-9.805390888599765375e+00
1.313381404722614547e-03,4.958191996342889950e-03,-9.790927852787294938e+00
2.333991891304998227e-03,3.105309396554876717e-03,-9.799335099441764285e+00
5.885770964749716117e-03,1.933162799919098179e-03,-9.795988716407073582e+00
-5.905985143433649387e-03,9.448343767478509236e-03,-9.798677695305157087e+00
6.786914264621232490e-04,4.161130420735501857e-03,-9.799370126444985729e+00
2.899143286901523231e-03,-2.155063753256178816e-03,-9.794053244240098266e+00
2.128129305642416196e-03,-1.067469559045240712e-02,-9.801268358427579486e+00
2.952450750440783426e-03,2.196231416624657394e-03,-9.797294016211928636e+00
4.297332573113638206e-03,1.636340816172289709e-03,-9.800547158182295604e+00
-5.865146103012917542e-03,6.579879224292300294e-03,-9.786147019293737870e+00
1.311975276069238380e-03,-3.967908612847606022e-03,-9.792078103046772952e+00
1.097903128049041582e-02,4.279392549717529227e-03,-9.792645698808229326e+00
2.188708607316553530e-03,5.737575301186284213e-03,-9.801114786787451294e+00
3.386289787924627245e-03,1.110257902776468861e-04,-9.801103338150500832e+00
-2.953573295107043972e-03,-1.115470716609849285e-03,-9.790336243895076507e+00
-2.915984044480301324e-03,2.341701333000427432e-03,-9.798401275688032541e+00
7.736854753324377311e-03,1.852427908642807937e-03,-9.802354919248548626e+00
1.659105493258777484e-03,-2.924986511016838299e-04,-9.800493499667481956e+00
-4.403940058816138876e-03,8.658586924377054302e-04,-9.796463234821302990e+00
5.435880721302795843e-03,-1.369583307834719726e-05,-9.789277852559729709e+00
8.235087694550387999e-03,-6.771392935381896280e-03,-9.795938187358611771e+00
-4.200211284315142311e-03,-3.052951881160637440e-03,-9.795895868149573360e+00
3.309441746293955225e-03,1.891566345609999727e-03,-9.789435822531352471e+00
8.437139234995947798e-03,5.537774642607320302e-03,-9.787623907018485170e+00
-2.294469333162565614e-03,8.091842635332366709e-03,-9.785063017957563503e+00
-5.970807716075332561e-03,-1.443875077909177870e-03,-9.799500198043233468e+00
-1.810862894924515024e-03,-8.843115506808992476e-04,-9.798477189078495186e+00
-6.946989136049403933e-04,-3.334743151627215488e-04,-9.793546445918511978e+00
4.385607533791080481e-03,-1.900313994317392953e-04,-9.796764483130868228e+00
-5.927573648078936002e-04,4.064594875140752767e-03,-9.790935829804938706e+00
-1.109676222719555667e-03,-3.314393210919591368e-03,-9.802827232987336714e+00
4.309115571589970314e-03,-2.000722609407377776e-03,-9.800325797903740366e+00
-5.319682571897018514e-03,-5.698360781411840152e-03,-9.798857307648134451e+00
-5.466986536941079340e-03,1.588895111560670531e-03,-9.800482990274216988e+00
1.613861682419140799e-03,-4.663647876567412337e-03,-9.793142093280859939e+00
-2.146117846513407017e-03,-3.158892405282964690e-03,-9.796003273287157143e+00
1.366237397899297784e-04,8.766647950927790311e-03,-9.790345686069722220e+00
-5.027872686647518428e-03,-5.674595822949536801e-03,-9.794904014519183022e+00
-4.716467688047389258e-03,-3.604299644638018791e-03,-9.791475317225318165e+00
-1.997889122235993551e-03,-5.719439991830661645e-03,-9.790760563419102169e+00
-3.510293135351885349e-03,5.086982327154480682e-04,-9.802531537090677816e+00
4.514719737485759464e-03,-2.064493315046840756e-03,-9.790252940165384388e+00
3.288730274482926964e-03,-2.576633280241403482e-03,-9.795789477677905310e+00
3.164960834206978317e-03,-1.272522565494658368e-03,-9.781331329895433413e+00
-1.854725958085180846e-03,-7.045977362237124120e-03,-9.792414733641095381e+00
-4.006190837611458243e-03,-7.701222368064688725e-03,-9.799484701832319899e+00
6.103941287793854600e-03,-1.230985100237974150e-03,-9.794210783109729590e+00
-5.248741022639369022e-03,8.556487166895061780e-03,-9.794869330753192216e+00
3.172521164539842883e-03,-8.682101360869989501e-03,-9.790220218044124678e+00
7.675117505354676906e-03,5.228022318169473111e-03,-9.791062860870928475e+00
2.760473708341907532e-03,8.712447264779103057e-03,-9.789908923582046896e+00
-8.720709803356332728e-04,-3.166613390571935884e-03,-9.794259959002159732e+00
2.947262940187287371e-03,7.960592936843767335e-04,-9.794921516111747550e+00
-5.302438144647153009e-04,6.600453326578646120e-03,-9.798991821661434898e+00
6.812422997555035373e-03,1.856220913375728355e-03,-9.797038656499903908e+00
-4.364520792841795026e-03,4.663838865564969537e-03,-9.794596901469791561e+00
3.095471534944119630e-03,-4.170209348693461500e-03,-9.797524800960243141e+00
-4.348477069640659348e-04,-5.878682931211035023e-03,-9.784662782433731110e+00
-5.645843492606559925e-03,2.731345602588911643e-04,-9.795564535841068121e+00
-1.744462722456629469e-03,-8.394254022567962121e-04,-9.790679839333053636e+00
-7.246383960271503277e-03,1.989947076240368342e-03,-9.797155762486898567e+00
7.393698040170134343e-03,4.980312697495733673e-03,-9.804684852991607968e+00
1.175995391519911969e-03,2.046076689891589574e-03,-9.800633361032813795e+00
-3.997561601302275502e-03,-5.673186615105587326e-03,-9.808233165324384828e+00
3.189244360006126188e-04,1.600028946730978853e-03,-9.786967359167357827e+00
3.300268399571299957e-03,-2.013267751468059228e-03,-9.791332873409279713e+00
-7.798056104450778146e-03,-4.409180633847511327e-03,-9.788501035228538427e+00
1.993089901780732091e-03,2.056166331850518749e-03,-9.792911853191263560e+00
-7.342291756671518767e-03,6.132919421263811725e-03,-9.786230419312738960e+00
-8.701575161520679015e-04,3.321993412788718219e-03,-9.798543610378779078e+00
2.225617314824786079e-03,4.444815328421942817e-03,-9.794889189186527290e+00
-7.474176804185217460e-03,-1.674543157349559289e-03,-9.790824391646523850e+00
8.868028901318852908e-03,-7.287951611393798414e-03,-9.797488477618470526e+00
-3.998481347504328283e-04,3.761145765384362686e-03,-9.790083695096715388e+00
1.190112039351068308e-03,5.306905655113465861e-03,-9.798053009727324181e+00
-5.795822478562742772e-04,-1.234283338274807552e-02,-9.795655361730918997e+00
7.217541945775389923e-04,-2.224943076872897647e-04,-9.797813864039762066e+00
1.628703946484226853e-02,-2.075543482475810178e-03,-9.792601763238980794e+00
8.390461520026806438e-03,9.502293774429661222e-03,-9.798285499513379904e+00
1.989187249109359776e-03,2.615774126812890881e-03,-9.800992511429182485e+00
6.904169106154989244e-03,7.609041930867512828e-03,-9.799263734432603457e+00
5.997445633390747523e-03,-3.396892097946478065e-04,-9.782814483864045840e+00
2.889855572511770831e-03,-2.258214374397869185e-03,-9.787258180564395005e+00
-2.218239201081444786e-03,2.388968924391985261e-03,-9.805107214060486243e+00
-3.506879663937089407e-03,8.756231494611230182e-04,-9.798787451743125487e+00
1.173747577076148310e-03,-5.408582919811867618e-03,-9.792369932045222214e+00
-2.732844663957130060e-03,-2.733621570152982867e-03,-9.793009868594383605e+00
3.003359635172013226e-03,5.102989944593566175e-03,-9.791879393430779288e+00
6.865716035477735773e-04,3.991071631988292977e-03,-9.796545528361566113e+00
3.344459169476063105e-03,-4.586312465289557258e-03,-9.796760961491415287e+00
-7.381309554004957321e-03,-8.994781676518063878e-04,-9.786581872611364474e+00
1.160651694269727516e-02,-2.596039892513418712e-03,-9.794519333158843821e+00
-3.188072324642974307e-04,6.386358186028269143e-03,-9.786000235112636503e+00
4.891413499160541731e-03,6.125240124164106625e-03,-9.791236350351937290e+00
-6.852146019371833929e-03,1.700011029824459495e-03,-9.791114371050491982e+00
-1.037246614425987867e-03,-5.308507326857304746e-03,-9.795839497909749838e+00
3.836423579548527488e-03,-4.091913532696761675e-03,-9.793277670172086502e+00
-5.775139866028950256e-03,-5.455060549246224313e-03,-9.799495048023810995e+00
-6.220643165471750544e-03,-4.416281316716938465e-03,-9.792895538769464281e+00
-1.301028334845408209e-03,-4.880325720757104635e-03,-9.797211502277892947e+00
8.698399275373200693e-03,4.368439803668527563e-03,-9.800165188815627815e+00
2.025609465057511428e-03,-1.259882554152435673e-03,-9.795489562499671621e+00
-3.502372922387381442e-03,1.246482771270477317e-02,-9.789650335610868837e+00
-5.289343368994771540e-03,-5.607598490093473713e-03,-9.791902718965783237e+00
-4.599230726855743287e-03,-2.690839303933171157e-03,-9.791908330788823278e+00
3.174675681335221490e-04,-5.904502071976458488e-03,-9.792408980352197645e+00
6.191971035522626614e-03,3.212855995972002492e-03,-9.794292214516854500e+00
5.432921319595138826e-03,2.433516760497309375e-03,-9.804946725907274896e+00
-3.174787447492281173e-03,2.398690060241394102e-03,-9.796432882648446139e+00
-8.372038826986661492e-03,2.558429132407374646e-03,-9.794718318117324074e+00
-4.023060209157496188e-03,-9.247578863387711373e-03,-9.793275442262709518e+00
1.656100805386387115e-03,-1.080101603540657967e-03,-9.787804370321357084e+00
2.519245101980812935e-03,3.413805112214207769e-03,-9.796617515243934093e+00
6.961404567424967285e-03,6.053199839365872373e-03,-9.793477161688613819e+00
6.109173575639862026e-03,1.291171064772951788e-03,-9.792163255883611583e+00
2.347060041832210210e-03,-3.516937217936659532e-03,-9.786252417023121097e+00
-2.593334119482758847e-04,-3.123079203775980858e-03,-9.793054433611715126e+00
-6.562960606267796444e-04,4.103596505669110904e-03,-9.789655023951130630e+00
-3.875976423628061177e-03,1.738870448423578434e-03,-9.791300352298998533e+00
5.237408728911707723e-03,-2.872193132560069248e-04,-9.786627234625926874e+00
-5.852541467983257348e-03,2.566258475351392010e-03,-9.788025444557096222e+00
-3.332537686490097840e-03,3.645008899942864949e-03,-9.795940566065770128e+00
-3.759432590850699148e-03,1.410984767450579758e-03,-9.791455655037291095e+00
-1.386234925418896322e-03,-1.007655168569092895e-02,-9.787557880082617956e+00
-4.948335176680970088e-03,1.702269245612983905e-04,-9.796558988708095939e+00
3.240844086437256327e-03,-3.119565740757807449e-03,-9.791092274847846610e+00
1.889949810059353289e-03,-2.812603745257147986e-03,-9.795284618608372185e+00
3.523108545779795545e-04,-4.979991004353740910e-03,-9.788372703547150167e+00
-2.156290080873690500e-03,-4.636559946610408281e-03,-9.792100584479776160e+00
2.814409658343401850e-03,1.071298312338943163e-03,-9.801144689380123509e+00
2.129426124660116666e-03,-1.769106385720000318e-03,-9.790452179792966447e+00
-7.048000280794471453e-03,-1.014217786914433164e-02,-9.795710219842002076e+00
-6.835436909396944323e-03,5.143601511475522775e-03,-9.801681884352936081e+00
-2.597427215441647295e-04,-7.010357293657703236e-03,-9.797139067638454435e+00
-1.404826795533909497e-04,1.177735621848909021e-03,-9.795487068196017333e+00
-1.357230489526864154e-04,-2.106050943918622454e-03,-9.791936724575336370e+00
-1.026926283273694052e-03,-8.870841363890652823e-03,-9.792787666830859550e+00
2.597611916059616288e-03,5.205857664439433527e-03,-9.802094172774360459e+00
5.372489617946562233e-03,3.388885220594820957e-03,-9.798238060709238084e+00
5.299421288843953869e-04,8.781032755317676273e-04,-9.789829101313491933e+00
-2.063169364946793385e-04,2.923241177757255889e-04,-9.793684106484931817e+00
7.669723355521249411e-03,7.874772102481608638e-03,-9.805023917674487777e+00
-4.568773588465807264e-03,6.187723346304956941e-04,-9.789986600250895066e+00
-2.466286705687550213e-04,4.617597341321903769e-04,-9.796660766782729013e+00
9.761126193934106798e-03,2.623708723547749696e-03,-9.796633700850444271e+00
-5.372173234516826150e-03,-6.032570028649222871e-03,-9.788152266165960569e+00
-1.709959247528547834e-03,4.193646945421077889e-03,-9.789614258139506475e+00
4.795182493004653858e-03,4.331331990666280676e-03,-9.801504121284537518e+00
-5.321882493781441084e-03,-2.791971563918055777e-03,-9.798311465781242902e+00
1.279047983359243596e-03,-8.818622489739783368e-03,-9.797686759813734270e+00
-1.197338864045332726e-03,-3.859185155887937327e-03,-9.793869614728127004e+00
-3.554725068815879976e-03,1.036126550560822037e-03,-9.804911651861601740e+00
-7.191864204251193285e-03,9.110837143501571839e-03,-9.786315258471070422e+00
-7.744410651976238805e-03,-2.829509946993977176e-03,-9.803475364368695821e+00
7.733386021114374217e-03,1.717247685313476628e-03,-9.801493142814848625e+00
-9.534302280580223693e-03,6.295154163356808837e-03,-9.796205553356490014e+00
4.557523441295303207e-03,1.987041771367578310e-04,-9.792244541941968805e+00
5.079821256283028642e-03,-3.497227838639301121e-03,-9.790552793321237957e+00
-2.354288246575829587e-03,-1.004080909438372603e-02,-9.801898668173672391e+00
-7.716236020220501937e-04,-3.564079155471151523e-03,-9.797492284715147548e+00
-1.510892412652952343e-04,-3.006288044660394062e-03,-9.799713358822625509e+00
4.315477226206938452e-03,2.752100511193102551e-03,-9.793211414195679865e+00
-2.528422942377486164e-03,-3.939305727558847087e-03,-9.797613518184034476e+00
4.909985633939732697e-03,-1.024868722097110885e-02,-9.791844101032696202e+00
3.345209395265979699e-03,4.569093758204590024e-03,-9.793620096062088720e+00
-4.820106331861328565e-03,6.913787440143136578e-03,-9.796720218937936764e+00
-8.848971767843392781e-04,-6.000192589568080666e-03,-9.790429921348893672e+00
4.048690789090109848e-03,-1.838359696036597846e-03,-9.796993074833569182e+00
1.335750017262747787e-02,-8.418550519823285450e-03,-9.799412723863829555e+00
-6.879801847906387956e-03,9.516641472243997325e-04,-9.796415711182515196e+00
9.495011328871826722e-03,7.161623239322455724e-03,-9.799744139326696413e+00
8.414480259932020142e-04,-2.205618554325698526e-03,-9.787252365371767127e+00
-3.760909440500902461e-03,1.920655049998801548e-04,-9.797727440057292014e+00
-6.492657794485588198e-03,5.549518218679924675e-03,-9.791904463033647588e+00
-3.822811436933386351e-04,-3.790992483274548824e-03,-9.801696709685412401e+00
2.962681029529963241e-06,-9.449287423832171406e-03,-9.793885669304049912e+00
1.964443306272818050e-03,-5.614178103695152341e-03,-9.792193643397883562e+00
-2.977749232259180225e-03,-1.576244694922373417e-03,-9.792484393448685154e+00
5.370279937282742243e-03,7.426499640790021339e-03,-9.793156301147769582e+00
-6.647661394711609772e-03,6.346454753067883731e-03,-9.794766979612735014e+00
-4.112128161965374756e-03,2.503161268552253627e-03,-9.793730549892197601e+00
9.153287709550180081e-04,2.257143143665863144e-03,-9.794295388310015227e+00
8.988113839086745230e-03,7.884015525963718185e-03,-9.792140038251366363e+00
1.661828860133248873e-03,1.005047667574579702e-02,-9.800402387913338842e+00
6.379097559233023844e-03,-4.839628442680649631e-04,-9.793981486130373781e+00
-8.674476167895256266e-04,-3.236516414940687975e-04,-9.786903023504324395e+00
-2.137961474161376250e-03,-9.767212493446308930e-03,-9.783728664073571224e+00
-1.418147345130676279e-02,1.185204734657389290e-04,-9.796653081244352634e+00
9.039352320210541957e-04,-4.842877457479061350e-03,-9.795926385943538151e+00
-1.374323606983159096e-04,2.054887003729959517e-03,-9.792595696599791566e+00
-3.375800898655571380e-03,-3.005159814647866395e-03,-9.803117970565738304e+00
-2.794755822973613631e-03,1.856498341784616009e-04,-9.796102242494921342e+00
-5.107084970186978948e-03,8.349717029721146974e-03,-9.792547465438396159e+00
-3.243426369482581891e-03,-1.040543732072551358e-05,-9.798897417671582843e+00
-7.257979082836132391e-03,8.080868485413891106e-03,-9.801940161308898780e+00
-5.326678669603176347e-03,7.632419838243939200e-04,-9.792947893211550792e+00
5.701221631413829448e-03,2.017676816157196878e-03,-9.797110933635622132e+00
4.544913613337514492e-04,-3.030065492661235347e-03,-9.800395715919304251e+00
2.614754505351082436e-04,2.793799702321591531e-03,-9.796744901973118758e+00
-7.397021095709679049e-03,-4.622280682598864029e-03,-9.799200578760524749e+00
2.981122197982243125e-03,-3.173735768115229419e-03,-9.796652681846003574e+00
-2.618359111929001882e-04,7.819565481499329883e-04,-9.793818997124240866e+00
-6.017348356829230714e-03,-6.986913572848254921e-03,-9.788221975494490579e+00
-1.852327452984880692e-03,-4.053085382045321268e-03,-9.784158520755633859e+00
1.386169055673805439e-03,-9.271671338089258621e-04,-9.791571815331636230e+00
-1.139407163396235340e-04,-2.029003635109583991e-03,-9.790280461878282381e+00
-6.997591230707853917e-03,1.796428362006919494e-02,-9.783184711736286232e+00
1.687300116017121992e-03,-2.033124193963314029e-03,-9.799604888757658117e+00
6.308287623974785999e-03,-8.314779244554280913e-03,-9.800773892609607074e+00
3.741106818313312196e-03,-1.300431772953481932e-02,-9.802509775110191725e+00
-6.927443002949358782e-03,-3.458871046472426574e-04,-9.795385193529760670e+00
6.081794028670265556e-03,2.185678173577776644e-03,-9.795154190045213483e+00
7.034927911649735584e-03,-7.409310604041823185e-03,-9.790074626881896336e+00
-6.363098735823957512e-03,3.956348702771308318e-03,-9.794429805261612998e+00
-1.854457581422463020e-03,8.640111713694794901e-03,-9.788251281863097120e+00
6.893759897434913880e-03,6.170164586802071895e-03,-9.796874881511611122e+00
1.699473184374424971e-03,3.694528803420061257e-03,-9.790252002906470352e+00
-7.006142243526698732e-03,4.371863892508401524e-03,-9.794997184819020930e+00
-2.253242444745983883e-03,-1.058863796055220345e-02,-9.791124185677460900e+00
1.011947123678386996e-03,-3.531763570852862206e-03,-9.789809780718488952e+00
6.607506581232528223e-03,6.225954634879316343e-03,-9.803173483304195912e+00
-3.643428185340592471e-03,1.036276518896039238e-03,-9.802181397417706776e+00
-3.737603813414357504e-03,-2.453912458520082079e-04,-9.805705949046346959e+00
6.268378183162092061e-03,1.613719328552275884e-03,-9.801152346213440225e+00
4.242350828641566589e-03,5.416267122338021441e-03,-9.788059100801460133e+00
2.682141780749938090e-03,4.236508644539277793e-03,-9.793718782130218514e+00
9.318006615429573827e-03,8.579608259603231993e-03,-9.794343305470016858e+00
7.822565313899227865e-03,-7.358221570964847092e-04,-9.789444976358542050e+00
2.582643667247237957e-04,-9.655181171415764055e-03,-9.800128769179455190e+00
-5.021547279045964624e-03,2.193793535428205984e-03,-9.791767700244454531e+00
-6.297217313010479000e-04,1.503351957386543300e-03,-9.797061157137163079e+00
-2.876831684838472222e-03,3.780537318141397171e-04,-9.793713528291750237e+00
-3.518739742709450693e-03,1.312336437893786654e-03,-9.792284778489499075e+00
3.497639848671548271e-03,3.161561132662964180e-03,-9.797970252807107983e+00
-2.992750233052907018e-03,-4.917856838710961756e-03,-9.794713752685991537e+00
-5.201838399657461717e-04,-1.295246607224486302e-03,-9.787194330743178128e+00
1.450964202905266490e-03,-1.133022012480807425e-03,-9.794242567145641232e+00
3.079756163993563420e-03,-6.382192948795279396e-03,-9.799201748532397005e+00
3.909875428140648090e-03,3.656877437565103292e-03,-9.791552438496754718e+00
-5.728737913188296053e-03,-7.505209563475652955e-03,-9.796831902965456251e+00
-8.217738153793124542e-03,-2.574588624006055211e-03,-9.794576794325863034e+00
3.989927687922539996e-03,-5.623529046931219702e-03,-9.803326797688512784e+00
1.937552084594313208e-04,6.611351751050751659e-03,-9.797918890764274025e+00
1.971365545112286054e-05,-2.951794777736442728e-03,-9.799116808021258507e+00
6.425321469202072491e-03,5.821214242795365312e-03,-9.805124205047073715e+00
7.668489728180704658e-03,5.895814805448309701e-03,-9.795466135750384495e+00
1.147170699681212148e-03,-3.640992157019130784e-03,-9.792976096598049907e+00
-4.870992076461284339e-04,-2.591766625712693152e-03,-9.800688717865174482e+00
-8.169043635812459070e-03,6.526701113288243573e-04,-9.794095777185388485e+00
-4.077197284735783848e-03,-6.618822740005773572e-03,-9.796609892675670395e+00
-1.295793739992426438e-03,-2.806602704893719404e-03,-9.801375123015391821e+00
-1.232997075006002537e-02,4.500791770096234691e-03,-9.800951723944857363e+00
-1.397094630892537414e-03,3.035554471794465678e-03,-9.794361648902892625e+00
2.540166267633435764e-03,8.879460706731262531e-03,-9.792151120135955011e+00
-5.673514447799352448e-03,5.702437944140061575e-03,-9.791967985784619799e+00
6.340232624404663724e-03,-3.676603868287000101e-03,-9.804032339053046385e+00
7.152646596863252750e-04,-7.256825247756122643e-03,-9.798781537631063188e+00
-7.565427463374214652e-04,-7.047779885897101013e-03,-9.792977392693778427e+00
1.441707129543071987e-03,-8.116123733758182079e-03,-9.804631885101482425e+00
3.174954891522624618e-03,4.116395008033920901e-05,-9.793206578929840589e+00
-6.673011961313389528e-03,1.255056095803388540e-02,-9.788674274441484968e+00
2.289136086231509989e-03,6.416246829262852412e-03,-9.792554713941134636e+00
6.606923243811627794e-03,6.191896062769392667e-03,-9.800479326584824236e+00
9.748149609837906959e-03,-9.802572958287436664e-04,-9.805889146503959708e+00
5.477661976102403754e-03,-1.457788775192317464e-03,-9.793381069145903339e+00
1.203981605261241969e-02,8.889216243488084210e-04,-9.789088751234368502e+00
2.296375247366653442e-03,-2.342031522485379241e-03,-9.799209772051904466e+00
-6.035681154205874838e-03,4.787520356649077428e-03,-9.794747436688272302e+00
1.600313052381218846e-03,-7.608109893069010289e-03,-9.794819217705919456e+00
1.109953541362286057e-03,3.903007523447946017e-03,-9.791318478427601946e+00
-9.530323702433624771e-04,-2.564636179175506375e-03,-9.800158784852163407e+00
-2.527152615670141128e-03,2.023797588894340766e-03,-9.794769392024134547e+00
-7.464784902725584738e-03,-3.958981186888300280e-03,-9.795915875265679418e+00
6.344614468302247397e-04,-4.914280640187089141e-03,-9.791695719261717556e+00
-1.335363150885748862e-02,6.440991903487645887e-03,-9.797067414028644450e+00
4.477081087280437161e-03,5.445230500351710273e-03,-9.796876908347615043e+00
4.479532314842158032e-03,-5.664361003347620493e-03,-9.789095058975647135e+00
-4.187827797213582019e-04,2.827368808755799010e-04,-9.792833870909483096e+00
-3.321966069332716199e-03,2.952337760973786779e-03,-9.804740483458022737e+00
3.366562706384468740e-03,-4.100019026531029863e-03,-9.801733599513983819e+00
3.973133476908422695e-03,1.092656728458534475e-02,-9.794181644494500460e+00
-1.256696252989512180e-02,-4.736140732800860152e-04,-9.795721877312278281e+00
1.602556793077568884e-03,4.554770824597586046e-03,-9.793364180926593221e+00
-2.180373044286798394e-03,5.894668477318031280e-04,-9.796639622147248261e+00
5.057429232903524162e-03,2.240289805824899772e-03,-9.796843275252930638e+00
-3.638735405697336982e-03,-1.755366223318231920e-03,-9.800400422504756293e+00
-8.005233450446937182e-03,8.345638985853390951e-03,-9.797454272563447475e+00
-2.464229526989312503e-03,-8.076211870772322110e-03,-9.786984571353912088e+00
-5.464675865236120382e-04,1.349373324661073698e-03,-9.792697538733536433e+00
-8.877151970516245286e-03,7.767282856359074717e-04,-9.789766240648701157e+00
5.260657738815738803e-04,3.295659019969428716e-03,-9.793538467908877720e+00
1.315367435577182191e-03,1.800499255185425201e-03,-9.796224569196171572e+00
-1.254514326396897117e-03,-5.632089756419066118e-03,-9.797565005215895795e+00
-4.679588161838955582e-03,2.023539668550043431e-03,-9.783519175289862702e+00
4.349768654519152802e-03,-4.925027401659243416e-04,-9.791433739397502833e+00
9.686915171262865804e-03,9.257686507768394385e-03,-9.796313344285639602e+00
-2.166290071658400266e-04,5.171478943790665597e-03,-9.801861482710402029e+00
1.297677691184771429e-03,-1.100304256140295905e-03,-9.793248868159935228e+00
-1.304427390883922382e-03,5.057138626772763983e-03,-9.807526305487673568e+00
-4.638543179119008326e-04,5.330258792470083523e-03,-9.793287070955400964e+00
-1.440402242184034244e-03,-3.458249794962046323e-03,-9.781284048188227942e+00
-1.483587572129688864e-03,-1.424077534199390607e-03,-9.788969286695584415e+00
2.216122465248713744e-03,6.637511441900873117e-03,-9.795230354381200044e+00
2.138972193980846846e-03,3.913755857366879413e-03,-9.800820161710621647e+00
-6.552050234970910585e-04,6.767448007967405074e-03,-9.793996661901399392e+00
-6.623475472310971779e-03,1.433868232390219299e-03,-9.788433606667055642e+00
4.464008654921053365e-03,-1.241228760780085883e-03,-9.800847895106592489e+00
-2.915856966694185728e-04,1.418040728649008937e-02,-9.792319372361745877e+00
-8.768549200278589334e-03,-6.143787184457152190e-03,-9.799532638726587308e+00
1.021652876009769995e-03,-1.363634902558001714e-03,-9.793218812359361536e+00
5.327978027558381499e-03,-2.259953847013487001e-03,-9.799290804678150835e+00
-6.753855149950486504e-03,3.685504867440965449e-03,-9.795089517047149030e+00
5.642354017657650982e-03,9.195731394327774167e-04,-9.792532417862764405e+00
6.506329898361386732e-04,5.065987870248199985e-03,-9.789908430936399952e+00
-3.793578032086084365e-03,2.902146501276554966e-04,-9.790895338458664554e+00
1.435400703680089112e-03,4.463236082568281839e-03,-9.792283796182653433e+00
7.848200866805355629e-04,-1.718386097293734833e-03,-9.793649169053155745e+00
-5.924344636513553461e-03,3.347824034872472643e-03,-9.799987502039044784e+00
-6.869257759657753509e-03,-4.732094152862795396e-03,-9.793308292796528036e+00
-2.360838706780425504e-03,1.258433284530080043e-03,-9.788955347747364755e+00
-6.084077156898642751e-03,-1.521287291386288652e-03,-9.790683878227145698e+00
5.503349239289744531e-03,8.106675798896326732e-04,-9.794036524982642433e+00
-7.746501625310105166e-03,-4.237505770302721700e-03,-9.798059888897782344e+00
-2.007777975557717160e-03,-3.008653122887638021e-03,-9.798829938023601471e+00
-9.908541063442962565e-03,-3.974154843202410054e-04,-9.790600697858458545e+00
2.548347112488900858e-03,-4.097648892083752097e-03,-9.797548486714863003e+00
4.949604831188857135e-03,-6.447873683225519362e-03,-9.806919917827482180e+00
-6.580550911900646255e-03,-8.828993616275903830e-03,-9.803849491149925655e+00
-1.717896725758301553e-03,4.201544007374002215e-03,-9.792260406234289505e+00
-1.507800132515287701e-03,2.231305806790882199e-03,-9.794682311584882228e+00
-1.840712498861193230e-03,-1.316335804673754266e-02,-9.796217833309604828e+00
-1.945086446518247674e-03,6.300883880831159925e-03,-9.789909900041806168e+00
-2.197164148521063651e-03,-1.271330719208706248e-03,-9.802720665746253559e+00
-2.881424776232486325e-03,2.368498574841189103e-03,-9.795981897803557104e+00
-5.842993442257783665e-03,3.060708301972255452e-03,-9.796829120252372292e+00
5.139523383847533627e-03,8.518315579870467877e-03,-9.798641849681960281e+00
1.994075116516683122e-03,-6.348848485222474865e-03,-9.785812047536103009e+00
1.411047818830788066e-02,3.599749584939523320e-04,-9.805975014564225489e+00
7.912321208606112356e-04,1.820351954227326929e-03,-9.790565790877215235e+00
1.003038061142541570e+00,8.126099145631126425e-03,-9.805519541056908039e+00
9.998545548006515515e-01,-3.266244136354767499e-03,-9.792750138443992114e+00
9.966794958772681179e-01,4.436438010306844584e-04,-9.788875667783432988e+00
9.969151881797111425e-01,2.436793766570853267e-03,-9.789132526544959134e+00
9.936588687631785488e-01,1.636252526773815255e-03,-9.788449964133281611e+00
9.941536522487849359e-01,-1.765222903366349275e-03,-9.800760713138840785e+00
1.006067040708792382e+00,6.841551903947886565e-03,-9.795519115721328163e+00
9.943040856836213859e-01,4.582570472560157891e-03,-9.792412383445947555e+00
1.001895362293387937e+00,2.330742941344148748e-04,-9.798338818143083273e+00
9.965327381168765930e-01,-3.023503455435996076e-03,-9.801683814210612411e+00
1.009201403502538730e+00,6.574142696249568249e-03,-9.788257914580102081e+00
1.002238463359835352e+00,1.208225203332355564e-03,-9.795930146016811335e+00
9.979326597901853058e-01,-2.552818019061816462e-03,-9.794834580478136488e+00
1.000362091690355948e+00,1.481840098814122359e-03,-9.789713887733798359e+00
1.007598490174573591e+00,9.189041773784977288e-03,-9.804487070747992306e+00
9.958295073780130124e-01,1.107656458708569224e-03,-9.801010200696953945e+00
1.001159513522929867e+00,1.819271787629719601e-03,-9.790802259349701941e+00
1.001005583593275627e+00,-4.729459570557466817e-03,-9.788104559477009303e+00
1.009710605573134634e+00,-4.826820803685275343e-03,-9.800389265940717465e+00
9.953038801666500568e-01,4.693166808923317571e-03,-9.792643712158110247e+00
9.965662242925270586e-01,-3.789109443003518124e-03,-9.791894345007483125e+00
9.966881330537300521e-01,-1.138940353453907596e-03,-9.795542399631258945e+00
9.990135020653742037e-01,-2.417408945315976769e-03,-9.801402143879196061e+00
9.874530453268663965e-01,5.302432947757809885e-03,-9.796312944729052674e+00
9.967917043431930857e-01,1.108467268357170472e-02,-9.790779311990617018e+00
1.003541673301637571e+00,1.398993554820384538e-02,-9.796463601068468918e+00
9.997236195474819009e-01,-3.815555920256354181e-03,-9.790940700866833879e+00
9.898220312195430415e-01,-7.703807811384522086e-03,-9.801864584311326567e+00
9.983126260459505019e-01,8.957209854816790967e-03,-9.791953286655949995e+00
9.906604826581484335e-01,-9.832048883402875073e-04,-9.798090804533291731e+00
9.989182137516260385e-01,-7.312413811538449101e-04,-9.795011369682347535e+00
1.003246896925277465e+00,-8.493851989203934222e-03,-9.791388980028086664e+00
9.990153107770820551e-01,7.098344102233913530e-03,-9.788510225853343627e+00
9.935418934621279563e-01,-4.276199496105964094e-03,-9.790770007434145938e+00
9.999930192853978550e-01,4.856149493261894580e-03,-9.800823392174123683e+00
9.962857946539495080e-01,2.642198198546218645e-03,-9.799157908617011969e+00
9.989510122954856630e-01,6.000472463293410330e-03,-9.787000727817359191e+00
9.968020628755761559e-01,-6.372173980239288250e-03,-9.796784220528518716e+00
9.927338866206715240e-01,4.808168529286378431e-03,-9.790166214297640224e+00
9.984272075974957028e-01,-1.093126369164493499e-03,-9.787500441344825219e+00
1.007345425056259902e+00,-8.268250646092838510e-04,-9.799762391724490485e+00
1.005146169847317417e+00,1.629784403678973285e-03,-9.805231095204323566e+00
9.969631354755830177e-01,1.554451523622046643e-03,-9.795067288853337217e+00
9.983017599822249233e-01,-5.043210094631352461e-03,-9.790361098526830119e+00
9.977716233443437721e-01,3.443730383005368188e-03,-9.795259035318954588e+00
1.006145566886251341e+00,8.220120714330274650e-04,-9.801911985975779729e+00
9.903109562051709558e-01,-2.303483801227090583e-03,-9.799632800741809646e+00
1.000303497463031155e+00,5.954172305574006833e-03,-9.793831842487911388e+00
1.010994714080602153e+00,-1.365943910582357104e-02,-9.800996925090716516e+00
1.001492139409542403e+00,-3.391395006892328028e-03,-9.798088695465704490e+00
9.964345183256293481e-01,1.071474073262576945e-02,-9.795961083376868217e+00
1.000535785691486268e+00,9.019116395283216514e-03,-9.799215657318454120e+00
1.000617697433799025e+00,1.811191656342921608e-03,-9.803035602824852646e+00
1.008675161391058728e+00,-7.436148126937134478e-03,-9.793292378394955477e+00
9.881921723841859961e-01,-7.917420369220435575e-04,-9.795133909427015340e+00
9.949495749087500229e-01,2.446177483524359774e-03,-9.787716813846113695e+00
1.004352513859846363e+00,2.450745872299351074e-03,-9.798540864293247665e+00
9.951758308276053011e-01,-2.562145014210523430e-03,-9.803299824836255283e+00
9.979402909775804131e-01,5.477679425019970662e-03,-9.797148305219984366e+00
9.972182610557385196e-01,5.550670657962174064e-03,-9.796806480168694264e+00
9.975412272815482595e-01,-1.014483754557520033e-03,-9.794737865233889451e+00
9.935147583576973140e-01,-6.409489872445755382e-03,-9.798365996643537912e+00
9.979038224968409532e-01,-6.036920686364192351e-03,-9.788151543285868783e+00
1.003412892459147665e+00,1.566216694720618972e-03,-9.802254811405267887e+00
1.015593715921748297e+00,6.186957530300407626e-03,-9.796969782560262630e+00
9.961567633479738726e-01,5.411262328116149718e-03,-9.795577410811034724e+00
1.008308582289694888e+00,5.779623630214694892e-03,-9.792439391680096250e+00
9.972015942471497141e-01,-4.785028760442417567e-03,-9.793692546187596548e+00
9.982457712668524330e-01,-2.748413626621915712e-03,-9.798440577712810295e+00
9.999723125443461536e-01,1.274313331326800314e-04,-9.790479720300304223e+00
1.001011904221822624e+00,1.691331871864078023e-03,-9.788710446555363376e+00
9.961633736038136844e-01,3.953555018485259420e-03,-9.801444337209689550e+00
1.002699357771803745e+00,7.636155938223122830e-03,-9.805143926552000622e+00
1.005121512977257492e+00,-1.033859587425552638e-02,-9.794171720571451800e+00
9.957394709977142044e-01,-3.833846866787725925e-03,-9.796022501352213752e+00
9.962534378939493784e-01,-3.296035547876713292e-03,-9.794470677830702243e+00
9.992781357271209863e-01,-5.093583445351513098e-03,-9.795832049085351656e+00
1.001946186794274052e+00,-2.289934947693363435e-03,-9.790978228782051929e+00
9.928891860124877677e-01,-4.572010033265342353e-03,-9.799741889372086234e+00
9.992657055642664155e-01,3.129821475317502884e-03,-9.796307325078386086e+00
1.003863159589094778e+00,3.873231176131597571e-03,-9.798383794908195554e+00
9.952600773273470036e-01,9.845104095377397307e-04,-9.796805347322511182e+00
1.000889708814001189e+00,-5.269942667382408567e-03,-9.792326618230017488e+00
1.000947681816597878e+00,-1.247250496632900524e-02,-9.797451934232721982e+00
9.962142244626587262e-01,3.526392216879557437e-03,-9.799633727655582049e+00
9.982568535225068151e-01,-5.320886769767062957e-03,-9.800692942256791440e+00
9.988703930525449914e-01,2.618907874473275221e-03,-9.790585622904369956e+00
1.003859059668765985e+00,-8.004679162528279684e-03,-9.799357445142977241e+00
9.941005206197249811e-01,-5.956790627524598258e-03,-9.790638580107543731e+00
9.983035974143801283e-01,-7.143126662922613147e-03,-9.794070344622273439e+00
9.874008807161338552e-01,4.276845430777377784e-03,-9.798570997944729299e+00
1.000372794056777259e+00,-8.469755018324134563e-03,-9.796833324337045568e+00
9.958162944836868036e-01,3.634081224996506612e-03,-9.802782858397515398e+00
9.979815654510989509e-01,2.282323790501087930e-03,-9.799577972858568131e+00
9.985160458958223240e-01,-2.777745853815767520e-03,-9.782652093339811117e+00
9.985019487875541611e-01,3.442586099386201609e-03,-9.790361720055875239e+00
9.995909619904614907e-01,-5.665186239029354476e-03,-9.788701584014932067e+00
9.986125725531903585e-01,-4.926909453063049900e-03,-9.804631818249793795e+00
9.955292927135015457e-01,1.322822772681875921e-03,-9.793590972690205732e+00
9.977419870125802115e-01,-2.225536981867424786e-03,-9.796755202369094917e+00
1.001649369946406631e+00,-5.220820337641541610e-03,-9.802215766899678329e+00
9.945189075120056676e-01,8.420925108496108910e-03,-9.798593185463563060e+00
9.953741079047445650e-01,-3.790225392770971927e-03,-9.794182310881003772e+00
9.999653259460087318e-01,-3.181609046957527449e-03,-9.797241759796028404e+00
1.000432802182606329e+00,2.906639858855339636e-03,-9.798202840481232911e+00
9.992644387326906630e-01,-3.795952252821885396e-03,-9.804448396673869581e+00
9.961967658133448200e-01,-2.257601766799551511e-03,-9.801270848460740481e+00
9.968972943974722112e-01,-1.361817548671240795e-03,-9.793889863898442627e+00
9.998214878269685579e-01,-4.141676175126068654e-04,-9.796373150332458479e+00
1.004283337951928701e+00,-4.819075400769067159e-03,-9.782021626549983750e+00
9.943056263447161980e-01,1.008805964987204498e-03,-9.800423631275293701e+00
9.966362175872212070e-01,2.686204478504607661e-03,-9.796486940399057985e+00
1.004431355976100892e+00,-2.839366306258214387e-03,-9.805437433834130800e+00
9.983295937768610351e-01,-2.186011237202196544e-03,-9.795846403816849346e+00
1.000851708922809724e+00,-2.251431309803099325e-03,-9.792593946599740917e+00
9.990024678367066535e-01,-5.124533189956353291e-03,-9.792854827002585694e+00
9.867985937489704984e-01,-4.883751904954851050e-03,-9.791767669550338837e+00
1.001533120743369087e+00,-4.338070239544049821e-03,-9.794748225533172814e+00
1.004915721089238323e+00,-5.403808441344345797e-04,-9.790655551215566632e+00
9.997626482130885783e-01,-1.073041590037743416e-02,-9.785338479662172517e+00
9.984922599885596162e-01,-2.169378291278967977e-03,-9.789856811177163110e+00
1.000126149837979650e+00,-1.414150506675181064e-03,-9.792514747633104477e+00
1.013337287696311373e+00,-1.658262396371338286e-03,-9.792139118632078976e+00
1.000356908321759608e+00,-1.620093997782824863e-03,-9.796278042485651483e+00
1.000522174915224216e+00,-9.040455577986396566e-04,-9.799499578456623894e+00
1.002398330495742007e+00,2.920976134616622578e-03,-9.791725405252888592e+00
9.960082179219008625e-01,6.185791687961549219e-03,-9.792139256701396732e+00
9.943808264337056224e-01,1.692549551472124006e-02,-9.799446016175238583e+00
1.001689678846687137e+00,5.676541220899879343e-03,-9.797322222252141444e+00
1.000255517884800938e+00,1.536915964511201401e-03,-9.798226517322371265e+00
1.002380084200764854e+00,5.689416448812776965e-03,-9.794517607939839721e+00
9.975573360828687841e-01,2.904710969723280425e-03,-9.802946991098075102e+00
1.005412229382109723e+00,2.252645415458124235e-03,-9.792432297952368359e+00
9.944057399848413858e-01,-4.144147187957919237e-04,-9.790491034530200309e+00
9.948979649429361416e-01,-2.088226540581132693e-03,-9.794359605084988374e+00
1.002798973966478435e+00,4.171060116804037668e-03,-9.792328308545029003e+00
9.960304419774975715e-01,-1.613574571211260364e-03,-9.793760175342027807e+00
9.984329195584349392e-01,3.857579412782041707e-04,-9.791679591629419477e+00
1.000430867759621423e+00,3.726521348771421032e-03,-9.786617716886796714e+00
9.929685540658212961e-01,-2.137436587804391469e-03,-9.805042970361043331e+00
9.907497930883882864e-01,5.196184789172416177e-03,-9.801828209994638996e+00
9.963528296381443106e-01,4.528960927950348783e-03,-9.785406418951904328e+00
9.997561706603835807e-01,-3.381057259372295155e-03,-9.788871658439427748e+00
1.004807434150682521e+00,1.151342145941405956e-03,-9.793119844845719513e+00
9.944569462742265387e-01,-2.620569405326637381e-03,-9.791534757501592523e+00
1.000888761927469339e+00,4.332858942229920150e-03,-9.794863733831448371e+00
9.956661284749790397e-01,6.685401094052252418e-04,-9.800423598408293913e+00
9.967496312973325168e-01,-9.983679419077275130e-03,-9.791041761433501023e+00
9.924465881734085837e-01,-5.169743000187472515e-03,-9.799585369515002142e+00
9.976084299262631960e-01,-2.590668214480727413e-03,-9.797118647070748310e+00
1.004590191251586218e+00,3.507985253316870007e-03,-9.782227240385719114e+00
1.004232719392893936e+00,1.250455155122860663e-03,-9.796536291510125949e+00
1.006437270629270131e+00,-1.709084201372476890e-03,-9.800910704936622864e+00
1.000963448108977527e+00,1.165105680408052083e-02,-9.794682036887284227e+00
9.939393613156701779e-01,-9.035051197040049747e-03,-9.786070623247871580e+00
1.005921336349996809e+00,4.264018373657136110e-03,-9.795614290958960524e+00
1.000729598433322876e+00,-5.649283949983520403e-03,-9.798147312155096600e+00
9.956230906536448488e-01,-4.207572766167358425e-03,-9.793773548984981758e+00
1.009943927824646259e+00,-4.048760110244555878e-03,-9.795907714881058936e+00
1.004435196961453780e+00,-8.616261590760107558e-03,-9.793833765953827708e+00
9.926360002355389955e-01,4.965243165994316643e-03,-9.789848445845091618e+00
1.001442242228251844e+00,-9.920966811335523751e-04,-9.787866642379086102e+00
1.004694936492858570e+00,-1.650367497709018553e-03,-9.804204982087201259e+00
9.965137369513431542e-01,1.322387185445327669e-03,-9.793940518891723457e+00
1.004851993548861566e+00,1.184496307989692720e-03,-9.790362346463441057e+00
9.991320796265057425e-01,-6.642974808477460601e-03,-9.794576022430847573e+00
9.980939483959593295e-01,-2.812050987757185364e-04,-9.797673123547196994e+00
1.000452886088733617e+00,2.725041202953706887e-03,-9.795378366361040534e+00
9.947020870942493431e-01,-5.495525458148217517e-04,-9.793315471956734797e+00
9.923877936855090010e-01,9.410423177739872524e-03,-9.795273332870303662e+00
1.004217204719568546e+00,-8.155625963384731045e-03,-9.791348310259067489e+00
9.995056664270393076e-01,-3.094755157631869612e-03,-9.799001768959254122e+00
1.005010840662939442e+00,-1.990830570873194059e-03,-9.796183860992272230e+00
1.004403069327120868e+00,-4.372473139392521815e-03,-9.804420985642282815e+00
1.003229322450009731e+00,-6.388657100857738670e-03,-9.794769854007340015e+00
9.923443463818950594e-01,1.430080389210158049e-03,-9.790222280348116257e+00
1.004894647355333515e+00,-3.835616024066347898e-03,-9.792631484797189145e+00
1.000385874229684058e+00,-4.662105102689751389e-03,-9.787509298023596926e+00
9.997742576498804823e-01,6.460386429425710522e-03,-9.797993613560498360e+00
1.008131650226459231e+00,3.928401849753188589e-03,-9.802045780418790599e+00
1.004628827110214617e+00,-1.764227408068025273e-03,-9.796431533285389293e+00
1.009582582466452383e+00,5.834447189893413044e-03,-9.790391264037875629e+00
1.004508868592375981e+00,7.959724811568565442e-03,-9.796515989502690758e+00
1.000565760093113932e+00,-2.294471002018879605e-03,-9.791707419594114725e+00
9.925451260183764113e-01,-6.363734895766467742e-04,-9.791514106691206365e+00
1.000041492375669749e+00,-3.769750775313784950e-04,-9.794025076184883716e+00
9.930651304988851180e-01,4.574312140774916546e-03,-9.799308188448204504e+00
9.920854234440944497e-01,-9.349018087666930744e-04,-9.795159914795576128e+00
1.003532009470750497e+00,-3.583016658506365821e-03,-9.784377786469850236e+00
9.921973879568735111e-01,1.042924591750698897e-02,-9.781893533715102507e+00
1.001064995576446348e+00,-2.605417700723495784e-03,-9.799314415981438486e+00
9.990465469743609050e-01,3.867607318001437151e-03,-9.794288554331656016e+00
9.914050982788579214e-01,2.849190008668566008e-03,-9.800305329040410740e+00
1.000845956106635404e+00,6.365248445083171111e-05,-9.796106552302232373e+00
1.002146585744415397e+00,1.252124942770109235e-03,-9.794054451002274675e+00
9.982664081700041159e-01,-5.496808812666047032e-03,-9.799247655556579062e+00
9.992439779568978997e-01,-6.771594398869563818e-03,-9.796861044911345573e+00
1.003443750893626474e+00,-4.344725594479602500e-03,-9.800603442236640817e+00
1.000745674560853393e+00,-7.486950496072724594e-03,-9.794125665169671535e+00
9.996023997139091843e-01,9.935823327190455162e-03,-9.798743566667633687e+00
1.004108266060757870e+00,-7.657388654642753416e-03,-9.791133810040914653e+00
1.004746514162857096e+00,-1.029451918715416220e-02,-9.790480530056525410e+00
9.931370381107585965e-01,4.087835309497432623e-03,-9.798761648605847085e+00
9.970136772242904621e-01,2.622220775448437426e-03,-9.793300168502272030e+00
9.981107224777858722e-01,-3.030275214675554486e-03,-9.791327798831479967e+00
9.945656991314041351e-01,-1.301518583785492647e-04,-9.795090900694807701e+00
9.868143061933802862e-01,6.785346569126068580e-03,-9.791524388639068377e+00
1.008851147267420423e+00,6.880815207303510490e-03,-9.794573559404186724e+00
9.930751775204247345e-01,4.502550905068215814e-03,-9.792378705159931584e+00
9.952082558714779870e-01,-1.332180035528806759e-03,-9.792408675995790901e+00
1.006653651302546804e+00,4.823309255289580724e-03,-9.800331213689018384e+00
9.989871744289957611e-01,-3.027983523269013339e-03,-9.793250312574610206e+00
1.004477118685192183e+00,-6.187220354943369187e-03,-9.802133778984673640e+00
1.000980284017205735e+00,-1.385123313366644088e-03,-9.802932952561597801e+00
9.977204435843730623e-01,-3.139285336678523507e-03,-9.797519512383866314e+00
9.944894385218109312e-01,-1.088194134243781466e-03,-9.789503546106091747e+00
1.004099212061304369e+00,-1.054420430625218567e-03,-9.800288872158667175e+00
9.919296566356127220e-01,-9.813493622921495158e-03,-9.803553021753947050e+00
1.005962094189795319e+00,-5.743244867586661147e-03,-9.788542440506057929e+00
9.936164595630332386e-01,-5.413149275904703510e-03,-9.794564041525793741e+00
9.947514910213685058e-01,4.452862661541042680e-04,-9.792413909909587488e+00
9.962286816079135576e-01,3.927448309478968002e-05,-9.806492023186324403e+00
9.947659211250542421e-01,9.307354450159461027e-04,-9.800110020397465149e+00
1.003741379198124450e+00,6.368848105183426075e-03,-9.794771261508198990e+00
1.005049557683919570e+00,-8.014674179458938438e-03,-9.799795602738178957e+00
9.987527388822052821e-01,3.095458399337184998e-03,-9.790718908785848384e+00
9.994394399073525115e-01,-1.498421576163035465e-02,-9.797437676545712293e+00
9.966748357014407755e-01,-5.239907138107104990e-03,-9.795137600186453852e+00
9.966827346227129514e-01,-1.322037618745819203e-03,-9.794890859127988847e+00
9.990019491810065988e-01,4.324986080314408184e-03,-9.795623128190426243e+00
9.979997962115355614e-01,5.165668817512482185e-03,-9.793759951413001374e+00
1.015193459244170704e+00,-1.038986115385655013e-03,-9.801765055563949502e+00
1.000531779091530682e+00,1.580505655692033499e-03,-9.795015264567226154e+00
1.000336257833333464e+00,-6.020095059518441871e-03,-9.798449015775284821e+00
1.000385714820527738e+00,-4.968409738213108717e-03,-9.798775040212419185e+00
9.947466705309041535e-01,8.593161478180565659e-04,-9.789988746115602325e+00
9.988597281813587081e-01,3.651511281462371285e-03,-9.799250938770128982e+00
9.974042111059863158e-01,-8.190571151584068871e-03,-9.788033893380465145e+00
9.949815302290344610e-01,8.113866741263851259e-04,-9.789664833594217797e+00
1.000073401491000658e+00,1.599769009741937092e-03,-9.794614768607051047e+00
1.002061630389012636e+00,-9.065372559782170631e-03,-9.788504012721437775e+00
1.003503830602460845e+00,1.047941287357508425e-02,-9.801323012082796993e+00
1.001096670669627153e+00,2.303391470212969808e-03,-9.796615087770030428e+00
9.969557730119481542e-01,3.021530083432497483e-04,-9.790800805277223517e+00
9.954108587463320612e-01,4.657008198852441265e-03,-9.786567306184409176e+00
1.009767690771386395e+00,2.512376129575074712e-04,-9.787637946635028285e+00
1.000431364607539342e+00,6.404239687556159515e-03,-9.795868510536983820e+00
9.987447448989736909e-01,-2.219697640398549804e-03,-9.795806520362416947e+00
9.999221519118453028e-01,1.043915690583386777e-02,-9.787409874323662606e+00
9.910133642188533321e-01,8.723750872570606649e-03,-9.800387572453329810e+00
1.000684157111656702e+00,-3.402717075985933672e-03,-9.802660383164257141e+00
9.947474751781597568e-01,2.000852986409398186e-03,-9.796262294705183393e+00
1.004916100619234864e+00,4.501379947296161449e-03,-9.792358076603779438e+00
1.006920339253106977e+00,4.767300006230314365e-03,-9.791763654151914409e+00
9.931646927766107913e-01,-2.397514522465840018e-04,-9.789630654803310961e+00
1.006673893805471121e+00,5.526122912210625245e-03,-9.795851214760018522e+00
1.001659340044358970e+00,-4.369191254126749725e-03,-9.800643725638034098e+00
9.929463886340099688e-01,1.309537271464299678e-02,-9.801004732396906505e+00
9.964155924823950850e-01,-1.663570696428563972e-03,-9.790744331720711457e+00
1.000952556400013016e+00,1.292294082575279985e-03,-9.791631426388669013e+00
1.002144470843914670e+00,-8.292840863435061403e-04,-9.783213358002541327e+00
1.007927983068172662e+00,-2.359515655495020639e-03,-9.795719599934846755e+00
1.001407262172183454e+00,-4.910271220587480480e-03,-9.796339953627281716e+00
9.954019781804804845e-01,1.564816534139954829e-03,-9.794115063608165528e+00
1.009129265486019111e+00,5.943040045841239787e-03,-9.798450372542934161e+00
1.005024602341420437e+00,4.288799658959824464e-03,-9.798154832334800446e+00
9.970603920925124042e-01,-2.797084972303845105e-03,-9.798578147584056097e+00
1.002978781309501244e+00,5.712330044684264807e-03,-9.793761126806538542e+00
1.003078472727721326e+00,-9.722401715023903891e-04,-9.792489152908862238e+00
9.990426176582446471e-01,1.390651678197622103e-03,-9.791500114009554778e+00
1.001188277111282332e+00,6.434561884839038728e-04,-9.791355476703047955e+00
9.991505776721384402e-01,-3.879073170435081656e-03,-9.790552026039470945e+00
1.003645462564996871e+00,8.557263019917927236e-05,-9.793976711715030703e+00
9.954268653029063607e-01,-7.313531814194533694e-03,-9.793487093148689482e+00
1.002538888481119717e+00,7.526654933940868895e-03,-9.796706781716826740e+00
1.003856781978383461e+00,1.734873101045226497e-03,-9.799049884635918417e+00
9.989986242778506886e-01,3.713110376869160705e-04,-9.803542389928745493e+00
1.002205589019839582e+00,-7.514564368992404826e-03,-9.799696137507444504e+00
1.002511850459609777e+00,-6.136628301853067589e-03,-9.796561295552296045e+00
9.926026437310311312e-01,2.749070723380355342e-03,-9.798362206452077672e+00
9.961321482981496667e-01,-8.611902161007885248e-03,-9.796036670868888407e+00
9.986125368874321229e-01,-4.748081923264373290e-03,-9.797709210932559643e+00
1.000374884443272494e+00,-1.271368702953583861e-02,-9.795180548298574763e+00
1.000312030589391998e+00,7.979820020705607683e-03,-9.797198960786875688e+00
1.000372485609349882e+00,-5.922439348537413169e-03,-9.801143335375916976e+00
9.990789383357954190e-01,-1.423429942015757860e-03,-9.800549492093395543e+00
1.003956641681323703e+00,-6.987942938191936057e-03,-9.803814592812585715e+00
9.957197728297965122e-01,-3.913155946391665314e-03,-9.793302249319941311e+00
9.947712248945247415e-01,-3.323048823207206282e-03,-9.791739832378866026e+00
9.990343330370986541e-01,-1.773821093741841841e-03,-9.794198956328031613e+00
9.996203596421063819e-01,1.981765054388482782e-03,-9.792617195866379021e+00
1.006335343130189353e+00,8.571992018515411926e-03,-9.789991894438813347e+00
9.937824002197401807e-01,8.305548868657215440e-04,-9.794834582592265804e+00
9.994128424083480455e-01,1.402515905862674163e-03,-9.792348378838401146e+00
9.984353092659807860e-01,3.823591928547726872e-03,-9.784001913547784923e+00
9.904021208444087065e-01,-6.346679677592169042e-03,-9.805176964334426870e+00
9.996736368822133345e-01,-1.626365612336610296e-03,-9.796625502304527444e+00
9.976874130787221073e-01,-2.756082491621585865e-03,-9.797335363786944029e+00
1.003482329851312027e+00,-3.699257547337616268e-03,-9.787143133080745017e+00
9.986178205092189897e-01,1.145275610651972200e-03,-9.794903347346309630e+00
9.999233169899810481e-01,2.381918535090881556e-03,-9.782050968375727962e+00
9.978332648964695073e-01,6.845001829013163753e-04,-9.793603493878530131e+00
1.003198814106933456e+00,-9.052162078949625365e-03,-9.789185637751657509e+00
1.010807223532257826e+00,6.170787631958021997e-03,-9.794416774300138684e+00
9.912921619458853195e-01,2.251053733767410803e-03,-9.796205794998813943e+00
9.947806860546009045e-01,5.220023281743106126e-03,-9.791439612463156195e+00
1.000535235788651889e+00,3.863659894262339717e-03,-9.799478575761062515e+00
9.965055244272656987e-01,-6.492290853707160039e-03,-9.794078352796047326e+00
9.967010047411253293e-01,4.292748877654464605e-03,-9.793539314092639003e+00
1.002527254364718123e+00,1.703287515774056654e-03,-9.802811062456100899e+00
9.954905498826244203e-01,-4.227624000161731010e-03,-9.787215561810985065e+00
9.923533516220298667e-01,2.067538669736299246e-03,-9.803769933489009603e+00
9.995797044755719840e-01,2.721361647782349295e-03,-9.802481564561452032e+00
1.003478868860250728e+00,4.629013331186821421e-03,-9.795841764367715143e+00
9.980688666860356717e-01,-4.177740010197945886e-03,-9.796319628783267675e+00
9.991382575668278365e-01,-3.301006717171079026e-03,-9.792898426507306908e+00
9.966456730942175879e-01,-6.086116405759337510e-03,-9.789366479802790622e+00
9.971894079245453568e-01,-4.822776596299904392e-03,-9.785513308112166797e+00
9.984430034713458468e-01,-3.558441105156317542e-03,-9.793081316001725156e+00
1.002734952292460457e+00,1.399229775321346111e-02,-9.796274099946971958e+00
9.912026463117947772e-01,-5.798188598046674809e-03,-9.795809437098931483e+00
9.929386823024007880e-01,-2.067756672452489600e-04,-9.793092544360217033e+00
9.952653244733649096e-01,2.650170273317238069e-03,-9.794223878799057204e+00
1.008781036183256319e+00,-4.559567365555372044e-03,-9.801600331453911963e+00
1.000913096577649597e+00,2.420479066661207056e-03,-9.797306019171072577e+00
1.004777717944816073e+00,1.928042878610289595e-03,-9.797015999194664815e+00
1.008135989165245050e+00,5.929034138525622957e-03,-9.795854902416646581e+00
9.958591339157378819e-01,-4.742812404944004982e-04,-9.800571909123901193e+00
9.965561952205153062e-01,2.785083006650318146e-03,-9.795782331112540930e+00
9.950556891175598162e-01,-1.789941571856245922e-03,-9.790678421331623582e+00
9.933214282228884917e-01,3.201517967142200171e-03,-9.793035781165363218e+00
1.005771430785320497e+00,-3.142171230761681925e-03,-9.806037811024106432e+00
1.003422218062436810e+00,4.078144385866030661e-03,-9.794153909915715772e+00
1.005363205403485782e+00,-7.929863735752714499e-03,-9.797342354624303695e+00
9.966832470990383275e-01,-8.056057654898588199e-04,-9.791973044817915195e+00
1.000904807150928333e+00,-1.566739441314634078e-03,-9.801115673990556942e+00
1.001868582603555158e+00,-9.853463380079008002e-03,-9.796265191463101374e+00
9.915525697190941123e-01,1.365274715865702308e-03,-9.793420019393289877e+00
9.911513209209896758e-01,5.655616447015045234e-03,-9.798198527863007712e+00
1.007931748373686043e+00,7.049636654866570660e-04,-9.787857364359210166e+00
9.878889345398765842e-01,5.235097162187805908e-03,-9.793039711363309863e+00
1.001112160930000883e+00,-5.242135425199205456e-06,-9.788685765805572814e+00
1.004119125712838345e+00,2.094144219663417216e-04,-9.798351728208359646e+00
9.903875342684708150e-01,-4.615093038985686874e-03,-9.791276184607459854e+00
9.992164575962264594e-01,-2.486002233577235421e-03,-9.788652909960502413e+00
1.001317787848953866e+00,-3.444003184787140185e-03,-9.789539280732583393e+00
1.011605857854344315e+00,-1.361706916124323825e-03,-9.792227215606585489e+00
9.994593479868193464e-01,6.878741544923861959e-03,-9.783113711891283870e+00
1.000054596510525862e+00,-1.067765715254834994e-03,-9.795521568262850920e+00
9.962458888142545765e-01,3.499069494357923572e-03,-9.795773599241535123e+00
9.951268412882628978e-01,4.421117368022482513e-05,-9.792865420525236786e+00
1.006428552350918881e+00,-1.943594306708988813e-03,-9.797388279297344127e+00
1.004826776176296121e+00,2.371987074564853304e-03,-9.791133589881095389e+00
1.006933276276633427e+00,-5.303780077912951391e-03,-9.796799870718800207e+00
1.001615950453053072e+00,-5.011282177168548645e-03,-9.797378606736678819e+00
9.932425429343131329e-01,1.872841418114347487e-03,-9.795383534944875237e+00
9.979890929328485427e-01,-2.207925444527453381e-03,-9.797838856635038951e+00
1.003040306127892967e+00,-8.224196589299815133e-03,-9.788039582913086178e+00
1.009815833971571930e+00,-6.427978484372490024e-03,-9.788737385050248818e+00
1.003672864455904534e+00,3.035496179343615420e-03,-9.794752696650062873e+00
1.003560424477673907e+00,5.517544810811366059e-03,-9.791747927605912949e+00
1.001325514690227125e+00,-7.806891168379493555e-04,-9.803121467535090616e+00
1.010419666088395507e+00,2.440491524123770788e-03,-9.786360618162916580e+00
9.982188842875019397e-01,8.663992488120565803e-04,-9.796182664870448420e+00
1.000210506267563693e+00,5.585142663144685403e-03,-9.799642626295396397e+00
1.003014718317405185e+00,7.990472976859097718e-04,-9.798659308389293443e+00
1.000972974737668331e+00,5.692625813463971299e-03,-9.793643431129325450e+00
9.971379652121127313e-01,2.504567892859565440e-03,-9.793154405670186691e+00
9.948076301848521874e-01,2.397629411602984848e-03,-9.795786469274219144e+00
1.002712508857682261e+00,7.084748549117361044e-03,-9.791408922110806046e+00
9.984198745656738261e-01,-1.233200213431544928e-02,-9.793917251667766166e+00
1.007568717544857995e+00,-2.187100850314888361e-03,-9.803023771977997569e+00
9.984939531377489130e-01,-4.129556941575952128e-03,-9.788398791504530294e+00
9.965054195413738380e-01,-3.486197919767805662e-03,-9.792136969482289288e+00
1.000697442679242322e+00,1.759365387405507344e-03,-9.795598560477904115e+00
1.005316407675867607e+00,-9.275346920656197397e-03,-9.800405411354796925e+00
9.968508586603598287e-01,-1.214345171811684158e-03,-9.805162239571798111e+00
9.977341696150096029e-01,5.951608118820788870e-04,-9.804370460523216479e+00
1.003823210735212301e+00,-4.910185501073797976e-03,-9.799306542332526959e+00
1.001196483785564695e+00,5.332940826965409768e-03,-9.796537811594479450e+00
1.004518610076687635e+00,7.057755873978986162e-04,-9.792074704938114493e+00
1.001762518503624300e+00,9.387071670178208371e-03,-9.799098756519473596e+00
9.944682939211653139e-01,-2.826937554311716172e-03,-9.797132664216444908e+00
1.007015835718505059e+00,4.030181084961228892e-03,-9.793771536253400356e+00
1.001450285262279527e+00,-1.982166053260717067e-03,-9.793702982649236333e+00
9.964720935666093737e-01,2.485528261332813765e-03,-9.799980064061495355e+00
1.000069858293682223e+00,5.972913334520904734e-03,-9.797469922815016830e+00
1.004011118584762663e+00,3.530450409338247407e-03,-9.787962218659188807e+00
9.995860345879949982e-01,-4.044030572675335646e-03,-9.794938501337824732e+00
1.006745975271384097e+00,-4.049710675056902506e-03,-9.791233094355790811e+00
9.930787858302017046e-01,-5.474572776692559692e-03,-9.795586874536271083e+00
9.995571713762819721e-01,4.854610881600324081e-04,-9.798005594979599664e+00
9.936820553692957692e-01,-5.662385787539045943e-03,-9.792532182653992834e+00
1.005903559462180352e+00,9.774922290431682301e-03,-9.786764500223036123e+00
9.994673871401581478e-01,-5.038629903365139835e-03,-9.782368690095237795e+00
1.004904792532963054e+00,-1.128204144944869097e-03,-9.793215711707707882e+00
1.002154105342624613e+00,2.237329316228361346e-03,-9.798462131862308411e+00
9.981405560935135979e-01,-2.834646434049469671e-03,-9.802582781955734959e+00
1.001183657997132492e+00,-7.593465869671722854e-05,-9.793732291928515465e+00
9.946595550143066955e-01,-2.430390764679751965e-03,-9.791594937813512090e+00
1.001378987817162169e+00,2.936558455155501100e-03,-9.798873820173712446e+00
9.985541080832146532e-01,-6.481880768979689580e-05,-9.794294628658636981e+00
1.005924873845948087e+00,1.557474060527572635e-03,-9.791745161566790756e+00
1.011128415510272216e+00,3.669507503002290231e-03,-9.795265423377331970e+00
1.000696606245144560e+00,-4.478088340433077422e-03,-9.794387438675082436e+00
9.975174336694937471e-01,-3.392066405749859497e-03,-9.800417939136345069e+00
9.964242805710415984e-01,-3.216614826420436443e-03,-9.789009671589562700e+00
1.002608006060439871e+00,-4.968695938891507478e-03,-9.792718939688665358e+00
1.000647988570639635e+00,-8.711589374251865444e-04,-9.795508583033868177e+00
9.992787522995129068e-01,2.684964256100296539e-03,-9.784532004147845186e+00
9.948458602448354560e-01,-5.777657481671676781e-03,-9.803131103918579115e+00
9.949336592804082224e-01,1.150185699855756864e-03,-9.783546290776811816e+00
1.004875608517172170e+00,8.243723855074540363e-03,-9.795662579698694472e+00
1.003634101643334109e+00,-5.510408292130898578e-05,-9.792834847341879367e+00
9.964096565088607083e-01,-1.415164999807767398e-03,-9.793336967910969193e+00
9.997255458123079919e-01,-2.761888421244979540e-03,-9.796724837513037798e+00
9.992114705201652347e-01,-3.799403045203346516e-03,-9.782928390407910513e+00
9.949950941552050399e-01,8.614953256532213721e-03,-9.795387194407796372e+00
1.002222892894617301e+00,-3.109581169695120953e-03,-9.796133589345059178e+00
9.994694021058967426e-01,1.601732167581067321e-03,-9.801328845821377200e+00
1.000840936509316936e+00,-2.351278678311264844e-03,-9.787721807611287517e+00
1.002450435518945637e+00,-2.735390828579605622e-04,-9.792981661881412947e+00
9.975248910530856161e-01,8.375481399222676343e-03,-9.791855433351159377e+00
9.983418770440756207e-01,-1.854265308326672477e-03,-9.792964552871760375e+00
1.006584625109760767e+00,7.840723997897654229e-03,-9.796828142503441583e+00
1.001705372227859048e+00,-1.974628597571952398e-03,-9.794049790032326896e+00
1.000223948170938737e+00,-8.550922966572152908e-03,-9.791008716657355393e+00
1.000786591148044691e+00,-1.462963522126355890e-03,-9.797520734239041573e+00
1.004435849380068690e+00,7.450873060039753769e-04,-9.796711311046417237e+00
9.996586941415395167e-01,5.019208805085478148e-03,-9.801623631189045227e+00
1.003167708186530449e+00,1.229826712832214966e-03,-9.783261336877929537e+00
9.991727431050980712e-01,-3.082170396477862655e-03,-9.794215107971082190e+00
9.963159676899603356e-01,4.797022741311441989e-04,-9.786331722188098325e+00
9.963154890161152188e-01,1.911671829077414998e-03,-9.790577774267346101e+00
9.964778570649103218e-01,2.176583423615084147e-03,-9.793902967335645471e+00
1.004151466008818439e+00,4.962241478707867665e-03,-9.791175670457818114e+00
9.941255592223698923e-01,2.224959100017677611e-03,-9.796203799507891219e+00
9.964077590355197023e-01,-2.494099068852222021e-05,-9.797856357801677518e+00
9.993609768973368279e-01,-2.021034315642191315e-03,-9.790008046817854748e+00
1.000712511349517664e+00,2.284885834845849090e-03,-9.796002048379284233e+00
1.004354110773196584e+00,-8.204463554820821611e-03,-9.801911440120747443e+00
9.987203918461843299e-01,5.234430963626128530e-03,-9.802172864089934379e+00
9.988063365637877000e-01,-5.719099086127869651e-03,-9.798464522812091460e+00
9.990599599405842746e-01,-1.352889538054910003e-02,-9.789507552691972592e+00
1.007450537933777035e+00,5.315866285997662873e-03,-9.794327228227858839e+00
9.984420231311115224e-01,-2.180622373922136859e-03,-9.788805287422142953e+00
1.002859717106035387e+00,2.415825010010428601e-03,-9.792135890133511822e+00
1.002226549298879776e+00,-2.844964440992342643e-03,-9.795670858522894875e+00
9.999437926853488312e-01,-5.341972692364795224e-03,-9.797447913627397753e+00
9.999345900325926628e-01,-2.100556124033153924e-03,-9.803168404037746697e+00
9.972239803082263432e-01,6.571551140309588078e-04,-9.792396799246878558e+00
9.924292407960167983e-01,-4.900618393988424165e-03,-9.788560751303974072e+00
1.000044717874686295e+00,6.084877309010320624e-03,-9.797136045840128205e+00
1.006387302514869742e+00,5.154425317464315925e-03,-9.795428753320679860e+00
1.004031304254381363e+00,5.533328199931436108e-04,-9.794027046639255829e+00
9.956185653234979060e-01,-6.234080597999369991e-03,-9.792397699089178786e+00
1.006166704157061442e+00,4.378891918842137999e-03,-9.805195407837587140e+00
1.003001109834730897e+00,-6.307190219572330865e-04,-9.797329593851840102e+00
1.005739008883862029e+00,-3.072270696100224980e-03,-9.794028472400043484e+00
9.967151759157459878e-01,-3.096186047852402933e-03,-9.801760068097239653e+00
9.946359236140158711e-01,6.349568177658550944e-03,-9.799449842558390245e+00
9.979096808350417236e-01,7.260174363281904006e-03,-9.797303885515766808e+00
1.002491287226932926e+00,-3.429419204515375512e-03,-9.800653674241086577e+00
9.961663468332175864e-01,6.008975336811230548e-03,-9.803237244959104757e+00
1.002208630065220207e+00,-3.922960250258878366e-03,-9.804217649950501823e+00
9.945658233704490758e-01,-5.161215141369941174e-03,-9.795608103786349830e+00
1.001464562856208440e+00,6.373184171704200825e-03,-9.790231484902747638e+00
1.006026383302830673e+00,3.405978531925276439e-03,-9.798947481897704037e+00
1.004624255742597505e+00,-3.782166552789518587e-03,-9.792006531412416948e+00
9.997911359966783484e-01,-4.838235568181530879e-04,-9.800579508844268872e+00
1.004235847473657239e+00,5.580286686694828878e-03,-9.795731203526552022e+00
1.008865569455100308e+00,-2.433612836814205477e-04,-9.801305558659242578e+00
9.913238433364807145e-01,2.597944206761958500e-04,-9.798986029482263049e+00
1.005168770892643781e+00,-1.178453243113579494e-03,-9.793635650579087581e+00
9.996466502575976909e-01,6.788521198825767967e-03,-9.795192703929208378e+00
1.002475991937579858e+00,8.098486019613179362e-03,-9.792495531385011276e+00
9.941063107066455684e-01,1.130802642488190667e-03,-9.796996641222504465e+00
9.992276567253901565e-01,6.405044091244180976e-03,-9.789516609640452671e+00
9.948897765957236405e-01,-4.771451957835791055e-03,-9.794171034447387569e+00
9.919909570211982164e-01,3.271501831555470325e-03,-9.791705172622553022e+00
1.000294367756436209e+00,2.630991971905587319e-04,-9.791508023609106104e+00
1.001782830135709457e+00,-1.609233405094884347e-03,-9.797863738121968424e+00
1.003142783491423495e+00,8.464904256980827768e-04,-9.796374303629900027e+00
9.966495953292177079e-01,-2.870487558920597863e-03,-9.790145213720560236e+00
1.008813752126965557e+00,4.866982949413621237e-03,-9.800608279416577417e+00
1.001977221397348794e+00,-5.054233753710568990e-04,-9.793345845965049534e+00
1.003432710717169885e+00,-6.193079568845444478e-03,-9.790939770083639360e+00
1.002861560774595207e+00,-1.864060213900347587e-03,-9.791431445565342173e+00
9.972706078613082781e-01,-8.368950020428026024e-04,-9.800272049421263176e+00
1.005257795873638393e+00,-5.647763179590042579e-03,-9.795052557069929833e+00
1.001327134846344391e+00,-5.602044577064344043e-04,-9.794273071312115775e+00
9.981941560660012591e-01,-6.385964403275584417e-04,-9.801021689892245092e+00
9.949606642010025981e-01,-1.234522486063574856e-02,-9.783511721994992527e+00
9.981733853164543868e-01,-9.559090812005411816e-03,-9.794431988125596789e+00
9.975779662637672685e-01,3.485195597456860854e-03,-9.796521600245425176e+00
9.960792667521652932e-01,1.518309001217303623e-03,-9.789529928207562293e+00
1.010139139341093673e+00,8.431159751135227720e-04,-9.793816069506414479e+00
9.997630741023255663e-01,-5.328092160124175622e-03,-9.795756854114735290e+00
1.001183565922693086e+00,4.466118251289444806e-03,-9.794164093279281502e+00
9.942431654235389660e-01,-2.514571602415264541e-03,-9.794919569079727495e+00
9.973790234979573732e-01,3.825237608992383426e-03,-9.788550001190118977e+00
9.961811108640552526e-01,4.473903143397087168e-03,-9.791812131661615126e+00
1.008825728113986298e+00,-7.318586234733518402e-03,-9.802983341178306276e+00
9.951689659681742794e-01,-1.159561806456859377e-02,-9.797375418047472806e+00
1.006092650561294599e+00,1.076939104300331240e-02,-9.796339192222918157e+00
9.991124662700842096e-01,-6.383845916989869425e-03,-9.790438812571595761e+00
1.002651551448336287e+00,-4.556656479603382257e-03,-9.790946875870384147e+00
9.992943356925189091e-01,2.000736873202753948e-03,-9.796374958668868871e+00
1.006812497784745908e+00,-2.167621455332497673e-05,-9.799522689030071732e+00
9.948956417136940455e-01,1.832367425355070720e-03,-9.797089595750508195e+00
1.008282617396683900e+00,-2.141707999796657862e-03,-9.793916685292893831e+00
1.000513173233963826e+00,-1.387191027562350914e-03,-9.799964541183266320e+00
9.996850143658456700e-01,-1.451332494282608172e-03,-9.797529902309129568e+00
9.979641137721658728e-01,-2.838727786908793859e-03,-9.793342369730501318e+00
9.940595663782455516e-01,1.001504038353681625e-03,-9.792970954993688082e+00
1.005023302589824308e+00,-8.004782481202036767e-03,-9.788548171642615259e+00
1.003797805104845509e+00,-5.397090231441949160e-03,-9.799324702566492462e+00
9.950829857224738895e-01,-5.131210929636073614e-03,-9.792194757871477861e+00
9.990507574245667266e-01,-8.889969921526004112e-03,-9.795282664551246299e+00
1.002196223040744405e+00,6.562146792120661636e-04,-9.793307465877171936e+00
9.925653221645657220e-01,-7.535931263821766569e-03,-9.801238178511523458e+00
1.002752987915290106e+00,3.534869132523990858e-03,-9.785191019796554812e+00
1.001377443396809452e+00,-6.316132679607210261e-03,-9.802467321249276111e+00
1.000801529444116600e+00,-1.026902601224384407e-03,-9.797097688765006751e+00
1.005949537373392211e+00,7.988825220317043868e-03,-9.801489483619841181e+00
9.937668880954790840e-01,-9.370044455024272826e-05,-9.795040235233203774e+00
9.968812117222509706e-01,3.164426357575911720e-03,-9.791648430342172915e+00
9.918898147186320235e-01,3.503964634654444053e-03,-9.787251398133456348e+00
9.977800959820225524e-01,3.255190807294193987e-03,-9.798850201774419233e+00
9.940372139705788701e-01,-3.239435760442761747e-04,-9.796983123329567889e+00
9.953877108793383055e-01,7.977205613056094838e-03,-9.790919736284628527e+00
9.995446636763836157e-01,6.035916152282916856e-03,-9.790563857162004169e+00
1.002897369854968801e+00,-1.243631774892394641e-03,-9.791225449837543948e+00
9.993909149041670936e-01,6.574389620499961236e-03,-9.790222126846341411e+00
9.974838334878129986e-01,-7.276544229532357771e-03,-9.789808451855583016e+00
9.999383430403041562e-01,-4.155844321086885063e-03,-9.798005767562754542e+00
1.005347750828030406e+00,9.821430023546899590e-03,-9.795081897558262085e+00
1.003425161224684503e+00,3.271257396169583755e-03,-9.797614383079253031e+00
1.004471656587935247e+00,-3.985841348605857239e-03,-9.800365885573393498e+00
1.012138689904976907e+00,-2.063155200036673968e-03,-9.798628681705514154e+00
1.005251590250981986e+00,-3.873319168080868301e-03,-9.791328348185588837e+00
1.006462324416215637e+00,2.027322890448481790e-05,-9.796874202883499194e+00
9.978561342035972004e-01,3.388513385629393984e-03,-9.784429665159409595e+00
9.987265660921624821e-01,1.049990844027066418e-02,-9.796336910864084757e+00
1.003741901630598177e+00,5.086016810868270593e-03,-9.796607941316196388e+00
9.951786578184159682e-01,-3.415662867238738153e-03,-9.793070442405031883e+00
9.934816874578629164e-01,-7.196523450924869302e-03,-9.797174447216375981e+00
1.009314241082536201e+00,-8.695031867412413365e-03,-9.795585418140550615e+00
1.001045000986293010e+00,6.598907816865385439e-03,-9.788736801405566013e+00
1.000287877713328166e+00,1.159703497224864356e-02,-9.785456287581547841e+00
1.002416103724480978e+00,-5.173463730118070709e-03,-9.793260291691677111e+00
1.006324188143721932e+00,-3.785471618291251852e-03,-9.789973883178815228e+00
1.002727807002229188e+00,9.314652772765026970e-03,-9.798159040171029233e+00
9.990652617794413271e-01,-5.332002880136937906e-03,-9.784903852420672621e+00
1.004375816277670141e+00,-1.908790778684531404e-03,-9.795241490842203191e+00
9.973726326319082292e-01,-1.273749887626310362e-02,-9.801770120497726779e+00
9.944960590848099802e-01,-7.821328207020191575e-03,-9.794704471981901861e+00
9.977716632720952106e-01,7.953583277739284876e-03,-9.788769202257169511e+00
1.005122172235851874e+00,-3.858328781522498254e-04,-9.798290638177785894e+00
1.005806465561828622e+00,1.354009428602103446e-03,-9.793673688991205495e+00
9.961889021370003983e-01,4.483326664972859046e-03,-9.797179568375636194e+00
