gyro_x (deg/s),gyro_y (deg/s),gyro_z (deg/s)
-2.929024071394231363e-02,-2.352301041510019598e-03,-4.589947844714083874e-02
2.784775941082894349e-02,4.361111837226706173e-02,1.936615078822776469e-03
4.337444547509866632e-02,-2.188762855431895110e-02,2.745047402928165597e-02
-5.566015009443971845e-02,-2.399172954083499815e-02,1.625862861213693555e-02
-2.434703369581691854e-02,1.351902241217308419e-02,-3.234936531926555208e-03
6.183117169640339056e-02,-3.286879065518218818e-02,3.823887321775428644e-02
-4.478229717816509942e-02,-1.000793535112455002e-01,4.384399535205039944e-02
3.027841674014737292e-02,-6.014771774628722631e-03,-3.258827130309597392e-02
-4.384711404556106265e-05,9.437237329098225463e-03,1.879968775492170049e-02
6.035285361022647149e-02,-2.214033597321785757e-02,-6.076529953230855145e-03
6.484392038438241412e-02,4.145493182132728438e-02,2.589554742674407550e-02
-2.574821324668476880e-02,-1.356594491642833591e-02,-2.408697004284484494e-02
-1.237718041049607138e-03,3.164179211770113548e-02,-3.753474953412054560e-02
-2.665781065565991925e-02,-7.360508830737659547e-02,-3.567123534069596702e-02
5.032675297688957161e-02,-3.213528195602644716e-02,-1.649189484267470779e-02
-6.620851757012756814e-03,2.593797874496829928e-02,2.371191459491256773e-02
-1.288564949482776632e-02,7.357689347715989925e-02,1.284834170373363657e-02
-9.744388519441117558e-02,1.673333860394680267e-02,-1.822130619852145236e-02
-4.519487155757304780e-02,-3.856961760462235614e-03,-5.480152631056583318e-02
-2.653983920250271508e-02,-4.828448229180163503e-02,-8.551504542993966507e-02
-7.329904811215141869e-02,-4.008218728603449299e-02,-2.495551212346869968e-02
-2.330004429164391280e-02,4.124130172134901975e-03,-3.292770264998431170e-03
-2.465246237226964999e-03,-5.152528963557598957e-02,8.182097885505498075e-03
-1.274347729769475801e-01,4.334511441786719627e-02,-3.214189866398387690e-02
-8.685366541082452374e-02,1.246504596206533637e-02,-2.611399487050470453e-02
-4.535904121362831221e-02,5.261257130431493123e-02,2.240098896200035800e-02
-8.027596056008019787e-02,1.923659909108141330e-02,-1.565147320206116896e-02
-7.494387983055127156e-02,3.083651319377426689e-02,5.544823145509569610e-03
5.185418754084349102e-02,-8.537425133594934989e-02,-1.157136701075990246e-03
3.078628549699326256e-02,-2.031342138166043407e-02,-2.603160814235603096e-02
5.064712973768672327e-02,-2.931699006352913792e-02,1.311806119986967493e-02
1.429588619016912421e-02,3.327199113574659528e-02,4.182726784648194140e-02
-2.876917040860032734e-02,1.069799508868735094e-01,-5.813053103879584071e-02
-9.564607236858113648e-02,-1.051196365668020244e-02,4.467011543396302159e-02
4.109744785721770183e-02,-8.222694817150790619e-03,5.505062023245870656e-02
3.331246472158003180e-02,-5.360609974630350938e-02,-3.578994377243852748e-02
-3.347555859234487268e-03,-9.471772361600858461e-03,7.898753751799965361e-02
6.681880652127235309e-02,1.761833214784104887e-02,3.886109937844394163e-03
-9.572729918352874956e-03,4.164106085232754245e-02,3.521708750454833822e-03
-8.723294696917935354e-02,3.189001501411282968e-02,-5.526281413984292235e-02
-3.503245021592928804e-02,-1.810417151330936600e-02,9.155582169960494246e-03
-1.497663648606277487e-02,-5.343717264234666003e-02,-4.557511659171283730e-02
3.713570367744156719e-02,3.821990309291600774e-02,-1.113844488636705002e-02
6.427833933590273996e-02,4.129037297667809137e-03,-1.562887474786258269e-03
-1.092300687407695287e-01,1.834608300934231686e-03,-2.429444221041135790e-02
1.836376222583025256e-02,2.043168425436468066e-02,-3.774775121250725242e-04
-7.509707502662422117e-03,2.969609467380270387e-02,9.146196340578392411e-03
5.682953094710217236e-03,-2.076567125802054881e-02,3.611777534319454697e-02
9.833915790531076728e-02,-1.824153594852178858e-02,4.438363294103847036e-03
-5.898817572427416528e-02,9.026649877094816352e-03,-5.644597553874351747e-02
-8.587127262522382259e-03,-6.276643878707005575e-02,-2.793985763312632417e-02
-1.410447351610000406e-02,-2.551826041760561770e-02,-1.833150485345452080e-02
-4.783392582064761173e-02,-1.278836268551591937e-02,-4.226818148488416249e-02
-5.666775892691117839e-02,4.322986474871832845e-03,9.044407207325508291e-03
2.432287708961232767e-02,-7.611851927510356053e-03,-6.425044983924851905e-02
7.717585316309782950e-02,2.748118901974057338e-02,-9.659441662019246921e-02
2.538982835353275833e-02,7.836754607697532515e-03,3.495439659729464299e-02
-3.824466151242884165e-02,3.723224593720612235e-02,2.042821901625138659e-02
1.833285135890974984e-02,3.764350906803084346e-02,-2.919427561813225241e-02
5.963562595333676136e-02,3.962525747779403751e-02,4.236063315775259741e-02
5.824523026297307934e-03,3.136837880882628604e-02,2.530706739510830278e-02
-4.018247806241626724e-02,-8.307701382259763401e-02,3.140413711063402835e-02
-4.370136584273766334e-02,-3.921217560672414504e-02,-5.804719263375618388e-02
5.040981712849842977e-02,4.677219423213853366e-02,6.033539200358751381e-02
-5.126744529429275513e-03,-1.620773056094181389e-02,-5.033088839649818569e-02
-4.530448182535075363e-02,2.850443891435712473e-02,3.203797793300645902e-02
4.907970667867253556e-02,1.680837160023446186e-02,-3.057822757135038663e-02
-3.675266251411792029e-02,4.333394487364137723e-03,2.567054043377393555e-02
1.138247585186641549e-02,-7.264136717328439907e-02,1.110906722631358444e-02
-3.741323217914328814e-02,9.850584906861709761e-03,5.631946799253276237e-02
-4.762143581253260732e-02,1.550086886964079438e-02,-2.941994990047031716e-02
1.744622795547400018e-02,-3.123089444212768379e-02,-4.473517046266376786e-03
-2.391399424795759288e-02,-5.567800982550244644e-03,1.231048770301147212e-02
1.612868310909663233e-02,4.411445004080451204e-03,-3.148469016969567685e-02
-3.036870345199996560e-02,6.895633617075451471e-03,-7.482878763311863468e-03
5.236369354414204674e-02,1.595928325077272669e-02,-1.627268984477149225e-02
-5.695481829555116941e-03,6.170898891361031868e-02,2.472120334036606235e-02
-4.723025332518573927e-02,-4.699264828106114802e-03,3.205734555725032412e-03
-2.670728678930450045e-02,7.107771921211469834e-02,2.152785482892496938e-02
4.242452391626875402e-02,1.018212137137653774e-02,1.619727969497616882e-02
5.500024313637693479e-02,-2.476820154462201079e-03,1.619049489578828008e-02
-1.478905186017239609e-02,-1.575883423163484650e-03,-3.728730699358663581e-02
-4.368344563029519408e-03,4.135009450559758853e-02,6.590270887893527607e-02
-4.717081347006342462e-02,-2.483917678530554035e-02,-1.415962698531122478e-02
4.871000744370881930e-02,2.525716319122998932e-02,-6.213528915689177368e-02
1.226846508860693005e-02,-2.071743358460676615e-02,-2.793227531892454249e-02
5.139519670317924116e-02,-5.758234854547381043e-02,-3.486472693548076096e-02
-3.613170951560503753e-03,2.374827123973546547e-02,1.591863831469192761e-02
-7.784560429302365969e-02,5.846367178099546279e-03,-1.032070128949638677e-03
1.908655523732794013e-02,-2.178755106327266711e-02,-1.100835053947746105e-02
3.710063151617727650e-02,-3.814247686611133286e-04,-6.022548100141944527e-02
6.639485303019060369e-02,-2.249832232686189981e-02,-2.401994382042751952e-02
-3.648493513973195129e-02,4.190716562735388381e-03,5.382648706224937851e-02
-3.839283791808950630e-02,-1.822277610383473898e-02,-1.193757201293381594e-02
2.085141703628431292e-02,1.004451856653733668e-02,6.847613052428981606e-02
2.383278099986684093e-04,-8.637985512478917050e-02,-2.353829595657567098e-03
4.979298133846387503e-02,-2.660449633286880722e-02,4.338374187372494306e-02
-5.592522881471156428e-03,4.538693658677084991e-02,-7.744921596937949515e-02
1.062591510236076189e-02,3.960000965408136224e-03,-8.141952294843239277e-03
3.651509705903647346e-02,3.972076045943000872e-02,-1.048717866082667094e-01
-2.927661138244660750e-03,2.526786812051181816e-02,7.378234703773880326e-03
-1.982503175757253586e-02,-3.074634834440130929e-02,1.123946691889040998e-02
2.652415702383923574e-02,-3.064357576156671870e-02,5.837527642168232472e-02
1.568761033210230513e-02,-5.016926661289636269e-02,-1.111618107734182841e-02
-4.823668632174964860e-02,-2.479923638775344968e-02,1.791259202061613529e-02
-7.590601781066671182e-03,-1.543586206176790487e-02,2.195255041804747287e-02
-1.011822804791691344e-01,6.109919978565742441e-03,3.607143456987663144e-02
-4.583608318256151420e-02,-4.028779557063063427e-02,4.084947377801119439e-02
-4.341128330069802393e-02,-4.681440428832378542e-02,1.081840158044442349e-02
6.371802715199054038e-04,7.944823399129559427e-03,6.760472297922356282e-04
-8.116493073585714577e-03,-1.218281877061128289e-02,-2.597230500564384065e-03
-5.690299713733112941e-02,-6.784283345044407609e-02,-4.701756192643228444e-02
-4.198462146798220829e-02,3.237135976870535170e-02,1.211377641585312422e-02
2.268595959995185068e-02,2.378464995078490365e-02,-3.906374349728295586e-02
-5.229354416469039236e-03,1.755927561595008873e-02,3.884398855745067186e-02
-1.214765085729783110e-02,-6.519730368453678648e-02,1.861367808134675381e-02
6.502448405807019494e-02,3.334469994495523060e-02,-3.637018083755841564e-04
-1.896542305890806454e-02,7.013682952604667620e-02,-1.087375225156512505e-02
-4.317019055304667507e-02,9.367609007122865497e-03,8.075004716961947659e-02
-7.118537675326093092e-03,-5.800354778160881491e-02,7.748325212745443835e-02
5.582728668317938660e-03,-5.563554189748751502e-03,3.595797998731676409e-02
-3.688101802285537884e-02,5.691743649283390050e-02,-6.433745185739216110e-02
-3.454807920029579621e-02,2.141520526373310012e-03,2.502285291272948395e-02
-1.991831221881142089e-02,4.492090540768287066e-02,1.378083229126714129e-03
6.904665782536424656e-02,3.326899935149154469e-02,-7.164952172565078325e-02
-1.017935894542525144e-01,9.813054935764341236e-02,5.532471954070665096e-03
3.198508854854184569e-02,-2.274277329242840352e-03,-7.433239859399573546e-03
9.741389123802460248e-02,-2.610836875844441130e-02,-4.078193285844571025e-02
1.430857944996832831e-02,-6.857874395788776667e-02,2.091565012635178758e-02
-2.408267568896523686e-02,-6.705027426327277856e-03,4.866217034177947737e-02
7.868695570526577920e-02,-8.530691990521081791e-03,2.404636677153814718e-04
1.841599684927859235e-02,-5.609362927925617970e-02,-6.929608338438454640e-02
-6.613076818395846601e-03,-3.028726432749724931e-02,-8.495348486982304270e-02
-3.654821046296972270e-02,4.601091250469666744e-02,9.539559829215958631e-02
-3.469973543824414475e-02,5.459323359728191633e-02,8.484368364336797655e-03
-2.797443673613289432e-03,-3.781588263460918670e-02,-2.569224671098989735e-02
3.841012999841073722e-02,2.879766302916676041e-02,3.274494292282777858e-02
-1.539040466394966250e-03,1.298357791484720629e-02,-5.307052727451277291e-02
9.186645756213784148e-05,2.517320501875562264e-02,5.752863486494008693e-02
-7.880333340078026286e-03,8.321843495805987187e-03,5.736407881574206308e-02
2.182060871638119570e-02,-2.364824855277771962e-02,1.482224643011473796e-02
4.529970199256479896e-02,-7.356536643997331482e-03,6.155400612997988935e-02
-2.215206477795565385e-02,1.468658818755457993e-02,-2.240140474051433711e-02
-4.895428971340755504e-03,-5.997828956098923137e-02,3.081123480119207433e-02
4.936041175966467826e-02,-7.280337863498989766e-03,3.679653013729119321e-02
3.875568916525540947e-02,-1.568145680109729601e-02,-1.902507455964580485e-02
-3.987378247259513314e-02,6.727264778724998708e-03,-3.783491121782192601e-02
1.168933824627228085e-02,-4.474265954223737018e-02,6.477274521214292091e-02
1.514203586642350573e-02,7.458007846591763190e-02,7.161001423638753416e-02
5.601207544930566357e-03,3.393960778508204462e-02,-4.346871967998710423e-02
-5.331882591003534594e-02,-6.903742214603693361e-02,3.971752769508864883e-02
6.789786995128245517e-02,-6.627418933849411886e-02,7.992861177568597042e-02
-4.248107436287624182e-03,-1.656288233417854000e-02,-2.808451253386699126e-02
3.423808619470015274e-02,-2.441235573623809149e-02,5.656594951070059024e-02
5.770119722005943863e-02,-5.238009650272894974e-02,2.967297442208470873e-02
-1.433870266855217547e-02,1.911743829619956883e-02,-1.955127333518266036e-02
2.426674752053770839e-02,-6.125501909533183353e-02,-2.977738030111367826e-02
-6.425068588863395991e-02,-5.765943423611622626e-02,2.584941627512813908e-02
4.508095910901822011e-03,3.341371624766197729e-02,-2.623647475302638352e-02
-1.124048343918362426e-02,-7.659619081189061873e-02,-4.947682469989062720e-02
1.789510646317559600e-02,-3.931395938977968324e-02,-2.783232037998081138e-02
2.088161445310648956e-02,4.469462553777192593e-02,2.494304453683110490e-02
4.377472326508909627e-03,8.837624934426847878e-02,-9.280568582639202313e-02
1.432469902824745796e-02,1.117934051459258150e-02,1.834911663484898453e-02
2.246329329014562590e-03,1.333423677439100029e-02,3.057951923402309896e-02
1.497194311376660349e-02,2.054583555429097957e-02,-7.767853615066830364e-02
-2.422041461234363327e-02,2.360045944642059565e-02,1.553636858811561746e-03
-4.036639718039519015e-02,-3.195430269843765186e-02,-3.581802570958784321e-02
-2.607017007429584068e-04,1.750081356344800054e-02,-3.236264813872185425e-02
5.967069708142303669e-02,1.499105207186869453e-02,-4.038436331414901187e-02
-5.003308947317626487e-02,6.175512412952489233e-02,-7.249964800152500222e-02
7.730912629501997257e-02,-6.386421996764687914e-02,-5.743938468264865593e-02
-2.317605508979020748e-03,1.554056984998533099e-02,4.598498602256867462e-02
-3.794830954963943070e-02,-6.377434193220223035e-02,9.239785647511841726e-02
1.774832402464980932e-02,-3.307993120069940840e-02,7.987562284611450514e-02
-1.042051028519665884e-01,-6.707236276704404932e-04,-2.230164304666353015e-02
3.905916177814090784e-02,2.761951862189589157e-02,-4.106858601016852295e-02
8.477407479727252018e-03,-5.411172154552608415e-02,4.864190239552489137e-02
-2.244125548235526013e-02,9.755993712462038281e-03,6.088601986139801497e-02
-3.809320241472426843e-02,-3.309489039836991525e-02,4.950709911235159563e-03
6.188948260854737482e-02,-2.724840748155472978e-03,-6.121524730746090957e-03
5.315228781888260701e-03,-4.931505101735297360e-03,1.103295997383067772e-02
-3.672543266694885955e-02,5.526263501501818554e-02,3.498897566430843320e-02
-6.970662391630798316e-02,-2.176883490443116617e-02,1.493841532672498737e-02
3.211278253302483204e-02,3.444317626950596598e-03,1.385228319659964451e-02
6.485419188950153346e-03,2.785035738279091622e-02,-3.742173988196250550e-02
4.324393762387398338e-02,-1.924911721737674036e-03,6.629686116741982486e-03
8.826378480093216572e-02,2.893606924781768480e-02,-2.241351606562883014e-02
4.527405010156487775e-02,-5.837686528709861399e-03,-3.889090106052163487e-02
-4.744004007533327710e-02,-3.359916268463984668e-02,4.424743487914993556e-02
-2.993927090593267656e-03,6.005872551498438183e-02,-2.451214476514940524e-02
4.043309989263635384e-02,1.948535600248845964e-02,-1.506622113519341666e-02
-9.671070151978564122e-02,-9.392085801760598554e-03,2.550892106518238070e-02
8.686743835336241393e-02,-7.403625669066589941e-03,-1.631905821393869055e-02
2.544070284820009950e-02,4.392122286716236557e-02,-7.434824221116512200e-02
-7.093098223336156971e-02,-4.189681106625631896e-02,8.203288354465773993e-03
-2.979954004156731839e-02,4.122200029905677410e-02,3.252818312396860145e-02
-3.024407509297254160e-02,1.210457353674990362e-02,-1.341474689876359996e-02
-7.102710551878194112e-03,3.751115733514465839e-02,3.592839883323865890e-02
5.328216930840162964e-03,5.535997772319447424e-02,4.638603825030217231e-02
5.956833022783813297e-02,-3.147346420724731614e-02,-3.358952560806077736e-02
-2.456280332064651739e-02,-6.072011186065769811e-02,3.136173830959868708e-02
-7.114921263007571717e-02,-1.777351439409321902e-04,5.408004013559090939e-02
4.140931316183898980e-02,3.065939668919550817e-02,-1.016989243494824911e-02
-1.466220158007390702e-02,3.263139039034687779e-03,4.024243217404586265e-02
4.011300302418435715e-02,-1.316672987261737621e-02,8.440122054193707757e-02
-2.462383602343084024e-02,-1.420300103782407182e-02,-1.195639748284403441e-02
1.860862778996275405e-02,-6.902301616659964334e-02,-2.268451779303126345e-02
2.038798784285417859e-02,-1.024563920530060547e-02,2.951849342757595016e-02
8.068689046604154980e-03,5.375597697363369842e-02,-1.266795476987371723e-02
-3.593271236100318428e-02,1.078123490008748783e-02,-3.335502678487959477e-02
4.597800546288455248e-02,5.461064315502258543e-02,4.030573395635096701e-02
4.257598045297220427e-03,6.645487736176425297e-02,-2.646332567274163605e-02
-1.571850379118090030e-02,-1.998485529530542176e-03,-4.263385723785526049e-02
-9.671075978165572309e-03,5.858439678268812650e-02,-5.816114212574383276e-03
-1.018975212505496553e-01,1.236449090421851832e-02,3.858450298508679654e-02
7.312050473105527471e-02,5.026249451318309802e-02,-1.639670571863900694e-02
5.206254903200308037e-02,-5.521186064910467428e-02,-3.574619570456782913e-02
-1.134517162995846845e-02,4.031902864500394590e-02,-1.676645402525169491e-03
5.557362578330536651e-02,-4.449200064312833214e-02,-5.492611764816301284e-02
1.281386297810221606e-02,6.378906775639185851e-03,-3.493921754640344338e-04
3.923324725732672824e-02,2.291855223422599452e-02,9.348432567629652535e-04
3.172436084090316660e-02,-3.023392914948139915e-02,-2.065017234093502810e-02
1.192199072500865417e-02,2.117670960131018063e-02,4.585648529132373835e-02
4.991316665457040669e-02,-3.786156873171379542e-03,-4.268792728615526839e-03
-5.082346638549289919e-02,-2.692843660946608181e-02,-1.101456705176929868e-01
3.686759597196392207e-02,-7.648680743441371721e-02,-1.568176223180954912e-02
-1.297927414247506891e-02,3.540031967318132272e-02,3.849858276851805816e-02
7.125452313086252931e-02,-6.525207974886146085e-04,-4.512966715642797999e-02
6.619495671477867993e-02,6.895261382621756252e-02,2.107573734803805734e-02
-1.035692706184214856e-01,9.124959474644352142e-02,-6.176788183953454796e-03
-8.320001330964726591e-03,1.055135800928671576e-02,-3.856658659807108563e-02
-4.665207047182962780e-02,3.257421847279260568e-02,-7.210365547733789404e-02
1.391436171773637390e-02,4.729676180469782193e-02,2.588216778195145257e-02
-2.981402748293897689e-02,-4.578827729736014568e-02,-4.562000156479781299e-02
-7.722019218832201597e-03,1.938979538630533975e-02,2.507830794602560268e-02
8.329338172710630539e-02,-1.961207921291000314e-02,1.005825364471951699e-02
-5.754070308234900122e-02,1.447236096541158583e-02,1.920314837051437240e-02
-4.601011779142338831e-02,-5.333706503897866699e-03,1.287302649794127771e-02
-2.610657111011062750e-02,3.438652391413979381e-02,-3.720088767317853568e-02
-1.511907877653963575e-02,1.011586749850630768e-01,-3.553383238218336265e-02
-1.786853155818624028e-02,5.835124033793460258e-02,9.418724023928855271e-03
-6.398179354288388576e-02,1.345519702312784893e-02,9.077883257439976696e-05
2.149340887254690309e-03,3.236111730634331357e-02,-4.505241781615812457e-02
-6.208734183145082040e-03,1.654901797375433331e-02,2.096583245098763287e-02
2.056123322149581989e-02,-2.526314135900757998e-02,-4.970231504541964412e-02
2.377357194614299757e-02,-3.611046423496522273e-03,-5.295626093961770982e-03
-4.396527341438241643e-02,-2.659058335520349953e-02,6.341604292206701188e-02
3.547228275161708883e-02,-5.656828597592539198e-02,2.941170863553360312e-02
8.870492541807301068e-03,4.689726757716756490e-03,-8.502611114668977288e-02
4.916055927271218567e-02,-1.538860302978700169e-02,-1.510676234221313384e-02
2.614013353061006226e-02,-4.921438212931818906e-02,-2.834660963296299629e-02
1.491759411300146165e-02,1.439573797459619761e-02,-5.429943176401873586e-04
-8.884003077871034399e-04,1.097128118056615170e-02,-4.949688793743942106e-02
3.247225980398055125e-03,-7.397886667562031393e-02,6.202272320528436078e-02
-8.365375324334990703e-02,1.013502394799968911e-02,-3.345653881216562042e-02
5.137042129724937040e-02,-1.494918942287319467e-02,-4.416503485684152019e-02
-2.675057454592351738e-02,-4.281266757493066254e-03,3.475587890871154745e-02
-1.734327214739814216e-02,5.510117772713382656e-02,-2.243029170649290735e-02
-4.841884823462183282e-03,-1.392879632864765967e-02,1.663921002798699270e-02
-4.551487813383265149e-03,-3.392562214268281251e-02,-1.047995894703555517e-02
7.773505694589646214e-03,-1.288181116746436872e-02,4.392642838258393329e-02
-1.440705266425655606e-02,1.426062222166461432e-02,4.334073507458195175e-03
-7.766040978570175508e-03,1.321896700109104032e-02,-2.851517393001759895e-02
-2.511453271543979959e-02,3.144347958320965059e-02,6.512189749022964658e-02
-1.772021677716638030e-02,2.171969223585353340e-02,2.288688190461669880e-02
3.331481057226370890e-02,1.309038779307772349e-02,1.940181164455605234e-02
-9.224542815444640442e-02,-3.408390261921061259e-02,8.580714586749729755e-02
-2.821622477253312236e-02,-2.168598327026011185e-02,1.835278947214101855e-02
3.276318278499272540e-02,-5.561400952120743035e-02,4.458019281177734439e-02
3.747580988684807296e-02,-5.770291900326824514e-02,-2.346230098052014615e-02
-2.051672296861431141e-02,-8.585049229621498010e-03,-3.077070525243673360e-02
-4.055507380554487784e-02,-1.951878412469998381e-02,-4.570907241923802961e-02
-9.407532739592078252e-02,-3.214132502519860980e-03,-3.787422736342500873e-02
6.940792531607190875e-03,1.954553585726965040e-02,1.735290813198966248e-02
1.077220777037132642e-02,4.030146500270784075e-03,4.725291203789904609e-02
-5.826298895237544406e-02,4.276523612820772730e-02,6.241384064470970007e-04
-4.987792098345288777e-02,-3.134021498273784068e-02,-1.503711340604664028e-02
-5.970699455879209527e-02,9.362261707164749869e-02,1.316379048986926134e-02
2.454432122634021135e-02,8.079899246441918370e-02,1.601109864759073242e-02
2.602283356950396351e-02,-2.731072870345152906e-02,-2.391436955205330020e-02
4.375219149930197754e-02,2.666487868536879594e-02,1.323431521411262517e-02
-2.067184184355539550e-02,3.079888115091440615e-02,-2.906113686313585229e-02
5.181215292687387647e-02,3.117250664548184766e-02,5.919644832649786914e-02
-5.684860345994643960e-02,6.120148841516939719e-02,5.843747961923287382e-03
-7.389163249404684386e-02,-1.354989468536602765e-02,3.412659032758048189e-02
-3.504010735993283443e-02,3.500102559077650222e-02,4.550865345984367316e-02
-3.178624690113750206e-02,8.265628090973491104e-02,2.223437148662439286e-02
-9.787280625446937929e-03,3.721624739620212063e-02,-6.636296642258887601e-02
1.661525321252266263e-02,-1.722580524017164674e-02,1.915669303678569843e-02
2.187738353212343757e-03,-5.901404886787463278e-02,-4.828528426000098378e-03
-2.476527287241325412e-03,2.705593476627007540e-02,2.565229391264344308e-02
-2.018341786781790298e-02,-7.022557034702328616e-02,4.282136763824184039e-02
1.061041127901883943e-02,1.199273929906972541e-01,5.714122992068031148e-02
4.526598720398048586e-02,7.022250516974211376e-02,-1.267659772118347357e-02
5.265411325576718066e-02,-6.554294146090623545e-03,-5.021993975200367277e-02
8.795030276226824262e-02,2.016259688938968134e-02,6.413872772579354287e-02
4.585479585865082780e-02,4.086660419926096965e-02,-4.406781185048944810e-02
3.980046442588502237e-02,-2.509681245269833327e-02,-2.105766669674772815e-02
-1.038564400419828178e-02,-2.240088264186316375e-02,5.627409493446496004e-04
1.820396414077618888e-02,5.605023120523083477e-03,-2.747678167936964608e-02
4.801066806872079928e-02,8.558978097839783916e-02,3.455065498110128364e-02
2.840266566521535210e-02,4.455015558332108688e-02,-1.508813484350645870e-02
-1.751896392510227454e-02,6.331040602246930382e-02,-5.302684448977764559e-02
6.966844381861365954e-02,-2.900508080777973105e-02,6.152219491343650926e-02
-2.449846556984816223e-02,2.430894496396683938e-02,-3.259257073142999422e-02
-2.706886611354406350e-02,6.096511539428099702e-02,-2.570763579383353141e-03
-2.941998932927513896e-02,-3.240569289679317427e-02,-6.136755822849032649e-02
5.174253919614617975e-02,-6.964262322866471549e-04,1.945787972233239266e-02
8.163659604915188273e-02,1.830800334210357441e-02,-1.350606584747028605e-02
5.316449539135736924e-03,2.161500017666821705e-02,-4.478315939908864701e-02
6.201431490954623614e-03,-1.284158999110000289e-02,-2.693702366377413379e-02
-1.189425912055189563e-02,-1.889284339958691508e-02,-7.979782648941229073e-02
6.321326115464483142e-02,1.969952707813554457e-02,5.283005779414241126e-02
-3.278084003994478218e-02,2.247990015625622381e-02,5.725318531318657894e-02
3.787638945025212367e-02,-3.378138150026423203e-02,-7.664743344555195737e-02
-6.832113703362778512e-03,3.174837572365121069e-02,-2.435674078787147812e-02
5.707118128033686691e-03,-2.796227923232666793e-02,-1.912368688696076957e-02
-4.038629447539514306e-02,-4.087338887697255368e-02,-4.298940857801791110e-02
2.092738916285050155e-02,2.837085536975955669e-02,-3.214971683882308917e-02
-2.859816646379009439e-02,-8.045126166270408566e-03,3.592129858703768663e-02
9.599912764349892436e-02,2.397874230499013465e-02,-1.513334626351835015e-02
1.314094815792002900e-02,-1.762639085942669867e-02,1.465852961180527658e-02
1.409992054037768894e-02,5.218003810359055777e-02,5.460867444200384613e-02
1.801094388283797781e-02,4.676449205137912790e-02,3.714897548270421762e-02
-3.962157268321115505e-02,-2.010849400886582927e-03,-5.636252203560920132e-02
-1.460195293780543885e-02,-9.189441532112437028e-03,-1.403744512147046299e-02
6.129937856779354988e-02,-1.631982279457623239e-02,-2.185836436471130101e-02
3.102831349156090143e-02,8.504487346065363329e-02,-9.654765858203012696e-02
-1.208222056710922749e-03,-1.389251871126212338e-02,1.110451961511704083e-02
4.722010021143074887e-02,1.124269132035851486e-02,-5.571869192254949588e-02
-9.210582055569756232e-02,-1.310293607915781651e-02,-6.636874973102210862e-02
1.433542688428442700e-02,-7.507934802598839608e-02,5.812271311232883580e-04
-7.388232784450560198e-02,2.862154286398773534e-02,2.525664216482243624e-02
5.262305002720098213e-02,4.223329266334013149e-02,-3.817178245875572917e-02
-2.302300406334173086e-02,4.006740535590978119e-02,2.678416902368956770e-02
-1.045121294248093843e-02,2.219955354845165596e-02,2.841889821111206593e-03
9.029382934501138658e-02,1.654825414684771637e-02,8.030267668336560360e-02
-4.620571908161196645e-02,-6.263583134928399354e-02,-1.490460786612575646e-02
-1.078381800604929774e-01,-9.888721195384866935e-02,5.418832776463524542e-02
3.078898844801502242e-03,-1.976259712773056551e-02,-5.613625259794303296e-02
-1.970909716863201294e-02,1.085820656857491504e-02,1.706983543558123970e-02
5.572844497243624462e-02,-5.660286822141396418e-02,-6.133364144175250388e-02
-2.140224229544723800e-02,3.066585195507140135e-02,-2.454902815380578807e-02
-6.808188021242336622e-03,5.026859059388957135e-03,2.397157333024298523e-02
4.426960152494008316e-02,1.598712281796458440e-02,-3.189478167016207566e-02
-8.978117568341185614e-03,4.345582433584253140e-02,-4.943909179435383716e-02
6.707826666766741712e-03,6.158373113405114091e-02,7.126636886360350476e-02
7.669362685660234547e-02,3.626783007721968988e-02,-2.183343815848636307e-02
2.797889301956427849e-02,-3.342370397613187577e-02,-8.935810564148614910e-02
1.027343415644723507e-01,2.935784286670527904e-02,-6.830608928093388765e-02
-1.496906645848587562e-02,7.321773075567181155e-02,1.100513649560196962e-02
-4.141211598219250722e-03,4.268276994612754671e-03,3.912205136009204443e-02
-1.470205066622935937e-02,-4.286134273653472576e-02,-1.043168082354185323e-02
1.230332802273412102e-01,-1.236456467681348870e-01,1.713304485030818156e-04
3.080595589738151230e-02,7.704266308000452812e-02,-2.262772339168963101e-02
2.784292948490447919e-03,4.808090845656930179e-02,4.429993796987671123e-02
2.730809719305147057e-02,3.675269556591835574e-02,9.842936616404037234e-03
4.698963059113572122e-02,6.046802025746184778e-02,2.261151120737127720e-02
-2.833472900419606311e-02,-3.408190989724130260e-02,-8.907895167474699782e-02
-6.246853144140788322e-02,-9.373043388929122588e-03,1.208257651444288872e-02
-6.991163045787270047e-02,-9.979428240975586964e-03,-5.054067334660094363e-02
-6.593824598095501810e-02,5.781662577400135256e-02,2.207110802371081357e-02
2.164271804718395989e-02,1.788343499892427330e-02,4.895388593453047638e-03
-2.350870071279075046e-02,-1.063044558731751285e-02,7.260147174429324932e-03
2.895042659410345873e-02,-1.953574831914048349e-02,3.702173040831589074e-02
-2.061651593075443031e-02,1.331718569083182278e-02,-1.867387164318856348e-03
-4.817068760923003817e-02,-3.993844409632778258e-02,2.664641762525588389e-02
-1.019609317758875117e-01,-1.147079329734491428e-02,-5.871724528513826147e-02
-2.430605047394946566e-02,-2.088550523187332822e-02,5.358133103281680076e-02
-5.412472275076813527e-02,-3.820010732559345201e-02,2.880289053622417383e-02
2.359906755603570147e-02,-7.364191792108375385e-03,-5.951471351827505168e-02
-2.387076581040218151e-02,6.208775935669581802e-02,3.526018804032674328e-03
6.293393079557898888e-03,-1.413510899798170115e-02,1.147160436764360462e-02
-4.540119797803841145e-02,4.302849976626464679e-02,5.577967100960049690e-02
-8.916213771855474590e-03,1.370285224430783759e-02,1.341459581814345367e-02
-2.369938598545468997e-02,-2.340394394222065910e-02,-7.184774809029376152e-02
-3.539215405767774658e-02,3.386372544318563133e-02,4.040131900594838565e-02
1.185352391014362489e-02,-1.795797139491197777e-02,2.960834753649186496e-02
-5.769868987862106918e-02,1.372788771709940008e-02,2.967885429207317918e-02
4.999494103170060155e-02,-4.436257692524711062e-03,-3.451024040826741746e-03
-3.496593729644207563e-03,4.340261080121459586e-03,-1.070967657538194201e-01
-2.124647380301993016e-02,6.284448661408789660e-02,3.996571945698218498e-03
4.275062244112056570e-02,8.297200034840137087e-03,-4.149525848702738384e-02
-6.000479503212202692e-02,3.284071268887242545e-02,2.021422785555282431e-03
-1.248004787454965858e-03,-1.121858509705222356e-01,-3.946406880641961656e-02
-1.274428077811306723e-02,3.217419892747771376e-02,-8.590768491446593852e-03
2.814310258139814114e-02,2.087517791115608978e-02,2.759243942217859402e-02
-3.702865504662372631e-02,1.097281025985969057e-02,3.389129484716432630e-03
1.974809704330810281e-02,3.714505528745742913e-02,-1.585555366035574024e-02
9.283859414665761355e-04,-5.461235308524563931e-02,-2.134977759239459205e-02
-9.063141089149490126e-02,1.106890690499078567e-01,3.725635904038683359e-04
-1.752167533166930011e-02,2.399898512956738852e-02,5.174824679298469648e-02
-1.734597195594492561e-02,-4.876273530058562039e-02,3.046655665626643930e-02
9.107146394282222834e-02,-1.988822451112842726e-02,-3.433341408129014088e-02
-7.774610571546164417e-02,2.269007810305829001e-02,-1.677732196354589367e-02
-4.573234218073415902e-02,1.481581747430048670e-03,9.716206435501367408e-03
-3.381606818245385532e-02,6.676457081154335560e-02,2.271155059430899400e-03
2.177553783267007631e-02,6.375502581259120949e-02,-4.467659104726844771e-02
-5.100597753861377953e-02,5.242336679767022750e-02,-5.178609777339594766e-02
6.690460114565377481e-02,-4.421872125653489305e-02,1.009639866351055570e-01
9.989169913886625229e-02,-9.533013105426751954e-02,-6.235695199843620945e-02
1.402436542259418231e-02,6.565285035565016081e-02,-3.573886064443854843e-02
-2.447778498554898860e-02,8.560115351431189790e-02,7.946652716922360249e-03
8.798319005367927215e-02,-3.772576556635084954e-02,-2.631789484342196908e-02
8.908920954212057319e-03,-9.305649325591767616e-05,-3.628500929982794720e-02
-3.298469659348697569e-02,2.710001904247907097e-03,1.739655737013421841e-02
2.122201746878656786e-02,1.048574196216318644e-01,3.418250988632481890e-02
1.478188813445617360e-02,-2.034742101754537236e-02,-2.960114759013896674e-02
-3.467968523976873267e-03,1.119591576451133864e-02,-8.420873701544168144e-02
-3.810296534528417878e-02,6.350359792722376495e-02,5.543301930473770733e-02
2.225233223881874917e-02,-2.212518573582923642e-02,-8.165788672403723192e-02
-2.074125890316999565e-02,-2.042937635976164838e-03,1.127226078549564553e-01
2.440349701766409904e-02,-3.337196913442309204e-02,-7.585917314280508916e-02
2.197090920090508624e-03,3.574667544559166632e-02,5.349900687271212651e-02
-2.758348802101443648e-02,3.941517587765209357e-02,-2.739797863999094904e-02
1.781659834127971229e-02,9.677892493332023241e-03,-1.043935042346217854e-02
4.214510081328997487e-02,4.549346684071248897e-02,-1.186257485415772922e-03
-9.179364244026731734e-03,5.846630738980090891e-02,4.521716877562167308e-02
-1.877286634665526269e-02,-3.424547534493259382e-02,5.245272799614737053e-02
8.155490336580084598e-03,-5.878690397532106843e-03,1.112276963291875670e-02
5.664489640557129196e-02,7.240310799015804710e-02,-5.914627062487505180e-03
6.930689248146443271e-02,-6.222370689452060705e-02,9.991073633591449066e-02
4.875144418301306792e-02,-2.603761902429619149e-02,4.610612186766472470e-02
4.120718712048498239e-02,1.482235030043067836e-02,2.730574538759032721e-02
-1.065142423376066322e-02,-2.294613824700653115e-02,2.881385871292773890e-02
4.857092394496694693e-02,8.966253331079010111e-03,1.155510396988286732e-02
6.212083758844686582e-02,2.004625237278517130e-02,-3.033086789268546121e-02
7.305846912437392524e-03,-1.432515276880375272e-03,-7.409648236320211245e-02
-7.299191072393375161e-03,-6.762514920340148561e-02,-8.703330867365897949e-02
-9.175197603110994693e-03,4.048471916978504948e-02,2.852672544354673337e-02
4.128864875112054494e-02,1.828467972545233175e-02,-1.601895060683539845e-02
-2.571756935729669832e-02,-4.592928427855993978e-02,-3.275800857684894180e-02
1.963971610101985024e-02,-6.383383563471690166e-04,8.476550960508527979e-03
-6.481452000598799182e-03,-9.415020978410154617e-03,-1.503230735700269462e-04
-8.951860607021637495e-02,6.430840293227216113e-03,1.156239387811334451e-01
-9.359564441766855813e-02,-4.748008116123360323e-02,6.023452960916245158e-02
-4.342911934187434347e-02,7.432151969016621840e-02,3.291450400004834742e-02
-5.113644018222702342e-02,6.008543063088682586e-03,7.983552071392447172e-03
-3.701695395298823261e-03,2.164181721288225418e-02,-3.688865459381672485e-02
-3.208893852822722326e-02,-2.397051166462850838e-02,-2.909533197281723681e-03
-1.623938980705599486e-02,1.793067109787026270e-02,-1.224577973475409198e-01
1.752037107483168758e-03,2.481453511997408837e-02,5.767443721870479240e-02
4.540683525556381966e-02,1.373414254639662713e-02,5.471495008206819777e-02
1.183916885234649781e-02,-2.428595444256785585e-02,-1.285601061839242686e-02
-2.106934287761887126e-02,-1.063227588240689588e-02,-1.186852559180929211e-02
3.617418497907658181e-02,-1.097566753748269695e-02,5.084973779880429257e-02
-1.160113747763102422e-02,2.908561453307452818e-02,3.526439789198297561e-03
5.787351766872904195e-03,-2.032135587201703078e-02,-2.198415523268787766e-02
2.167494480878903035e-02,8.028353465690045779e-03,5.008014232815914679e-02
3.980448026733474781e-02,7.167439365490037295e-02,5.454300552368772717e-03
2.058125667977196704e-02,-9.042431287076740931e-02,3.205775829081560641e-02
8.084226979452404510e-03,-3.271024394958794990e-02,4.357941268112032474e-02
3.367599972307699918e-02,1.406294221335381220e-02,-6.348129577797796685e-02
1.671825463987132443e-02,2.323691862890943025e-02,-4.649413279022363010e-02
-2.136901003298095555e-02,-4.069173894434909011e-02,-3.882732574689945482e-02
3.343478572552242845e-02,1.391678455404307679e-02,-9.275984910244801374e-02
1.784468470696061460e-02,-2.769062488652422951e-02,5.481223011314487886e-02
1.307823318529146954e-02,-2.257243604743913029e-02,-7.477000817222874580e-03
-5.668716841954283409e-02,4.166792191179495564e-02,2.037824115298790886e-02
-3.778672638398938854e-02,9.298400495782893974e-03,-1.243970992661914098e-02
2.752055426344759276e-02,-4.833273623343384978e-02,4.647425198818939951e-02
5.168649655784082753e-02,1.220497352231354922e-02,-1.339998349185451618e-03
-9.705702564689418568e-03,3.821450366598967696e-02,-5.927502423099525325e-02
-3.911326896605951675e-02,-4.302382659920987729e-02,4.192534389860567284e-02
5.384136215215861582e-02,4.966760693341290556e-02,2.561903387398022786e-02
-4.748711471520975641e-02,-3.186838431327970733e-02,3.344177152351780757e-02
1.000696577697146421e-02,5.393338054014849142e-02,4.099869959687441057e-02
-2.150121903333899326e-02,5.023547361880896511e-02,-9.748594982045988983e-03
-3.281872900541938243e-03,5.285085446706858092e-02,4.706135934147223643e-02
6.254875138654197864e-02,-4.572800750917595941e-02,4.490483497351503706e-02
3.854657740106232772e-02,6.398358573529895621e-02,3.040467233739290245e-02
-1.596952740554398800e-02,1.476694151385683426e-02,5.527424083110692339e-03
6.485358527409884610e-02,-8.203966169665288799e-03,-4.324474563088905738e-02
-1.167196927969463283e-02,9.838402879573418525e-02,1.673887358062675634e-02
-4.005499286335890974e-02,-9.668858074981015113e-03,-5.747575866379742854e-02
-8.259742778074176742e-03,-1.061194318433587858e-01,7.858438798728823241e-03
-5.350518554847093905e-03,2.280178545184256486e-02,5.429444616182084460e-02
3.555296052884569791e-02,-1.628471442123955587e-02,3.896902801025216301e-02
-1.148525345148529719e-01,1.033987886920417348e-01,-1.748854621093131126e-02
2.033882864471337273e-02,4.338569050674277033e-02,6.191845379144552200e-03
-9.725202873561321348e-02,2.522507779162099992e-02,6.835396321224546101e-02
2.823606585759489557e-02,4.233065262038063215e-02,2.956127986399581173e-02
-1.096620219727251558e-02,2.247918567239436116e-02,-7.468793512135776108e-03
-1.168989270123087509e-01,-2.537454368162901652e-02,2.027337487339778144e-02
7.224693787447895865e-03,3.624628887672921851e-02,-6.995749133301011613e-02
-3.496959877480976947e-02,5.360976190635889649e-02,2.719236675307313764e-02
-2.223075629790840710e-02,8.953209427858309713e-03,2.392254727498447503e-02
-8.329988760136778150e-03,-5.754402472897713651e-03,-8.735749933757187835e-02
2.652600019779189494e-02,-3.270282692341518888e-02,-5.203894362087417569e-02
9.090279398097863423e-03,-7.614210005287853911e-02,-3.790225842962571812e-02
-3.604461613597087846e-03,-6.076808647579317810e-03,5.666225129045385223e-02
-8.587644801176315401e-02,-3.801739810005711623e-02,-3.411449914685566430e-03
8.137675786483204721e-02,-3.554780360196450884e-02,-2.045460374549662366e-03
5.951803881309501026e-02,-2.476363634243136658e-02,7.106042337893714311e-02
4.543217050454508021e-02,-2.836538186480583312e-02,-3.795672701921565945e-02
-1.940189423537669322e-02,1.986274938998221565e-02,-6.661163942591397102e-02
-3.983467216034930480e-02,3.094682170062480406e-02,-7.126844993972802737e-03
1.741618716890316193e-02,4.518362298160751717e-02,-2.799928093553013739e-02
-6.204617275637452217e-02,-2.048248110342924463e-02,4.766588470263062594e-02
2.445689471111160695e-02,-7.396045124348963815e-03,1.456767829470588006e-02
4.198276112882931566e-02,8.014522243785777642e-03,4.362229340861589061e-02
4.610537275097949944e-02,-4.366930635783199816e-02,-5.559032471951921156e-02
4.450539789954170711e-02,3.260815690556122942e-02,2.085344231922885497e-02
-6.392886006071986371e-02,-1.782381396641938634e-02,1.963126766602048615e-02
-2.278697933905879033e-02,-1.766618808280075214e-03,-5.995600841439860731e-03
-7.019629926129708833e-03,-4.962481934480888340e-02,3.177214211140039213e-02
6.663640830741628107e-02,-3.970537954334136393e-02,-3.069277951241223840e-03
-1.621599399304939071e-02,3.780963322280722627e-02,-1.765214825276489874e-02
7.107376546363435021e-02,-1.997558915108016767e-02,3.454595833524754661e-02
-6.360906283955403140e-02,1.072251096480313221e-01,-7.223472224774768469e-02
-3.984097437294387839e-02,1.093727085394737182e-02,8.007567180126372308e-03
3.571216520777979742e-02,-1.562885384022834117e-03,-4.446003381244307412e-02
2.153414507240766079e-02,-6.357350793547650314e-02,7.611702827919925030e-02
4.183591502223221043e-02,5.934784619893063162e-02,1.328538377180344537e-02
-3.438237916119980114e-02,2.576980457192210722e-02,-9.714662194602381728e-03
1.549392096510360944e-02,-4.678574948115999527e-02,5.346489651487668776e-03
-4.481896532727161486e-02,2.285839167152534102e-02,-6.401850113843188077e-03
-1.653188251346143778e-02,-3.875271785095770090e-03,5.152342223591441922e-02
5.924540929070099687e-02,-6.371634524053326754e-02,2.681280953627652661e-02
-7.713334568290809712e-02,-1.396462185769335208e-02,-2.637147945385956774e-02
-5.954879722760542983e-03,6.252674969188137810e-02,-1.066448268033321281e-02
-2.003733275674126138e-02,-7.498389585313717035e-03,2.722252051552236096e-02
3.730266861812997492e-02,2.658901692053452712e-02,7.918748038585287502e-03
-5.801851124815512323e-03,-4.455948758477201732e-02,-7.099981763494044029e-02
-4.123876617133685751e-02,9.497172128888068526e-03,-5.807609239552607994e-02
-4.717660566946860895e-02,-3.151500022748705138e-02,2.671381027180083634e-02
-5.265254294816258673e-02,1.960222017914383177e-02,-6.099432602841950955e-03
1.351509931155502747e-02,3.778172369206975884e-02,-2.644336896297574610e-02
-5.937781907819850852e-02,3.206426375812354568e-02,3.270124509210413366e-02
3.349044476731329739e-02,2.689793938062801440e-02,1.595058735340166775e-02
-2.450239450098606192e-02,-5.041028253308059426e-02,1.705261553323340548e-02
1.100927851683366435e-03,6.434796635513707896e-02,-2.906777510062864486e-02
9.320705667716407128e-02,-2.498875636913457099e-02,3.314204923443844764e-02
2.691654488680314539e-02,2.178383688686933925e-02,-2.748121742587383842e-02
2.203076232322979250e-02,2.845644870968565276e-02,3.333145569977336714e-02
-5.082055383104398805e-02,6.759549884793469854e-02,3.473083478310255018e-02
2.593214165663198026e-02,1.939573693825117143e-02,3.766861722009582497e-02
2.876679910548831168e-02,5.602370190988285870e-02,2.523165880882067419e-02
9.783964394160498540e-03,-2.108554372599315621e-02,3.514791982500251738e-02
5.898099937274309951e-02,-4.412048364597540712e-02,3.734590275968982520e-02
4.799178871092033699e-02,-6.379877386967923794e-03,1.489206262417197037e-02
-4.548494788720228860e-02,-6.779704320555617059e-02,3.016543266389969807e-02
4.430913026002605143e-02,4.573123805200653147e-02,-1.830512922471999593e-02
8.740838055840367826e-02,-2.880736847170013454e-03,1.947002835156593989e-02
-3.635801906461588739e-02,5.981274222477434011e-02,-5.500306636770201790e-02
-3.565141656515027641e-04,5.510220135526545243e-02,-4.609676950067672502e-02
-6.571050440757941757e-02,-1.905590724799083660e-02,2.072243973163625033e-02
-1.786365323564673147e-02,-3.781685184964111296e-02,4.252095319581200572e-02
-6.070996246740641838e-02,1.473402574885984521e-02,1.389855346765074030e-02
-2.131576717517167513e-02,2.040346499228126720e-02,-3.189910378333561669e-02
1.032452909302813554e-01,3.920001982593943057e-02,-3.521989586940236366e-02
-3.602467812898194760e-02,2.307442181211640658e-02,3.857027765141129126e-03
4.202627245776538456e-02,2.628454336720587037e-02,2.378445996724616596e-02
7.639878522402415717e-02,-5.436144713995446492e-02,-8.161387727661510022e-03
2.347875701954289449e-02,1.996775916583301991e-03,5.891515269262014021e-02
2.713600971869052983e-02,3.258094944800281334e-02,5.235053346920155032e-02
-1.570272242910935798e-02,-1.838880827423334044e-02,-4.587965967001217393e-02
4.919811342418433514e-02,2.231305856379819583e-02,-6.218069394385313670e-02
-1.299828506630058486e-02,2.978507039948080984e-02,2.403059766400437308e-02
9.456643113511963017e-02,-9.956315253874994248e-03,1.069105660138953626e-02
-2.690913799543899823e-02,5.304297422006151036e-02,2.881460168451917617e-02
4.688276474739393879e-02,3.449668086443550413e-02,-1.115631400500155176e-02
-4.363758111134127642e-03,-8.873853786590760184e-02,-2.176849276014467330e-02
-5.645097729403520531e-02,-6.245720554596904256e-02,-1.830627765574293492e-02
1.384494115220670160e-02,-5.577932831377850620e-02,1.041747950174537647e-02
-2.365046634248915008e-02,1.864028629892076558e-02,-1.647524531503835946e-02
1.741434577625621634e-03,-6.799749887436854802e-03,-1.032191756022581529e-02
3.145702655183811591e-02,-9.246024721950964545e-03,5.823186816009679606e-02
-4.809588401682636516e-02,-7.447738090847125236e-02,-3.989290655455270812e-02
1.725420417232542344e-02,-5.877603203975823032e-02,4.341783420582470687e-02
3.758057667959803765e-03,-4.367765469876417478e-02,3.713901149811609653e-02
1.201344163509311148e-02,1.622424538312738224e-02,5.335803509154361801e-02
4.394002669245836157e-02,-4.325697509601984098e-02,-3.437204477559359372e-02
2.385742667265505074e-02,-6.159172030001458520e-02,3.516205771462638024e-04
1.588275483590298465e-02,2.203183827784782958e-02,5.438773371327117190e-02
-6.020784449814541028e-02,-2.538305062171285209e-02,-3.498057405073343867e-02
-1.081234486975575851e-02,-9.107772020506913965e-03,2.200470187848349579e-02
-4.911483799271509562e-03,2.294646950118401849e-02,2.315257118192756008e-02
-3.710822615669320118e-02,5.129894113747285322e-02,4.183646778076684919e-02
-3.881424779447512768e-02,6.031324565141209237e-02,4.297642779141402913e-02
1.033260117198455015e-02,7.569382423966088125e-02,6.598427464871389758e-02
3.468554309772725608e-02,-3.296189209779726292e-02,1.198316792859589926e-02
2.355115231056395184e-02,7.254064214088975886e-03,-9.757721559503216777e-03
4.126724051923782305e-02,4.484397653026193226e-03,1.809436312366237767e-02
-6.315426554945308135e-02,-1.992789155124230840e-02,4.373488994748246650e-02
-2.646685386381472660e-02,3.387395158962673569e-02,-6.870541876302274642e-02
3.782791630086533921e-03,-6.670121601319624338e-02,1.772062621692067561e-02
-5.664007034519399908e-02,-2.538170502272178372e-02,-1.599753867911044708e-02
2.058608826680426510e-02,7.341589793246888242e-03,-1.279980694305026499e-02
2.910084847278138209e-02,-5.613115674189817807e-03,1.097779511778789428e-02
6.435143229274078829e-04,-4.965201207781046178e-02,3.608639158194728008e-03
-4.167258230338415775e-02,2.752958569209993517e-02,1.546584723682131388e-02
2.073069375922987831e-02,1.692920206060810270e-02,3.901805110596344439e-02
-6.517408737173999156e-02,6.411659789596116897e-03,-5.567580244573953896e-02
-1.572358729497312429e-03,-1.729959945763606330e-02,-5.307863906940039900e-02
1.423815001575514522e-02,1.060378238422278810e-02,6.509838603083643871e-02
7.687181521917074711e-02,8.006174118122434680e-02,9.560843819633112542e-03
-2.451687854064974262e-03,6.578292944010391552e-02,-3.506237659235907078e-02
-2.605032931306034902e-02,-1.690668573327618746e-02,-6.104492556838574807e-02
-3.001871776648095368e-03,3.361517970610290989e-03,-2.304436548748460892e-02
8.294400119924209835e-03,4.059266061300762646e-02,2.968426762194410068e-02
-2.065542893370016578e-02,-4.079908925633081440e-02,-3.046540659086924979e-02
6.308157321765565928e-02,1.291747760809274122e-02,-5.164810066974495628e-02
2.562009125897325018e-02,-2.125370267991315981e-02,-3.859070857241627111e-03
2.441341306676934539e-02,3.042257263001168360e-02,5.466435623906155949e-02
-1.207336050065484570e-02,3.572526546804016823e-02,8.431957416080155046e-03
-2.586261261745461879e-02,-9.920535016628778680e-02,-7.002133200700896842e-02
5.067430344038503787e-02,4.790952446529005149e-02,1.827954759753433814e-02
-3.046437608226355495e-02,4.194109899843712075e-02,3.981566936208376373e-02
3.118344929537934102e-02,1.056423599305524041e-02,-2.907876529166312368e-02
-4.137566272244525001e-02,-2.144244645453010495e-02,1.669433765861813102e-03
-7.537838554359582374e-03,-4.528838241094871458e-02,3.460226848527465926e-02
-9.460178504167454649e-02,4.523120296936673779e-02,4.727177148543875579e-02
2.862017201858981039e-03,1.221406741700068257e-02,2.916526982415152888e-02
6.691401476697861339e-02,3.392706132738374653e-02,6.019000340151824113e-02
-2.151950928596202753e-02,1.934820492613044743e-02,-2.711130654798595691e-02
-5.958267906286714849e-02,2.765651142859193445e-02,9.824569801689087001e-02
7.641881465227229678e-03,-3.115172277203136914e-02,2.091136543362949116e-02
7.232431308079705079e-03,-2.334817117748282447e-02,9.379818749392570404e-03
7.547356126948992841e-03,2.317735731689972087e-02,-5.770662371878035324e-02
4.014934262194127385e-02,-8.280431917231521888e-02,1.965391803823198988e-02
-4.574396375076570515e-02,-1.292994716831103244e-02,5.336250002501655848e-03
-2.077496925739037367e-02,7.697954506904443675e-03,3.354626846555203157e-02
-3.996350069075394786e-03,-3.528510333858943943e-02,4.239312007548931560e-02
-7.628446116705377145e-02,6.385990346986429589e-02,1.219316134083587612e-02
7.981725650369497771e-02,7.254606149172440621e-02,-8.251816504290283502e-03
7.711517698286550482e-02,8.866751631965121699e-03,-8.688928430118985843e-03
4.435497310633985946e-02,-5.492177594784826422e-02,-5.232554229017827990e-02
-2.948382957379225289e-02,-8.922629447051710905e-02,5.037675410106799354e-03
-8.890045541937693571e-03,-1.225551393066662623e-02,8.320509733199107916e-02
-2.334107841227730726e-02,-5.772914434963839769e-03,-1.195142547477028201e-02
2.119223691546801968e-03,2.317270587622382791e-02,2.256683988663137422e-02
-4.538550225251244269e-02,-3.148600161140249765e-02,7.911881401439326000e-02
2.080552936568168601e-02,4.009547196901483423e-02,-3.064535325054365544e-02
4.914021075428471816e-04,-2.633279115227945763e-03,7.946031689982997748e-02
4.704102902766658933e-02,-5.898730873479934161e-02,-5.617647659159223650e-03
1.114315082008745378e-02,4.591949639443731156e-03,-2.106195466618295334e-02
-7.885793491251119613e-02,-6.825076052958439776e-02,-4.973319737725249295e-02
-9.694702653725222052e-02,-3.886394428954980523e-02,4.375276908828632134e-03
1.204196708083020081e-02,-1.529404699182269727e-02,-3.515213156738644651e-02
-3.504883097277898714e-03,-5.139630387258042193e-02,9.713878832108756300e-02
-2.139434646116626995e-02,-1.129494095499271322e-01,4.577763774227593813e-02
1.981160898395758693e-02,4.829066154795403493e-02,1.968913332357947674e-02
-8.063240993409791224e-03,1.177749441928920004e-02,-5.702083534402304504e-02
2.926987955536107522e-03,7.972970365673709425e-02,-2.790172354351937861e-02
-4.082323393331359351e-02,2.110148110972329908e-03,3.445437068612951931e-02
4.656527389233870023e-02,-3.281315110699154630e-02,-2.405324821160999965e-02
9.478747574082299968e-03,-7.762356071988892048e-03,-2.734267258591705288e-02
2.433473656208728908e-02,-1.815798619344438994e-02,2.131284746213402831e-02
7.397536354165296091e-02,4.438416276765884405e-02,-1.747128366287276579e-04
9.558508733286515124e-02,3.525949585473599213e-02,-5.398557516936421108e-02
-4.454754767003778898e-02,6.672490341884744491e-02,-2.659548921727223798e-05
2.222288311306132996e-02,6.883902862328207528e-02,1.138556579680711708e-02
-2.711465549425395513e-02,4.644953413960097727e-02,1.279398843651873008e-02
4.932472157940613611e-02,-3.262222678787907344e-03,3.733620245315973779e-02
1.545916130982022407e-02,-3.949951611081798514e-02,3.092197359945184076e-02
4.143286607986812475e-02,-5.432858025463160705e-03,-6.449231780742595288e-02
-3.837022605398915614e-04,-1.829755816157853376e-02,2.865787303654511453e-02
2.038463754456535174e-02,3.731593439285386341e-03,-7.111301909045102121e-02
4.544840888563016906e-02,-1.659882005776707956e-02,-3.238364602255451585e-02
-8.903742140259525428e-04,-3.169690349674673946e-02,1.994946471903801324e-02
8.147039113179732617e-02,-1.070358757953901235e-03,8.152062094271973758e-03
-2.326699020644054650e-02,-4.728132961267477417e-03,-5.453603554619555760e-02
4.337735095916295941e-02,-3.008760113681814910e-02,5.712014803624219927e-02
-7.745408898100812969e-03,2.624078364323497239e-02,-2.138900208284851348e-02
2.923416368025324660e-02,-2.844059653778667485e-02,9.819135412858642775e-03
-5.298916940145698140e-02,-3.612644995481707755e-02,4.143284988165715083e-02
-2.703683193915628474e-02,-1.778050569270694589e-02,-1.055709738255538981e-02
6.844253220768084164e-03,-1.239013294978116506e-02,4.517645065221354006e-02
-1.180385926329862861e-01,4.443758658419453417e-02,-2.073542184809731848e-02
2.828942821584044115e-02,-2.348216225613271747e-03,3.634662903140159496e-02
1.715487080725390523e-02,-2.222506494212377059e-02,9.028607516084894563e-03
-8.948778830403696094e-02,4.077046563662403700e-02,-9.977146707945871301e-03
9.281287434323723731e-03,5.506817424502905706e-03,3.817524946871236891e-03
5.066716501649630444e-02,-1.540693170419948042e-02,4.125335002237694344e-03
-4.513167270048893537e-02,5.232989115715745015e-02,-5.748699861853960071e-03
2.208951559036608642e-02,1.560212656249775065e-02,2.844385334715313768e-02
-5.069519097208327087e-03,1.455193333100019901e-02,-6.906493219370976600e-02
3.310326809663474701e-02,2.509741208378403129e-02,3.220780858949729569e-02
-5.715142718404476324e-02,2.438784479212477777e-02,-5.263993284027191494e-02
1.895025502721768215e-02,3.596943987781563157e-02,1.618471959680542818e-02
-3.831830689233213516e-02,1.551817658132796781e-03,4.473063847171447789e-03
1.988289854368004150e-02,-4.086390111331120872e-02,-9.168722877682661254e-02
2.279444835156087951e-02,2.693387908472453379e-02,1.103749948242756761e-02
7.500656361499286051e-02,3.999269497073342644e-02,-6.727633332836512048e-03
3.759881906167018145e-02,8.388482498585217439e-02,-2.476165140972287626e-02
3.747850374620331770e-02,3.295621523446655432e-02,1.335719039596004569e-02
-4.467826564862937416e-02,-8.145613699629005236e-03,3.436723102364037941e-02
-3.001756304307550902e-02,-2.537003709017764813e-02,3.718885400534984852e-03
-2.484850162189967612e-02,-4.173733189935465576e-02,-9.547626170621343472e-03
-3.978874256387279068e-02,1.004627912738366435e-02,4.517802333014880878e-02
6.753584244366205198e-03,6.585373882381076460e-02,4.752268559434331789e-03
2.172083017060807281e-02,1.539120592316576414e-02,-3.790117944601149869e-02
2.164254863796001918e-02,2.437856251497742821e-02,-4.139702761454464031e-02
-3.732534106493694270e-02,7.117233157578406466e-02,1.085834523133539717e-02
-5.888664877890863875e-02,2.455830937709526166e-02,-2.523746720337367508e-02
1.759759486771626455e-02,3.157773562499049946e-02,-3.248170760850185856e-02
1.978949950062570962e-02,-1.335095244412305357e-02,2.180981902426123650e-02
-1.255005364084866605e-02,-5.038348356007654044e-02,1.629556861623143380e-02
-2.722965572265635854e-03,-3.677178856214854963e-02,2.409605485018983390e-02
2.543291022444580524e-02,-4.706304455287646515e-02,-1.312715061437569677e-02
4.885316935585380660e-03,7.401845022162607812e-02,2.777952219285071203e-03
3.236237804859055153e-03,4.955757299131112112e-03,-4.603618542579655804e-02
-7.581638812069471656e-02,3.418003572151992464e-02,-1.628814933288418379e-02
5.097425493741583602e-02,2.517787136844123683e-02,-1.536491612751806832e-02
-4.206463155975596890e-02,-5.802617830922437124e-03,2.322687178521502110e-02
1.358629466450075266e-03,1.198846686749941749e-02,-1.187284334114549617e-01
-4.426150656264440930e-02,3.645528863776455186e-02,3.900467025416736767e-03
-3.459260651735820979e-02,3.403698528596874745e-02,1.543824406471523171e-02
-3.719483772007171202e-02,5.829763330443810815e-02,-5.019856514722574950e-03
3.501690205300603785e-03,-4.653459988865434049e-02,-5.125612035556805640e-02
-5.058262219845174879e-02,-4.544375341651299416e-02,1.947376176745091447e-03
2.190415049815402915e-02,-4.003916888893352399e-02,-5.781935946015710412e-03
-6.183273578395829390e-02,-2.911482044538312927e-02,1.298038548400711183e-03
-1.130136997686148614e-02,-5.787457301199416815e-02,4.484473107348325646e-03
-1.546885340564215817e-02,-1.793328603288274828e-02,6.984714046368389970e-04
-5.326978336465795771e-03,1.569695685404802823e-02,6.665799839504749080e-02
-9.858619401347274856e-05,-8.137897948261542044e-03,-6.607887151973680824e-03
2.288494066051013909e-02,1.035603150408723194e-01,-2.988957294916885429e-02
4.708877090903543922e-02,3.699996351903564462e-02,7.713781453716041583e-03
-4.323923396952265852e-02,5.760358008280198200e-02,1.551988209171003240e-02
2.594137861747988424e-02,-6.314905671186882979e-03,-5.674452945726364550e-02
7.638205124508028361e-03,4.827164665859854514e-02,9.843356999706195931e-02
-1.037701796066578357e-02,-2.367216587299966063e-02,-5.766728402109034396e-02
3.597753781089670089e-02,-4.566024994867536047e-02,2.787521573218152207e-02
-2.729470890840682371e-03,7.487303923389865279e-02,1.152922303204403573e-02
1.613303186220401905e-02,-2.301078825415737300e-02,1.207635307715814940e-02
-6.770323990204583919e-02,4.857045789719608569e-02,1.100947248776264209e-02
4.863606471261163605e-02,7.800312291743777791e-03,1.886074696582838370e-02
2.115383992857437369e-05,5.955430912374706787e-02,-1.583776129247630240e-02
2.940794472367590923e-02,-1.070408090140582795e-02,-2.123573066624759656e-02
-1.989689186746719865e-03,4.298209378700576511e-02,-6.883314051367109970e-03
-1.749502522347964883e-02,3.570147306431075557e-02,5.720820495648681198e-02
-2.268544492733403500e-02,1.867334492353975956e-03,3.272029539259050518e-02
6.771344667449488708e-02,-1.235271438123579715e-02,1.170174144205133986e-02
-2.659760596909940909e-03,4.846494673070621956e-02,5.013486305769592963e-03
2.108363399625278866e-03,4.915810195197674315e-02,7.834424479122246640e-03
-4.029982501354911761e-02,1.807799436736953064e-02,-8.388036825588573997e-02
-8.201780746276547684e-02,-2.676790183826418049e-02,2.283164123938560830e-02
6.406933837688559216e-03,-1.233114847102841603e-02,-6.931866268639075290e-02
-4.047749525278184629e-02,-1.481188262390904439e-02,-5.293821588033476716e-02
-8.028152080342817673e-03,4.969222889823399214e-02,1.255629596119357122e-02
-4.312953083424756612e-02,-1.756154626143103387e-02,4.282075931623485071e-02
6.688974654779156204e-02,3.092884731183310251e-03,-3.430552761302001208e-02
7.979665112283913786e-02,-1.935407928932615304e-02,-1.016270512555707828e-01
-4.408792302668999158e-03,-5.580806993718933490e-02,3.575570705809208438e-02
6.307840874606862602e-02,-4.457799642465824080e-02,-4.058902178431383900e-03
-3.039426225495139161e-02,3.759019645834285606e-02,-7.374864369659599184e-02
-3.560140755344360503e-02,-9.202499575778981533e-02,-1.702775662240419569e-02
1.425491989164455811e-02,7.477780244105959899e-04,-1.190783746096343680e-02
8.674392096018985684e-03,3.291814764008789418e-02,-7.162493066494071692e-02
-1.706947050240303909e-02,2.582832116559007421e-02,3.316311787639135422e-02
4.277460932255724990e-02,-1.845136257653313960e-02,-9.675333913052159424e-03
5.830504117141036696e-02,-4.066824643033548764e-02,-5.143156112131266888e-02
3.149951834208315499e-03,-3.858582580324237954e-02,1.931206125023107040e-02
-1.300641828024512621e-02,2.620086131177111477e-02,-9.187716781567625834e-02
-9.429558386902528455e-03,3.311959301120322163e-02,-9.584524884542411360e-02
1.928788876069430181e-03,-7.682534211169932646e-03,-5.425234279221807787e-02
3.139694722648740666e-02,-1.506185193207586898e-02,-1.947126459923006342e-02
-6.744001023189505339e-03,8.497242588963085930e-02,6.516385621312559100e-03
1.463931875708757505e-02,2.089808571134263784e-02,8.463303741688643633e-02
2.294333748079872143e-02,2.646200018036055923e-02,5.713029413889998340e-03
4.158453874171400694e-02,5.140973431039409097e-02,-2.170482024456098225e-02
7.031593601249476466e-02,2.410545988558009459e-02,4.120375012417323152e-02
3.685003489512126557e-02,2.954799602314911108e-02,6.062244148016785947e-03
-8.148783246217183862e-02,-2.718303001573641429e-03,-7.685469049751664228e-02
4.009753333250307833e-02,-6.944108445660115633e-03,2.625026232391673361e-02
-7.828596071376534016e-02,4.824193423032285474e-03,-2.871970554499410008e-02
-7.374389535013069208e-02,-6.077301415046104660e-02,5.756132005081670416e-02
4.101198090226614024e-02,6.004249864049374802e-02,-1.865073036696278386e-02
2.877526933062255626e-02,-1.317991747645574571e-02,-2.749588943774303185e-02
-4.082593522192101004e-02,-6.312597946772720205e-04,-1.411891712500197571e-02
4.979470381591304812e-02,4.815955298661415279e-02,7.229442772665210792e-02
1.626785110551736205e-02,6.567398474049573887e-02,5.712632851081289598e-02
-4.256054283389219817e-02,-8.489696516055371747e-03,9.179662148565987528e-03
2.816823732441651323e-02,8.295590434688512871e-03,-2.836767047922228793e-02
7.151227746552321629e-02,-6.677334281447412645e-02,-2.101735071548933506e-02
-5.131641615667804218e-03,1.876859327124662941e-02,-1.006975977781226911e-01
2.097973903365072529e-02,3.666945472724564975e-02,-1.261111500415348363e-01
-3.082147703700548191e-02,2.437666163773683989e-02,3.797004986870582306e-03
7.768640363939967319e-02,4.255425459047039449e-02,-4.561966315564702085e-02
-3.669931359266549037e-02,4.616355492411550708e-03,-9.069994768550212680e-03
-2.521366203476537934e-02,1.928881264717002830e-02,2.389112986829090152e-02
1.007975121725350649e-02,2.690848474989028169e-02,8.059492706966213393e-02
-5.944813125664917888e-03,3.201729711297721798e-02,2.247692200791460634e-02
5.916412512384100486e-02,-2.220237396288982437e-02,8.758573917178616441e-03
1.214948844489782166e-02,8.428711640085004286e-02,1.973940217818008491e-02
-8.406293004274662667e-03,5.975216224763798926e-03,-1.264736459016800423e-02
1.746196165756623217e-02,3.709335277167515738e-02,-3.556589750286830859e-02
4.531091499158838160e-02,-2.232390293083356611e-02,-1.322833320984916940e-02
3.610389708786681390e-02,-4.029029936440457760e-02,-3.760155969883947208e-02
-2.922529628777327873e-02,5.049194342900045762e-02,1.009493021470505777e-02
-6.838313285645600259e-02,-1.102834191585834282e-02,1.983323345290895559e-02
5.342657122718576408e-03,-1.749022306994984025e-02,8.261029084147619717e-02
-3.323261333005749635e-02,5.301132357034053777e-02,-2.680257442468485587e-02
2.387509564786193667e-02,8.267405475914540655e-03,3.560898204079401136e-02
-5.260892925558182526e-02,8.527442923268700736e-02,-4.361410211267521125e-02
-4.068989343077917403e-02,-2.066166963075650315e-02,-3.107812279879735781e-02
6.907498728410456715e-03,-1.741202541563529813e-02,-2.863156390548459579e-02
-2.334755176309039407e-02,5.758405575615806876e-02,-3.879435043985476200e-02
-5.143258295046159757e-03,1.716601543572293664e-02,-2.433732764711433322e-02
2.196247190133941707e-02,3.153960689911227550e-02,5.319477457442703394e-02
5.102966199756428511e-02,3.248475814531213979e-02,4.856698568994311654e-02
1.055760043160303557e-01,4.263199630420625580e-02,-7.489397677965813072e-02
2.787623672934174193e-02,-4.045022951971855019e-02,1.512231590200753366e-02
-3.915188664349702856e-03,6.816690808426556503e-02,-2.918243878711192577e-02
8.167213285762817479e-03,5.058740938005738992e-03,3.399231377811179344e-02
1.577969697634049040e-02,-2.926403456417541252e-02,-1.189225178004895550e-02
2.115054516210832999e-02,5.348385252284258706e-02,4.686538579370618657e-02
-1.084161129653004978e-02,6.854508086885639784e-02,-6.393237899182556937e-03
6.243451310751143256e-03,2.599904349539075912e-02,-3.676404059734063312e-02
2.734813254073589425e-02,-5.344725908674593379e-02,-1.894323938945179087e-02
-1.617245928276267106e-02,2.434460958038069806e-02,1.870804918095529679e-02
4.987686735002048316e-02,1.428961323458686865e-02,7.898843408677389683e-03
2.117933666097171139e-02,4.864952293071609160e-03,5.595530744902838666e-02
-6.083579068511778959e-02,-6.104072677425158300e-02,-1.814848852796727488e-02
1.013257971409272512e-03,-8.167631134336501841e-02,2.094538411964286251e-02
-8.134027442099399027e-03,2.417253752680293896e-02,-3.670622179172855059e-03
-4.273744194321429241e-02,-1.421790438290804898e-02,-6.218280166176111574e-03
6.436072969200953842e-02,-1.864536058148346179e-02,3.621736612225549823e-02
-3.314675462790527688e-02,-1.356926894238597026e-02,3.164056544871481080e-02
-2.039548306525948429e-02,4.365309553677894361e-02,8.552202303573445963e-03
-7.175015603662602409e-03,1.782364439228735845e-02,-5.506424445582353000e-02
-1.190274404087926854e-02,-6.194173163760965592e-03,-3.634163380501254093e-02
7.385984772394189879e-02,4.782852457478815877e-02,1.039137170728055004e-02
-2.317185261412852901e-02,-4.246615961816673640e-02,3.186938255382477936e-02
9.000800644735132416e-02,-3.609579404163623662e-02,-5.925637888387911070e-03
-1.743256289045020876e-02,-1.266933663081843547e-02,-3.502027457357422338e-03
-3.885550310055827655e-02,-2.146929505201757276e-03,-1.826052137767455313e-02
-2.973293230817597790e-03,3.542361173791138546e-02,-5.860021387366843443e-02
1.818344633045872183e-02,2.245458211123878452e-03,4.492913883897738103e-02
1.295581489010583405e-02,2.198376019481718124e-02,2.352151053911668774e-02
3.001375200150886366e-02,7.166235060124433176e-02,7.326201402626448742e-03
-2.549549552060462188e-02,1.463708936270331773e-02,-2.028016604167859338e-02
-2.383851926558510151e-02,4.312192779622466693e-02,-3.916155185434922782e-03
6.121988391518003864e-02,-3.026188331512594601e-02,2.166666000776973355e-02
-1.301637340143691757e-01,-5.507369534210270617e-02,4.797256182847232930e-02
4.732100512020939731e-02,4.622731498016519752e-02,7.507139949324176387e-02
6.630465160860556095e-02,-2.885836967203578209e-03,-2.281913170807948338e-02
4.156177570847483654e-02,-5.843209714303898399e-03,3.008659978048590367e-02
-6.010563733833650113e-02,2.491479951509600541e-02,-1.068818026284747494e-02
2.872452745208719984e-03,4.109286794329158193e-02,1.186689248804467149e-03
-6.939957158529715467e-03,-3.307303143255379413e-02,-7.567527036068030788e-02
-4.786053547335003544e-02,9.539430685335699434e-03,4.136916566238114240e-02
2.319057399857028801e-02,-2.888575669221759776e-02,3.272914089316728004e-02
4.170798300942486769e-02,5.047992872928915714e-02,-4.333253172704280148e-02
8.182246839029783114e-02,-7.843275342100415604e-02,3.559459930592695498e-02
5.602473353089668789e-02,-4.461418802113722298e-02,-3.012554362813982603e-02
-1.265259763875539387e-02,1.921281984040706589e-02,9.796643981980955596e-03
-5.972292979639601262e-02,-3.704882323616532930e-03,1.766003592465665434e-02
1.355493699990126255e-02,-2.361294333794357325e-02,3.089943109632263540e-02
1.125661981860617833e-02,9.267864658443743242e-02,2.355858267061407621e-02
1.180108686090550023e-02,4.630351792706108305e-02,-2.221808056669033644e-03
2.941366045208756302e-02,-2.564111988137270093e-02,1.617145093434228798e-02
-2.746112254005166932e-03,3.472145660566452498e-03,5.787816324580392392e-03
2.640125379588804944e-02,-4.895129577293336198e-02,-3.156544167877202434e-02
5.905747111294169099e-02,-2.377029569437355896e-02,3.677033644824678760e-02
-1.501620085490443061e-02,1.206428726888842187e-02,-6.292819496845359836e-03
-3.570070527890881196e-02,-4.724073617968815170e-02,5.507778063316669248e-02
-9.779768243605406128e-03,6.733034935242142131e-04,-8.593222106734767218e-02
-7.541584963875971881e-02,-3.046219254525286968e-02,-3.196943129071470185e-02
4.512513316814505127e-02,-5.887943672553190566e-02,4.935632213206298663e-02
-7.703038628048018699e-02,-1.138625088477111108e-02,7.874487525260427667e-02
-8.145134575214740824e-02,-3.007718557263734313e-02,1.304500784752201693e-03
-3.875029201915247690e-02,-1.783895724259945605e-03,5.690009343399015165e-03
-9.688186857466364946e-03,2.114515710816809377e-02,-3.365377989314406737e-02
-3.523622703476387424e-02,-8.831818544099928267e-03,-1.531693720841974422e-02
-4.011242382884840085e-03,-4.450559770890885614e-02,-1.723046208028736204e-02
-2.392004838114077103e-02,1.532828086986658643e-02,-4.746315534921648205e-02
-5.604753205137102956e-02,4.727752031815655315e-02,9.905337793815516961e-03
-3.278836960888960317e-02,7.755798551014350672e-02,-2.579062347300777741e-02
-3.796502533774853694e-02,8.169982146812404533e-02,1.191645166216327191e-02
2.210899890440333124e-02,-4.846914235381644814e-02,-2.314235391967449026e-02
-7.756048795287837083e-02,-2.785991143073323142e-02,2.859677912720122103e-02
-3.071414964307344134e-02,-2.667732956066711826e-03,-2.498837374348036530e-02
4.245410054716653586e-02,8.889982020021711118e-03,-2.002397969402696862e-02
-4.409166505111504486e-02,6.845150362127136456e-02,-6.130210513190257476e-02
9.760853040821516197e-03,8.850318783736720041e-02,-4.100709130850448136e-02
1.568533436287063653e-04,1.978174887139974233e-02,-1.207242964622220506e-02
1.171230510765886024e-02,3.288716029865224044e-02,3.626418953720385308e-02
6.665870775933936850e-04,-7.553770437680860754e-03,-1.862264035538546345e-02
-4.481197258775582691e-03,-1.166799288814994277e-02,-3.611921066005627928e-02
-4.626985192854551031e-03,9.824110602414642957e-03,7.026009112718148431e-02
-2.357647465970677189e-02,-1.874662078111436966e-02,7.399929083494759252e-02
-4.747714253486368108e-02,1.833049493998945359e-02,2.457383109210047739e-02
4.574588512644194548e-03,6.942441279817748723e-02,-4.307704643223163321e-02
-6.263289360617806112e-02,5.553187700319819897e-02,-5.746515499621912201e-03
-1.334414838176303623e-02,-8.534392636101963137e-02,-1.418622477102717341e-02
7.347983614745993985e-02,6.098594429028356134e-02,-2.587456487240406486e-02
-2.356125029046473099e-02,2.041637146799322490e-03,-6.361020347959771282e-02
-3.157706406951255734e-02,2.039721252142439115e-02,1.181980991832544403e-02
-9.533966454498118970e-02,7.104243214575424459e-02,2.120075768138238864e-02
3.715835915071784984e-02,-2.951261776031697398e-02,7.575910134268086515e-02
-4.666272434635163058e-02,-4.411931527883326126e-02,-1.308419858743040771e-03
2.422041654641281239e-02,-8.763234982082723779e-02,-1.216804882318709563e-02
5.507176841451531107e-02,-3.638767188578866801e-02,7.619791986563841796e-03
-4.643410657878510595e-02,-1.691587803692646066e-02,-7.842699545385320437e-02
-4.059154189435734694e-02,5.957919942481934572e-02,-2.397180033577202274e-03
-2.608298727109341006e-02,2.881334590707617521e-02,-9.983233955132234105e-02
-5.226418733408073891e-02,-4.897777405039278192e-02,3.606919079144921183e-03
-1.127725839925286175e-02,-9.145495865811960334e-03,1.430262778876190653e-02
-5.485531862029704997e-02,2.115456767838973240e-02,-6.105759357532793141e-02
-3.328267254722041841e-03,6.700082845071925197e-02,-7.869135679989459897e-03
-4.073059864668916730e-02,-2.457383761644915329e-02,-2.232367484244400166e-02
2.806338148529410360e-03,-2.687416616594723393e-03,9.414198973853447894e-03
4.194459655242097768e-02,6.391934647617884824e-02,1.035372030435252194e-01
-2.998759967241014859e-02,2.552005905468106295e-02,9.425553351362945392e-03
-1.803139309128690354e-03,1.946300847287440322e-02,4.562519649179853920e-02
4.756438749282599493e-02,-8.546916733557015367e-02,-2.415031883216947964e-02
2.287360271027149075e-02,2.975846662407269708e-02,1.986140913358112881e-02
-1.085772337824444586e-02,-4.093668492476560360e-03,2.128988658062938577e-02
1.044957924531261517e-01,4.126393311033147576e-02,-2.365494778019716898e-03
3.379982142930010314e-02,5.568805066009372556e-02,-2.572622442727041329e-03
-2.838320805601246555e-02,2.444292338978534124e-02,1.860335367522003222e-02
-3.876400508785841220e-02,2.335928280073124377e-02,-3.575288825785874394e-03
-2.318712212482277116e-02,3.192013992958596391e-02,8.093929295511409494e-02
4.579163755341982694e-02,6.733641607415342956e-02,4.996301941664762526e-03
-7.013350538871114190e-03,-1.868249038343225421e-02,4.842452307776106551e-02
2.489197372323183311e-04,-3.102954943394568149e-02,3.347253118888836310e-02
-8.051592025957526877e-02,2.790074317000551182e-02,3.211719049460432743e-03
-3.635861331593204931e-02,-1.503438851706704812e-02,-2.840043304977375727e-02
-4.185807181643727559e-02,2.524824990889506030e-02,-1.969936743558757183e-02
-2.609753349326320374e-02,-6.580975907158119476e-02,1.505042201258434235e-02
4.010221981854172196e-02,-9.663702508239871772e-03,-1.105040568200492228e-02
9.182882586022744070e-03,3.464094835176896592e-02,-3.547267407372211440e-02
7.703312117766529521e-02,-2.552610240855287399e-03,3.498790331965237477e-02
-1.398111480113998183e-02,1.100104789203984468e-02,-2.593445849056894709e-02
-3.901909596665575908e-02,1.700912298832936084e-02,3.584733818305383540e-02
3.805097151277287044e-03,-1.545739259178406655e-02,3.820018688018884251e-02
4.443753935537309713e-02,-6.116875196531368353e-03,-6.644901009917574507e-03
-4.687010607623601222e-02,-1.468273551422303799e-02,8.552500993767999521e-03
-1.528416441324463582e-02,3.303852418770603788e-02,3.475992819821384361e-02
4.838884680393380766e-02,2.448462254377861691e-02,2.433880363614030623e-02
-4.962119840529900967e-03,-6.963418970905863037e-02,6.458131916717131660e-02
5.356927747989586458e-02,-2.464834977322803364e-02,3.581738152170856320e-03
5.448831615207328644e-02,2.133397918022705148e-02,4.647781342858862269e-02
-1.380997826423443695e-02,8.713261051582640859e-03,1.616066115545697346e-02
4.622217383920620981e-02,2.567131388268894393e-02,-5.494288010045702934e-03
-3.411636735421413012e-03,-7.305146524032285482e-02,-2.748087421827027227e-02
4.929256610507484759e-02,-4.766382682809562621e-02,2.805560262228367144e-02
-2.398492806917435979e-02,-5.324292068331545891e-02,-1.355607022279988784e-02
1.989879973457654065e-04,-5.183614721003797915e-03,6.771982789205722997e-02
8.836936931819160124e-03,6.284947296398220307e-02,4.035111757987359243e-02
-2.212664625744363220e-02,7.231067824382627143e-03,-1.559619814915731012e-02
-1.007694296801626803e-02,5.409820461443671374e-02,-4.833382939471306088e-03
-4.570786680996691623e-03,4.975295166609104702e-02,6.158034825953810631e-02
-3.066136502494339403e-02,-1.957427475086377655e-02,4.124873061649773909e-02
-6.551552284574292673e-02,-4.008049144701091027e-03,2.561703109073701357e-02
1.130627912916671272e-02,3.495274468815897512e-02,4.714804865864689887e-02
5.861966066030305927e-02,8.315523934034495593e-03,6.805919789091716132e-02
4.973080526664972606e-02,2.904678410812267658e-02,4.698457939327000538e-02
3.023384037016217836e-03,-5.736864786078264486e-04,1.642641553847228042e-02
-2.064497028348981356e-02,7.207367951534068840e-02,5.274885016774158442e-02
-4.432121612275179146e-02,2.193549573484961449e-02,6.778062848992895406e-02
7.398196838495363359e-02,-3.018328888558251960e-02,-1.244280091660407012e-01
-1.269943721166250268e-02,-1.696615412866757377e-02,-2.641078058305001627e-02
9.815552316401023394e-03,-3.059230660423699344e-02,-6.214410780897398207e-02
4.447907003977272927e-02,-6.447756529328697861e-02,1.065351116039572887e-02
-3.048689410697895744e-02,-2.586827612775058653e-04,-2.961669630606924078e-02
5.032529010158856390e-03,1.748918786578399984e-02,2.437301377160523003e-02
2.706777599781757387e-02,-3.044827582111249084e-02,9.983348943962053450e-04
4.186935914579472187e-03,2.163264984521927337e-02,-2.620032294889015900e-02
-2.070521204690830425e-02,-1.872983615896673185e-02,-4.634159668352914874e-02
-2.259271965468244783e-02,1.718964098944931670e-02,6.838282744976515370e-04
-1.320579207040252024e-03,3.997142593809432237e-02,-6.089735232035904666e-02
3.611197847110809295e-02,-7.341479195426688434e-03,3.562692287974535826e-02
7.210858480395156492e-03,5.765969182716406544e-02,-8.252370801680977697e-02
-1.521877268169516753e-02,1.566101255214574425e-02,-4.643573290331499265e-02
5.501511944281130273e-02,-2.006317276170760736e-02,-3.453612360566272587e-03
2.262158050790900529e-02,-4.495958725192925054e-02,-1.536332506663091839e-02
3.957085754917814141e-02,-2.548125299987336403e-02,1.011126225722737242e-02
6.998093532800969685e-02,1.088977800208980155e-02,1.306526067309181187e-02
3.613359936031870084e-03,-3.641069956354579806e-02,-1.549101566971764800e-02
-2.085976622240492961e-02,3.053704247621976710e-03,-1.820828157671896402e-02
-1.404204191386071270e-02,-6.108451238282144174e-02,-7.025241109451756463e-03
4.246720633649685855e-02,2.600796546756507094e-02,-9.867177238562920699e-03
5.391601117755854752e-03,8.469100103304949556e-02,-7.899811342168977513e-02
6.108188377904717747e-02,-4.421425367911564763e-02,2.272687256878315465e-02
-2.778114275663285879e-02,-3.496478534602075888e-02,-2.071995057739454624e-02
2.873818352611805520e-04,9.944171825667445785e-03,-3.146317342859492050e-02
-1.465261780012793065e-02,-1.852268181348113579e-02,-4.946244083294087934e-02
-8.827751866890585358e-03,3.243434378642653243e-02,4.145895783994296702e-02
5.223680482775376610e-02,1.540719260792075898e-02,-4.832666538548110839e-03
-4.678457990248973547e-03,-9.539889804492632241e-02,4.934512936228684088e-02
-5.016789204387336713e-03,-2.350494658224733940e-02,-2.288229644055674028e-02
-9.160044803239149672e-03,-6.343556022559553031e-02,-1.401165812354612404e-03
6.383421739921681104e-02,5.393491870525190385e-03,1.651617794123670657e-02
-1.358935962975759901e-02,-4.013026434510860024e-02,1.086194405408648540e-02
-1.417002804890318823e-02,-1.001903944083102141e-02,4.204357248705972022e-02
9.744854588993019998e-03,-3.054069856229298108e-02,-1.814659308425389111e-02
-4.900003530100249284e-03,-5.405636163773899945e-03,-4.442808277493381225e-02
-2.138491101033373684e-02,2.450959526404926023e-02,-5.187317313711008009e-03
-8.993464703293147303e-03,3.556970636732839641e-02,3.325485198284483003e-03
-1.167296822798891912e-03,-1.160014786549903171e-02,-5.503660811014746308e-03
-1.187043794841151183e-02,-8.019184823914279892e-02,4.558506400014945836e-02
1.452809146938269062e-02,-1.488492447200428538e-02,8.214683330083739909e-02
4.838399455268627657e-03,-1.251427732407860323e-02,2.043296503174504494e-02
-2.637433267991616537e-02,-8.721120877236825672e-04,-8.426496643620825372e-03
-8.563957174041700315e-02,-2.949592605150575669e-02,-5.022209831169478084e-02
-5.177010170685125007e-02,8.024949378115056597e-02,8.864082867724765863e-03
-3.653338398167586126e-02,1.045203605299743349e-01,-6.601477800746807095e-03
6.825226637729260581e-02,-3.669737543670171381e-02,-7.782080636506955029e-03
-1.794811343374456969e-02,4.183074126399255466e-02,-3.411287334397485223e-03
-1.548661723154569521e-02,2.044744439400704786e-02,-1.479276185852663496e-02
-7.397855216266803133e-03,4.723157703385757328e-02,1.396838715057147897e-03
-7.895407960104894318e-02,-1.393871293465740249e-02,-2.846960624293525324e-02
-9.670736491794335054e-05,4.477292115323567440e-02,-8.694431288262992330e-02
1.630452883548006229e-02,-1.768380418396195072e-02,-7.636126350607494451e-02
5.402662747584641850e-02,-6.157610054627179509e-03,-1.259650038046991084e-02
3.289883199578623463e-02,1.781583034755591932e-02,-2.667748059242526504e-02
1.716768744293079019e-02,9.133910200903358478e-03,-3.735141196789541068e-02
8.878796195866875407e-02,-2.175387147835473531e-02,-8.189606625229025119e-03
2.211548288682466112e-02,1.455287512556188538e-02,-7.020572323561048060e-04
-8.996075420627283950e-03,-2.639590531114723373e-02,-2.812797789705123383e-02
-4.067656684211742174e-02,2.017234802733341732e-03,1.586843157020776177e-02
3.096286373132366501e-02,5.986955715712554554e-02,5.457438140344432476e-02
-3.778585133139229779e-02,-9.753742246656885162e-03,4.496178611624466331e-03
1.143075107897175910e-02,-2.319397525384373979e-02,5.029741015142096677e-02
-6.459215053869901517e-03,2.204107838572385430e-02,3.633109471365282561e-02
8.363899040854839984e-02,-2.067138214522377601e-02,1.243268808924684332e-02
2.638618366368820217e-02,-7.180964252192040265e-02,-2.388797943789094935e-02
3.751806540950072127e-02,-6.774312464055441208e-04,-2.704178476680035859e-02
-2.981198125264095805e-02,-2.947217037403749781e-02,-4.603376569525400447e-02
-8.269916303774355049e-02,2.922692667979507122e-02,6.074985743966611340e-02
-3.560003715072451030e-02,-7.723745585037936241e-03,-1.254147000766639083e-02
1.863932603343876337e-02,-5.446904753730334725e-02,-5.133037188889946062e-02
-6.340465063594909190e-02,-2.647411562483014888e-02,-1.712696052002639358e-02
3.689461163800846627e-02,6.400307869276445141e-03,-1.694740356403689335e-02
-2.505452633839942017e-02,1.111203794336788897e-02,-1.838388823287574877e-03
1.590319325182826954e-02,1.474879494993526843e-02,6.521512570483957091e-03
1.686221692956659315e-02,-1.624364342134957881e-02,5.145373088079682050e-02
1.899099738414877087e-02,-1.137193919677903162e-02,-2.271096350825578883e-02
9.852134043485070991e-02,9.188834790703656955e-03,5.928763189095358210e-02
-1.711806260811436862e-03,-1.102135737864494598e-02,9.186714992768552079e-02
-1.136462719588347964e-01,-2.407529731329173181e-02,-5.386939291334664343e-02
6.839771167679119419e-03,-1.612181908131902347e-02,-3.947396946336437923e-02
-2.240360896131926311e-03,-2.990834308492319044e-02,5.391494560248899937e-04
-3.016100879713794897e-02,-2.332593984179217716e-03,5.670123278980616216e-02
7.207427151739174975e-02,5.719491867327546747e-02,-2.223214806220170231e-02
7.226940541872569658e-03,1.211161604458072250e-01,5.903618878712756785e-02
3.394419166236994911e-02,7.187931874302397328e-02,-3.524977977137930263e-02
2.320259397888354766e-02,3.157046785121662980e-02,3.462009384725333021e-03
-2.511733077014944790e-02,-2.919964564171085783e-02,1.703037167817064712e-02
7.730337419845165203e-02,-1.746884886080212872e-03,6.847466004688482211e-03
1.407137500233530437e-02,-9.158342901596851215e-02,3.918511726050928623e-02
-4.933862034677630876e-02,3.775376906089777940e-02,3.813426350880959326e-02
-3.447509718350739299e-02,-9.440173672048016162e-02,-1.383934997541657989e-02
3.599762473175531496e-02,-6.375922449123495872e-02,-5.163702978974527708e-02
-3.758483094490822074e-02,-4.514667742230988462e-02,-2.178975121043369000e-03
-4.122349783196418982e-02,5.656656378864223338e-03,7.228489453479102628e-03
-1.160947051016957346e-02,-1.375853108824838175e-02,1.419922501371236045e-02
3.963416510136862428e-04,-6.230797825904841464e-02,-8.146180073073874817e-02
-2.212549614406073180e-03,-9.442100308840689626e-02,1.837552929169622429e-02
-3.225418230645047540e-02,-8.099719992271166291e-02,7.746938038811815828e-03
9.064661002659728239e-02,-5.327716016710124652e-02,1.927528361305210283e-02
6.571293840614453319e-02,4.096499270910706342e-02,-5.141648618549288230e-02
-8.931665494802966052e-03,-3.295629689085155523e-02,-2.251769063452630643e-02
-2.406432464337693658e-02,2.822130731958756925e-02,-4.961259605697495439e-02
-4.397477562349439047e-03,-3.494657349000988150e-02,7.445998104802234452e-02
-1.048280659226259390e-02,5.326961694012709303e-02,1.306925348236544215e-02
-8.402601948003345089e-03,-1.326121677208895455e-02,-7.683488194999463228e-02
1.294034982492473645e-02,1.423696965338771582e-02,1.159697308135604170e-03
-3.689274820640935093e-02,2.217424021511804968e-02,9.439481500438605920e-04
2.468712489610165942e-02,2.152306696823711677e-03,3.313379797476304761e-02
2.911971821851825834e-02,2.134756678413938721e-02,-8.615565106433474563e-02
-2.726532023706483218e-02,8.386464038878102545e-02,4.683668370956903942e-02
1.625646638919086423e-02,3.310518598703265231e-02,1.336003856006929939e-02
-1.539325450127178654e-02,3.737504059721256933e-02,-4.732565926394560057e-02
-1.054824255143781003e-01,1.620189612737836168e-02,5.916700629258228594e-02
7.301925463977382291e-02,5.489226934262664281e-02,-3.314875295222156210e-02
2.330788968184901305e-02,1.659658386647156966e-02,2.295046994581321359e-02
-6.790651435577768624e-02,3.755789998863398593e-02,-1.679872747788585530e-02
6.865353196851362028e-02,-2.905027828691146910e-02,-5.543720322653600263e-02
-4.758374380712181509e-03,-1.737162502561321459e-02,3.408274984035709887e-02
7.695074733500392034e-03,3.287127711938729602e-02,-3.423709167783553151e-04
3.087318183482830325e-02,1.109107458293936673e-03,3.247764088344071848e-02
-2.743283946184335229e-02,-2.164218099723912506e-02,4.605307037536026694e-03
-7.735569919744221187e-03,2.875461304259177911e-02,1.107496298698184833e-01
6.132515150365554224e-02,-7.585061788296823364e-03,7.627759437496853430e-03
5.884840315078848118e-03,-4.895871085548801627e-02,-2.346827033638232765e-02
2.466188678293251835e-02,3.060920538868968852e-02,4.479177494921176422e-02
4.514526521330772951e-02,-2.747000312554918888e-02,4.510353101246916685e-02
3.483013104581936248e-02,3.471262616317967453e-02,3.089413012560357497e-02
-6.047236887104660147e-02,-3.639965115057435668e-02,-9.128092360211845788e-05
5.442619199619418320e-03,4.798092890590285875e-02,-7.243380029670357101e-02
-2.177251869417009753e-02,1.621396282676795266e-04,5.880109462265910129e-03
-4.618327644661173598e-02,-2.817072254101208803e-02,-8.491197348270085321e-03
8.242782071376417510e-03,1.636436474825103075e-03,9.694593281800721260e-03
2.035624274105813855e-02,-4.200316904907105964e-02,-2.589613280739475748e-02
-4.200393833443877289e-02,-1.293255272838817090e-02,-7.459796790902337160e-02
-1.287818421789323729e-02,-2.237755063286792773e-02,-5.420360432051887084e-02
-4.063038596379803247e-02,3.106218086117713134e-02,-1.548681530777559941e-02
-4.580729722989309444e-02,7.686466669965057175e-02,4.092868651196772227e-03
1.604681636476257061e-04,-3.241344246501122461e-02,-1.874649888448964505e-02
-1.118748730750887890e-03,3.226969264832118406e-02,3.316261328764347205e-02
-3.483545260282617378e-02,-3.371427711712537273e-02,8.096006830272498012e-02
-6.649264793006290190e-03,7.779356187748508178e-02,2.339856879243910892e-02
4.129798741681064977e-02,-1.466479671921917805e-02,-1.762717686713438994e-02
-1.534991958899758341e-02,4.940116962419242863e-02,1.274422147509427124e-02
3.731300796099153161e-02,-5.811224168701219911e-02,6.548656029643913634e-02
-2.691598008145028309e-02,-1.382189678390622137e-02,1.023026279919974774e-01
1.738715967890230472e-03,5.956306393391215190e-03,3.523398206729005944e-02
-4.571594393250552613e-02,8.944374506628970101e-02,9.653768839403709806e-04
8.313989154381855318e-03,-2.536569695379457118e-02,-1.813368583403047324e-02
1.678525960681557030e-02,-3.522801012940093152e-02,3.804533436359021359e-02
-2.463256828027564002e-02,-4.414235150488618475e-02,5.184949818439028163e-02
-9.758275844599242910e-02,-9.996805243941215419e-03,-8.592702824915499429e-03
1.789588887222825359e-02,-3.204536055112193471e-02,-5.466600130651146430e-03
1.091771257341604857e-02,4.739218011058170255e-02,4.383808865497813151e-02
-7.739827737308822841e-03,1.163290449151873837e-02,-8.823844827642078961e-03
5.772911660782208826e-02,-1.559347217373220976e-02,-5.577121743368576579e-02
2.086744291259419806e-02,-4.492571492177253704e-03,-5.353138812876390845e-02
-4.179171727322748137e-02,-5.475111651943119495e-02,-4.329946966114596452e-02
-5.903771437711072267e-02,-3.684579817032479498e-02,-3.267898235270463164e-02
2.099621395047891401e-02,7.320109039579871489e-03,2.080815166692968898e-02
-2.633549964693661372e-02,-9.946738757566091216e-02,1.429859916788903118e-01
2.309916828938747210e-02,6.325896935942333654e-02,-1.699626514235250130e-02
-2.039869293345510093e-02,-3.315332231095053078e-03,-2.883139404247215404e-02
-5.071680660949528380e-02,3.036081023400411753e-03,6.396194748160695734e-03
-3.323148501930454218e-02,4.972067918231845574e-02,9.530081340635859505e-04
1.257050067874295081e-02,7.645478504411065690e-02,3.226268026457564803e-02
-1.472111030289917528e-02,-4.791417183732763624e-02,2.491932774631948691e-02
7.236099030472272452e-03,-5.632115234162744094e-02,-2.479015506633017521e-02
6.780074092023315700e-03,5.121075108741935528e-02,-5.888445166900296152e-02
-5.737355223528640968e-02,-2.234185830008099394e-02,1.843538669607468899e-02
-8.546047094163953736e-03,-1.283394602947458829e-02,-7.728864637870451991e-03
-5.659661457568915949e-02,-2.688216008505284194e-02,4.358467167336674448e-03
3.473521069148075707e-02,3.641748808649234587e-02,8.087432785820126979e-02
-6.578790576346853214e-02,-1.249256987960681298e-02,-9.622796244817226341e-02
-6.917713197112732026e-02,3.991208910460296994e-02,1.767628515421671570e-02
-3.220523279908917014e-02,2.411931817952331011e-02,-2.032844528622766017e-02
5.676193284861792698e-02,-5.986181360617504055e-02,-1.046710259730383383e-02
-9.347628379412020738e-02,-3.084919050009278605e-03,-3.294669882963198460e-02
-5.217379208570246257e-02,2.322210398935804776e-02,1.797098062410246166e-02
-1.921116020371831448e-02,2.718478566591448625e-02,-3.508748911558655370e-02
-2.939550900518790588e-02,-5.486898173603917822e-02,4.043088625971250072e-02
-4.085777610973520546e-02,-3.348278256355909088e-02,-4.317065112824167161e-02
-1.251405177689709873e-02,4.258251119700007248e-02,-5.108826048355374948e-04
-3.646906963439374566e-02,1.213824240705359443e-02,-8.131524882627634565e-02
1.019456124098389316e-01,1.124364938174619855e-02,3.272118863115548726e-02
1.305188938825988312e-02,-1.192927011110219045e-02,5.480077797602654621e-02
-1.357741528286614740e-03,-6.323760017097557141e-05,-3.654799604409558061e-02
-4.201077691844144063e-02,-2.456981566908090012e-02,3.698079021460985022e-02
4.434577644281556541e-02,4.747357975396409441e-02,-5.418409479556491465e-02
-7.139918146695528600e-02,-3.331631157876343338e-03,-1.183465723561571807e-02
-3.112748553645385691e-02,1.896009972938952209e-02,-1.015333794502313973e-02
4.406926771892528440e-03,-1.292817089045337348e-02,2.222275299693093203e-02
2.318218156767836227e-02,7.950453401808060469e-03,-1.543614529143382550e-03
3.392257359455918414e-02,-6.533508530644745183e-02,1.964625023422739147e-02
-1.773458718343936050e-02,8.668190523269474201e-02,3.589246449829698593e-02
2.862356648979218210e-02,-6.075375650268143718e-02,1.514384737131869475e-02
-6.928267271563214036e-02,4.026947417466227724e-02,-2.749523042583974786e-02
1.130153802501318236e-02,2.789563406761436451e-02,-6.429989157852011861e-02
-8.331292959203416906e-03,-2.085496361900147227e-02,1.436550933449200033e-02
-2.605246233754419244e-02,1.347862370230865775e-02,9.110334691661640949e-02
-8.791380417796245197e-03,-5.901036655024006344e-02,6.231267340576804314e-02
3.860985714872722241e-02,-3.278605899483050257e-02,1.629414753957110149e-02
-4.979649514853475706e-02,1.313595697606216063e-02,-1.256517962254459671e-03
-1.061315033311388892e-02,-3.065799061187717348e-03,1.310124303674035408e-02
-2.642548181955990325e-02,1.251451152776461746e-02,1.383160386203641061e-02
4.423076779220081606e-02,-4.048794158626888018e-02,-3.896575857290625333e-02
1.942889358076096626e-02,3.059508359414719533e-02,-3.594772957572254374e-02
2.611850255073153854e-02,6.440283129470403267e-02,2.576274512823799323e-02
-6.257468621187285696e-02,2.468439075472824568e-02,-5.674262139367883262e-02
-7.774402122745159571e-02,7.497144296647562101e-02,-9.645799942484378775e-03
1.506113323437031914e-02,-4.326188321548581940e-03,4.711816117086498057e-02
3.162483005698514538e-02,-5.752059501859885238e-02,2.849809065793728127e-02
2.590104987092540362e-02,6.320447770212840599e-02,1.350804984572476913e-02
7.941406109404555713e-02,-5.215014164191923013e-02,-3.303860847253387023e-02
-5.664654500389423170e-02,-5.849015256684304137e-02,2.832459824151142835e-02
3.261543634491344962e-02,2.109224393230634508e-03,1.435295363460861034e-02
7.959504378904655106e-03,-1.821957359204314300e-02,-2.082441203918302536e-02
2.055580707059498358e-02,-2.562545997182988020e-02,-7.421861818565550495e-02
-3.643295483258215256e-02,1.501949958262280282e-02,-5.957784258623755741e-02
2.692291694065673119e-02,-1.539199463938634681e-02,2.230242945504305047e-02
3.188063693173809332e-02,3.007092834093438166e-02,9.820755273327592960e-02
-4.058102401533059816e-02,-8.149171046362380100e-02,5.000113046352926832e-02
6.487801235745869512e-03,1.089823832144132428e-02,-5.190310524953398869e-02
-3.273848956640280222e-02,9.740047386038687416e-02,-5.612590171350161777e-02
-4.051602993908116901e-02,-3.668714606413903036e-03,3.282964123105869964e-02
-5.546064471851074734e-02,-2.507930151182204137e-03,-4.379143685599048985e-02
4.862531275472161373e-04,-6.486502689943762778e-02,4.630105766558281072e-02
5.790012378516572883e-02,3.401036710839817640e-03,-5.171161840256888187e-02
-6.604478672411970286e-02,1.354506373228804919e-02,4.841961831073449823e-02
1.123111811108217506e-01,-3.602045851544127819e-02,-2.816951627414212775e-02
-1.000092164875518441e-02,-1.288524302506151645e-02,1.035271327580053295e-02
-6.813485314601678243e-03,3.373758096239128784e-03,-3.130888064329249987e-02
-3.911986135383060254e-02,-6.295757841575676250e-02,-1.388817394843639419e-01
7.966254316943770578e-03,-3.966095378031601892e-02,-8.571095049409539757e-03
1.080779752166037555e-01,-6.082678829650382465e-03,-4.032320756267181172e-02
1.447379383447334154e-02,3.433736083721245381e-03,2.239601291020823677e-03
8.470795428633316748e-02,8.969252158563276178e-02,4.342671774433593847e-03
3.454057952782536856e-02,-5.795925129171639045e-02,3.352740337028928264e-02
1.197028616599415604e-02,-1.242363476440281993e-02,-5.312297138762696325e-02
5.778313439296369619e-02,3.311346360781686204e-02,1.553007471673317069e-02
1.118277076466010350e-01,2.977505993960660041e-02,-3.233996248326240219e-02
-3.779059452063576047e-02,6.701186241045374581e-02,-1.201536463540573904e-02
2.418427689997793614e-03,-1.206359679494849874e-01,-2.899946029987113261e-02
-3.420005554800886055e-02,-3.651806921955039198e-02,1.818853115640694726e-02
-2.781129162881914793e-02,7.863821142418958576e-02,-1.639733876553307879e-02
-4.671642121727157676e-02,-1.619237820184986007e-02,5.660818779759287100e-02
-9.555242045754723523e-02,-4.545769615184008100e-02,-8.797523849396635121e-02
-1.625431301260556183e-02,3.487977794293373179e-02,1.470905794817810482e-02
1.122312276077517823e-01,-2.306897522490914884e-02,-5.477990222270094633e-02
3.059020930671150357e-02,5.938901637469405750e-05,8.828653242424824854e-02
3.764680179286762629e-02,1.640778309657476425e-02,-3.567192524902282336e-02
-4.655212965520162780e-04,1.478005107004636692e-02,4.846416541357203081e-03
-1.452771380337881902e-03,4.754333415366425626e-03,1.306205692609061116e-02
8.974038375236741139e-02,6.058135922933054196e-02,4.646771673822656934e-02
-7.901247546864937146e-03,1.489600252568211783e-02,3.092212223630925322e-02
-4.532159214665975461e-02,2.802822175895256993e-02,2.563478386374382773e-02
6.067392214848644355e-02,2.325326809644817638e-02,1.704558925494936705e-02
-7.156664059682005252e-02,-6.607809246655869939e-02,-2.688731710806869027e-02
1.425275313933762819e-03,3.580454950494501437e-02,5.325445160926518817e-02
3.479366457800221746e-02,-4.791020773263279103e-02,3.405126107600607577e-02
1.287974416483620918e-02,-4.510270741373511444e-02,-6.645266908590580224e-02
4.517192190224477572e-02,1.021670790955340330e-02,-4.243542213480765157e-02
4.452476394206913296e-02,5.120278672698998224e-02,-1.649430597916383412e-02
-3.001386992398136569e-02,2.703909112798453737e-03,4.386371377211534250e-02
-5.907124322084220808e-02,1.732980807289130273e-02,-5.918563346018026333e-02
1.664666221871293622e-02,-4.392475567352228244e-02,2.356688697273582114e-02
-3.845447152336837343e-02,-2.874332629504677827e-02,8.204788156325108425e-03
8.692277358324602347e-05,6.642271059310429770e-02,1.587023613025538571e-02
-5.173238794738088675e-02,3.428972270381181603e-03,6.413773528747072905e-02
2.523715025786468606e-03,6.294638475875700967e-02,3.183567187257210079e-02
2.985313133256945264e-02,-2.772313967645697284e-03,-7.370274622056974083e-03
2.741873599400713665e-02,-4.933029259372538611e-02,6.219366078991549196e-02
-2.587795083160040858e-03,-5.200219045721989411e-03,2.434825124276830330e-02
-1.736369442908146030e-02,-3.650372353661358177e-02,-1.200418353373321548e-02
-3.602680925205119233e-02,5.721400576204380833e-02,-6.048274547833672882e-02
2.495587445723033981e-02,-1.099672849156173304e-02,-5.906373908097013736e-02
-1.284239394886515367e-02,9.532199941220096534e-03,-1.709763967871262558e-02
-7.841340140793458258e-02,7.615601802805208043e-02,5.317596414314950531e-02
5.929520090155623174e-02,2.832710087719189987e-03,3.230811182660481458e-03
-1.468391736023747819e-02,7.217675149086860698e-02,4.254304684014833908e-03
-6.246801282715432058e-02,-3.885959660715646025e-02,5.013685714447199682e-03
-5.505648032982541316e-03,-2.467957003775291328e-02,1.935031001243727247e-02
3.110422401326816758e-02,-9.627814697994644885e-03,2.533841462297999579e-03
-1.252633216893028409e-02,4.564654830385897477e-02,-2.684588974338780135e-03
-2.051606434257200601e-02,9.407807794589524708e-02,4.141013210043631432e-02
1.523815191308169024e-02,1.253377587109722746e-01,3.474688966685430397e-02
-8.920908570308996866e-02,2.667876820267890952e-04,-4.998705496103527518e-02
3.860464165743752313e-02,-2.435599002093681662e-03,3.307965579524534822e-02
1.667285602405145853e-03,3.401669791840602336e-02,1.706632134986871968e-02
5.558163640571425063e-02,-1.134565418392364244e-01,8.790090724388381627e-02
-1.530710095972444458e-02,-8.761044324391224769e-02,-5.043248921802412355e-02
-9.307130432392449193e-02,5.162635250287823940e-03,-3.791614547447701850e-02
6.739845189129774206e-02,-1.770951828001041117e-02,9.532458400322033065e-02
-3.039922674429952273e-02,1.575484693783410495e-02,-5.172065339536755652e-02
1.678231270692036314e-02,2.998075637032185034e-02,5.184328365750274364e-02
-3.581910069426524207e-02,4.400874429771144819e-02,7.849843140707297995e-02
3.087438679872045802e-02,-2.649822035070921455e-02,8.924462227649327534e-03
5.850745686836363729e-02,-4.638387586336017998e-02,3.441406405629826581e-02
1.541961691570027139e-02,-1.939820678482909047e-03,3.242242399908686068e-02
-1.327848153808954511e-02,-3.630135579858271427e-02,3.627976521962270745e-02
-4.927134359469515640e-02,3.257308816707792792e-02,1.661034855246515049e-02
-2.279008815149844921e-02,-4.620647195691508780e-02,-1.001622969816987757e-01
7.548400377810597292e-03,-2.449285419421699111e-02,-4.111420940551269859e-02
-6.316353380594894040e-02,5.562899801746922640e-02,3.318165801113266700e-02
3.265404553715445246e-02,3.268988315861784399e-02,5.266043287933141331e-02
-3.696235081240825671e-03,2.198862261527017789e-02,-2.627933179258542390e-02
-1.527166513109879699e-02,4.588773969452186047e-02,1.525081387872090702e-02
1.291623574722655654e-02,-5.373645953714394768e-02,1.250790926938714215e-02
5.399668593610805478e-02,7.229267872242346737e-02,4.793631216446984922e-03
-2.807019770245241380e-02,-2.376836760222991729e-02,-6.573587907868715108e-02
-4.570927238030813612e-03,4.805799623967658279e-03,7.567664763041132003e-03
-4.494461573731561160e-02,3.145964635967657234e-03,-5.171527843000896935e-03
4.066680527236141846e-02,1.351644865889103410e-02,-2.112446024146475212e-03
-4.070531902097002629e-03,-6.104433059110532522e-02,-1.485936794899142023e-02
-3.882398798159555908e-02,6.528716759158282625e-03,-1.034413846275481115e-02
7.507765450627313687e-04,-3.262639879811671945e-02,7.198920666031784210e-02
3.022902338555111257e-02,7.168275108402211160e-02,-4.510418565733409491e-02
3.601394856274225519e-03,-5.313686911109492816e-02,-7.075841140703972854e-02
8.509161012104922428e-02,-3.157109226767861043e-02,6.403567227016400409e-02
2.421307983641722561e-02,-8.618103975494387226e-02,1.239958113771531627e-04
-5.060777228020412605e-02,-5.012358239440504321e-02,-3.342176225485118252e-02
2.669889051215222284e-02,-1.419081408716009983e-02,7.702028491515118189e-03
3.620181442705185538e-03,-3.314644803953508551e-02,4.142946024077615876e-04
-3.549267424852536879e-02,-6.787460722844879113e-02,7.228067765718575698e-03
-1.260397568847466780e-02,7.112715027911065135e-02,1.958470418710918023e-02
-1.323602740780475441e-02,7.382122984763547259e-03,6.382940781564341859e-02
-6.688674578067226387e-03,1.650399741764837364e-02,3.548542182511318227e-02
-6.349423535074048830e-02,7.206510017036402626e-04,-7.330256519744791921e-02
-3.219173077563250440e-02,-7.099943122544085175e-03,4.664780195602524770e-02
-7.888168583391599875e-03,-2.059945870363419362e-02,-1.557585159700748852e-02
8.276178612817351038e-03,-2.901062100195841986e-02,-8.141202311216723386e-02
-2.443390010623776309e-02,-8.184541151015986560e-02,2.846870936395042712e-02
-4.441645689413342701e-02,4.787256005025470641e-03,-3.058314176188621850e-02
9.094664592369669509e-02,-2.430461033912206803e-02,3.214283197478012138e-02
3.143662197613816128e-02,-1.402867865755538096e-02,7.835321175532603986e-04
-5.658733389294898913e-02,8.887136520879702504e-05,2.314997289620040685e-02
5.034079252156878348e-02,-5.287284083104903248e-02,6.182256332247530045e-02
-7.287060162524293394e-02,2.414031109960895413e-02,-3.730685081434516326e-02
4.140039383881258250e-02,1.545620909426614724e-02,-2.878761774974254728e-02
-2.816533106069485717e-02,9.759189746279307853e-02,6.732976651958236247e-02
-1.142924283275599112e-01,3.730191649027209903e-03,4.192274922281823829e-02
1.796094124166057807e-02,1.840434369825945035e-02,-7.068080810290947209e-03
-1.724642817120729602e-02,1.634863665728615231e-02,-1.924331761645081337e-02
3.890164709679700197e-03,-2.099693565101389339e-02,-6.464587580481753748e-04
8.442375354374462293e-02,5.658366092435863914e-02,-4.359123219027510876e-02
-2.839155571215770321e-03,-4.935012791012971523e-02,6.370945270108685499e-02
-5.651082727457450855e-02,3.383481872890677089e-02,3.654971077588819311e-02
1.390142421100938868e-03,-2.404229804740916354e-02,-6.394742790603437366e-02
-1.365714581857982793e-02,6.101705908483863461e-03,4.572513223928313664e-02
6.622828158503796248e-02,9.096661241250129926e-03,-6.009334055958383963e-02
3.616227555486557083e-02,3.854777631882804097e-03,-4.284855139563976956e-02
2.949058716595832214e-03,-6.864632783022657503e-02,-2.123404466223980606e-03
8.370494218322329857e-03,3.566570008234726252e-02,6.376342997513274879e-02
-2.228827317028066884e-02,-5.172165947154695742e-02,1.626286237421681324e-02
-5.785296411750373048e-03,-5.573430712226453559e-02,-3.442926084998040176e-02
5.744193037292949847e-03,-3.592613370102869935e-03,5.311039262029172703e-03
-2.915922847947936131e-02,5.560602251428780132e-03,5.813091219218791822e-02
-1.357157169271919206e-02,3.581032013977957645e-02,-3.565178892116219883e-03
-4.067752243535549539e-02,-7.975121137053328702e-02,-5.602200339245939215e-02
-2.284570485466070819e-02,3.418790690533638627e-02,-5.615319148695918118e-03
-3.575989271292571298e-02,-2.533449455688286528e-02,7.598195447413455539e-03
1.634536468749533131e-03,3.113045061968905056e-02,8.692866977358422453e-02
-5.123019832397287393e-02,1.214341862287444777e-02,6.539475487459223482e-03
-3.422534787283081081e-02,-2.650515363787078055e-02,1.203056023849933820e-01
7.663970682140203161e-02,4.086265634666426394e-02,3.767234031350895351e-02
5.553828233281511706e-02,5.375387861001905410e-02,2.686299870366425091e-02
-2.716258120093932582e-02,4.805602830108650358e-02,1.387882371304188268e-02
1.187007212534495725e-02,4.697320962850439624e-02,3.876800070127190551e-02
6.804601832459632182e-02,-2.525985597539714619e-02,6.712011450913819670e-03
7.301505366828722364e-04,9.179296625715493291e-03,4.496347993149600597e-02
7.097438944856191735e-03,3.405916663402749206e-02,5.089482496943227574e-02
6.204214401951371749e-02,-7.941641583633411716e-03,1.841773438495917375e-02
5.957616958535263268e-02,-5.595672905655671436e-03,4.511456622263774335e-02
1.324690796438138252e-02,-3.965255932859561988e-02,-7.901864891164683824e-02
-3.325234975222579603e-02,1.166894369418128470e-02,9.507057663581610849e-03
2.164346366735143620e-02,-2.138280504198750154e-02,6.398761950473104421e-02
-5.193635524977503054e-02,-3.702333542205065581e-02,1.707928249394202042e-02
-4.831571970183064745e-03,3.246932181100831150e-02,1.159135894236047043e-02
1.400927203826443819e-02,-4.038794132255130870e-02,-7.681065328801939263e-02
-4.028337007283351590e-02,-4.956527065273633875e-02,-6.452772129093641007e-03
-4.909944513843036984e-02,-4.210989659002159491e-02,4.968336309883903540e-02
3.352438048839447016e-02,-6.033709676367793318e-02,4.738679673982633400e-02
1.548993466875172795e-02,2.189306862154231578e-02,3.368806639586576803e-05
1.379099586099658860e-02,-4.959867085856269064e-02,-1.396125024896908333e-03
3.835790032295035949e-03,-3.766765402336534618e-02,-2.862855192742658206e-02
-1.066905968642790740e-02,-1.340493633295104965e-02,5.178926137607438307e-02
-5.681573937000711921e-03,2.310620651688677363e-02,3.693802894712863716e-02
2.333092743504036962e-02,-3.580325233241395122e-02,1.602391519350323049e-02
-2.001317189903541877e-02,9.663983947955380460e-02,-8.069060482781105969e-04
-8.023522479692764275e-02,7.232080677007398165e-03,1.960127090637768868e-02
-6.433549596991940123e-02,9.349171346215894365e-03,1.191469360230108972e-02
3.710995487221965122e-02,-2.224532130215941313e-03,-8.448795579977175924e-03
4.059149715737351422e-02,2.671727344550756458e-02,2.644716479999668565e-02
-8.029687828889481294e-02,6.737443495635844770e-02,-2.905568563194195833e-02
5.703422894981736990e-02,-2.294117089315214977e-02,4.340249517782749505e-02
-4.832830728828587524e-02,1.488555140844987842e-02,-2.848375489651453277e-02
-2.401736305027948881e-02,-3.923133672803575528e-02,1.706059218514953055e-02
2.105935249757040842e-02,-1.543299779761982647e-02,-6.509949645848073230e-02
-7.374260246126132512e-02,-2.529917378926236499e-02,2.064559160195596904e-02
-6.197719573110639646e-02,-2.545838859440458651e-02,-2.646558278932241784e-02
-2.873170958907435985e-02,-3.652805756292269029e-02,-2.899933021144195707e-03
4.134416668914520782e-02,1.701901107614474037e-02,-7.389654805774015928e-03
2.318686029267177234e-02,-3.697174454400646570e-02,-4.908065221079843665e-02
2.948041366013426368e-03,5.675874219487516553e-02,-5.165610228816291949e-02
8.216776045002850692e-02,4.733075014198200731e-02,-3.426633976454407371e-02
1.072867149327570192e-02,3.231149240498801256e-02,-2.867756946134723817e-02
-1.093262999269226272e-02,5.879586843348279940e-02,-4.305771226736735541e-02
-9.714273709409160240e-02,-1.560943507319333991e-02,-1.431965623989501883e-02
-5.846651963030823768e-02,-2.058051930389324588e-02,3.193724333209096988e-02
-6.703164631859589995e-02,2.649275628468100718e-02,1.782219295359102965e-02
-1.130418769623109198e-04,5.704106077512658551e-02,2.586526718216697676e-02
-9.500279823864636597e-03,-2.758458743384429451e-02,4.137561945612563616e-03
2.043294467054144678e-02,2.538682559309433234e-02,-5.004264746302458655e-02
3.345151163195462379e-02,-8.236498957258926723e-03,-3.912784771836901737e-02
9.990009477309041985e-02,-1.313828210858679346e-02,5.491151384161335747e-02
1.099015062501107476e-01,1.155192313884305247e-03,4.866717941592579172e-02
1.707689630521288041e-02,1.773850688041153298e-02,3.914985866565436762e-02
-1.485138599392070609e-02,1.879025467596366281e-02,8.737298679646251717e-03
1.623805452256066317e-02,-1.138001497698841978e-02,-3.554515014327551403e-02
7.279473212416728845e-02,-1.409189974353717602e-02,5.733696857451744261e-02
-9.233428611104019246e-02,-3.104200804044349171e-02,-3.104765598413496488e-02
-8.130371039655859278e-03,3.695990711786849292e-02,-4.577165671379178173e-03
-5.151004189225131397e-02,2.672500504467912458e-02,5.166647196939975345e-02
1.982527347136573553e-02,1.814934681264708874e-02,2.395477885328202439e-02
-8.586255179232361043e-04,2.486790815856855172e-03,-2.098203460160658410e-02
4.435770267114703264e-02,-3.095662157195121569e-02,-4.445532386790553014e-02
-1.674172665243895894e-02,-5.694698916364714786e-02,-1.511006924834315361e-02
-5.842694731502921096e-02,-8.284050496582158474e-03,-3.200837956582160138e-02
6.307325030871237248e-02,3.068496034510373796e-02,4.196444737014217580e-02
1.828154654247574062e-02,1.291840606251745856e-02,3.116857220207017165e-02
3.423405903629159891e-02,3.359799874467523512e-02,-2.726032783094214929e-02
-2.762210276484105761e-02,2.261879485394836103e-02,1.555594537996810717e-02
-3.688464574811207292e-02,-3.558362797154938917e-02,-4.807523493314856677e-02
3.989151765407253358e-02,2.724093267070982691e-02,7.369780381800648816e-02
1.491635069929904077e-05,1.467406146709017596e-02,-2.448358159462933614e-02
-1.726905051415678072e-02,-6.721909167564049312e-03,6.688255085120134620e-03
-1.950319278115338062e-02,1.545331488401339645e-02,2.568970694909078131e-02
6.476412433267554614e-03,-1.682708928168621942e-02,-1.013608196367194597e-02
-2.596637949917350932e-02,-5.725872797101157208e-02,3.718478042887899543e-02
2.353863743857548957e-02,-1.779818309524199352e-02,-6.329540871823054193e-02
-1.781712315972697538e-02,-1.736186323839822299e-02,2.763105396843057796e-02
-3.837299304327433658e-02,-4.905133881187551809e-02,8.362828561928721538e-03
2.439004962642577629e-02,-4.495171213386624925e-02,-2.279684915534981038e-02
-1.545198541781635411e-02,-3.447601557417009216e-02,4.754731445925741706e-02
7.879568966304277555e-02,5.685379455899686185e-02,-2.562359426281638972e-02
8.535974779756959341e-02,-4.243555425464098224e-02,5.612476080253805955e-02
2.195380164935471778e-02,2.808951683098464408e-02,-1.477628493309077543e-02
3.027814676020636198e-02,-9.850126294276444205e-03,-6.203275123559355737e-03
1.033310223904163917e-02,-5.950105214260105468e-02,4.058011509840249442e-02
6.997685919849012948e-02,-1.836567356052538902e-02,8.964701415322717457e-03
3.068186974441689668e-02,-4.474489267366920514e-02,-2.472886349480402438e-02
-2.110839291505162488e-02,4.177772150426551159e-03,-3.959630966698936272e-02
-7.341047677242786874e-03,-8.021898578466388902e-03,-1.659959627925773271e-02
-7.741747428997901304e-02,1.324388254873153786e-02,5.096698991981567922e-02
5.644236493252317161e-02,-3.238568374795453616e-03,2.644958861354147067e-02
4.947479397761171509e-03,6.436406521719793827e-02,-1.672118193774481485e-03
-5.918989873336387431e-02,4.161029099372669932e-02,5.997415176734272740e-02
1.033763623339781570e-02,1.405986941406148910e-02,1.972903681029468392e-02
4.655484327583535309e-02,2.605318639330589728e-02,-1.033400733191448167e-03
1.739470897418810696e-02,-2.144127056593774991e-02,-6.731061979752903796e-04
-1.585365100428784424e-02,1.808857457827669699e-02,-2.295383080033286394e-02
7.684756531804283822e-03,-1.547783054804582718e-02,3.779943520012021829e-02
-5.633372799696832744e-02,4.750888559055218771e-03,-5.996476348011092750e-03
7.689633733995004938e-02,-3.719828509859814114e-02,2.608424763459088816e-02
-4.379153195809075416e-02,-2.363686765429112019e-02,3.168412761493678148e-02
1.067839682834749145e-03,-7.227801458533494872e-02,-7.862853967583528780e-02
-1.705069690059456480e-02,-7.511099425379167034e-03,2.426141253823507760e-02
5.030488154869464101e-02,-4.583791141750002962e-02,-1.478473622502522733e-02
1.581983158490778141e-02,1.953857530837250361e-02,-5.403321912927794984e-02
-3.243496605021559814e-02,-3.001738540198188934e-02,-4.300705015385285906e-02
6.279397217677940013e-02,-5.508117271576383478e-02,-4.225281175188319582e-03
-7.555187293299078788e-02,3.150809434395535763e-02,2.783753683944693164e-02
-4.257018576926854814e-02,2.593207025018842704e-02,-6.832006771265422551e-02
-6.527867646961996693e-03,-1.734221362753124093e-02,7.994336125566510465e-02
-5.263245825699242736e-02,1.890564407128016156e-02,-1.540611389377915391e-02
1.712767925208619896e-02,4.006548112625550606e-02,-4.589977936532094877e-02
-2.195503419477062151e-02,-5.548542159584505390e-03,4.020380213418595777e-02
-1.632408901263435533e-02,-6.447671603319028721e-02,-7.248945424359488909e-02
9.516934672600667333e-02,1.782587844701270493e-03,-1.390706099374878525e-02
-7.335983429608109417e-03,-1.126050158889192916e-02,2.925452979135000423e-02
-3.968657614735831424e-02,4.942550952341007164e-02,-5.717868051286403852e-02
1.015865324096427297e-02,4.876073674908301204e-04,-4.460031783244712729e-03
-7.540586053986990389e-02,-9.197374964627427762e-02,4.079594637481261110e-02
-1.579988877077155920e-02,1.157784669519943549e-01,3.283170676785047981e-02
-6.301657314412860422e-02,7.306021477040247798e-03,-2.152366954080614167e-02
-4.159253507455808185e-02,2.820396384699792522e-02,-1.470557348175936981e-02
1.555811897831382330e-02,-3.279748921301302994e-02,-1.587653552370469961e-03
-1.123785762256142157e-01,-5.485040543380853562e-02,-3.890049979746362102e-02
4.637178898716642211e-02,2.131732659871620611e-02,-6.404703220022336940e-02
-8.456202144059209126e-04,-4.347692190219988595e-02,-1.707045695981822958e-02
2.887644146380227358e-02,-3.069641757027261400e-02,-2.820084744963755746e-02
-6.167083099334862151e-02,1.850659347446418149e-02,-1.989856488675742149e-02
3.598505656708303295e-03,-1.970320549857705952e-02,-6.127116882657399066e-02
-2.405096197763221047e-02,-3.230629588108738931e-02,-1.063278081578670868e-02
1.554162240111643493e-02,7.275395303627318899e-02,-3.190596803433894818e-02
1.655602355051156993e-02,1.818764670892285620e-02,-3.594526997036069649e-02
-1.941514122063711222e-03,-5.757020122314129157e-02,8.272683525389462611e-02
2.810733448153203418e-02,-8.317178952407883186e-03,-1.928658352794892367e-02
2.253664253138792581e-02,-4.405923731521334263e-02,-1.033726234472280292e-01
-8.173376437277431183e-02,-3.823877544896612385e-02,-4.528185969267788796e-02
2.822669556923556103e-02,3.063577544845322992e-02,-4.820271666677970052e-02
-7.444064133123030891e-02,2.534885995789832452e-02,3.613581485139552574e-02
1.055361781612351724e-02,-5.595343346311368316e-02,1.311155605916430357e-02
7.120530543871611724e-03,-1.207831171396109120e-02,-4.199888261682208079e-02
4.719446885661231217e-02,-1.228067914969247290e-02,-4.970549452517104838e-02
5.120986195821324721e-02,3.560762204059395031e-02,7.162143254029649901e-03
-1.154358178577064437e-01,-5.490901141081200310e-02,-7.482090564124352361e-02
-1.878982894055661063e-03,1.067283145327761404e-02,-4.908953355665311713e-02
6.081263191551311217e-03,-1.910664397704732453e-02,2.516487734104227644e-02
-7.432593613938898169e-02,-5.394536082244381914e-02,1.079616900274772522e-02
-2.141944753145929789e-02,-1.105474425568830389e-02,-2.502967129793574538e-02
4.457788067688898959e-02,-2.892037965171091393e-02,-2.920133856324397953e-02
4.499124569365873377e-02,-1.923991885778851552e-02,-2.335228844950973381e-02
4.614150487855255695e-02,-7.468948211167499018e-02,2.148764733250984292e-03
-2.182969877611606532e-02,-1.011387439675136626e-02,-1.374503942234729832e-02
-5.813687104656612564e-02,-6.612415079993055889e-02,-2.004680990473178132e-02
-3.849972112432099164e-02,2.663220380625070174e-02,-4.659081636925858916e-02
-8.329837865949164810e-02,1.984273219047488421e-02,8.896393521268819438e-02
6.041706454939534815e-02,7.100978262082289875e-03,-3.260646613056349813e-02
-3.061238876725257477e-02,-3.350982979593467720e-02,-2.624721359319004757e-02
1.357256512571283248e-02,-5.771206332004012729e-02,-3.888908439841420178e-02
-3.764364783059970243e-02,6.736096587404919421e-03,3.669513539111639994e-02
-3.048462959607250305e-02,-6.257169965855668980e-02,7.107653017256250483e-02
-4.613582956955035452e-02,-8.924696858157664045e-03,-4.405981310185159289e-02
1.781524494327730267e-03,-2.985740134513534174e-03,1.418484710933317836e-02
1.581196635792331620e-02,-2.213025825168678587e-02,-1.592809258549977500e-02
-1.657612223425030187e-02,7.982366081854600642e-03,2.587822884548666297e-02
1.308916488143519255e-02,-5.970843007895878379e-02,6.198911813408026356e-02
-1.358837572914358971e-01,-1.714098953883540916e-02,3.693437207574504721e-04
-6.116497504730812607e-02,2.338336623180607352e-02,-4.307770641197135320e-02
1.831797013700049021e-02,3.389742786653681533e-02,-6.129152883332286000e-02
9.477365807513935675e-03,-6.320090023863114692e-02,-4.428851868134293934e-02
-5.815026825035535252e-02,-3.506744402918220149e-02,1.874666138235579066e-02
1.215748829739360035e-02,-1.270990672179248687e-02,-1.237252541958012118e-02
-9.354216314687283443e-03,8.506543861197457188e-03,3.707376222595408499e-02
-3.700302503788911040e-02,3.206393589676268668e-02,-2.504338212165818645e-02
4.233111076786041926e-02,-4.010492634522019872e-02,2.190035042494703401e-03
-7.293940840808632413e-03,-1.640348674875895599e-02,3.953871351967627040e-02
7.381947030195729065e-02,3.308450401337135333e-02,-3.941646939155919738e-02
9.341236198016375503e-02,-1.130228840604582431e-02,-2.062767053989900123e-02
-6.443357978620162241e-02,-2.041831736574110240e-02,-5.666940598288922742e-02
3.290269897117260173e-02,5.864738249258422131e-02,-4.285828381089905326e-02
1.755137307124747525e-02,-7.419852758061679099e-02,-2.496683004978164644e-02
5.496365870544245996e-02,-4.355408415894931884e-02,6.376266662559458044e-03
6.269400785111060859e-02,1.170979143178835051e-02,1.575768931979807178e-02
1.184864157755845162e-03,-5.002055614701936964e-03,-3.252435029223593038e-02
2.279389999764999328e-02,-2.688454009398669187e-02,5.431887994884226217e-02
-1.300233286394138731e-02,-2.273372844402097442e-02,-6.461340841849306724e-03
-4.131911427834855481e-03,1.131594076247953266e-02,-2.516902207430307334e-02
-2.439728125702235809e-02,9.216641098274270041e-03,3.897034114602634935e-02
3.613421784836535339e-02,-4.110188132630336263e-03,2.334591953597241892e-02
2.031253960804467462e-02,-6.556279684381112471e-02,-5.296663946678705978e-03
7.025699681443206383e-03,1.106174637736913845e-02,1.316380523564031867e-02
2.426014382019476417e-02,7.266796658023814970e-02,-6.546359460251237328e-02
-4.443209336495882594e-02,-7.568144310390136076e-03,4.048047778554041132e-02
-5.647951637830173760e-02,-1.170519814183603596e-02,-6.384112629591361110e-02
-3.225217038684995846e-02,6.157991143329107769e-02,3.910613643736674167e-04
2.347645833668898785e-02,-3.716820999844686665e-03,-3.251113859617765778e-02
3.320882054857966087e-02,7.019123415647804398e-02,-3.287481332734680517e-02
-4.232410769506343706e-02,-6.447673924403442280e-02,-4.728683170125788648e-02
2.836678694454421168e-02,-5.299772130445271068e-02,1.684357416145721223e-02
-5.996697148927130662e-03,-1.495148987455388427e-02,-4.364988271612983695e-02
-2.420717531950537793e-02,2.349730604685594179e-02,-4.647605644457923624e-02
5.968882859411181116e-03,-5.797758777912121603e-02,-2.075280871937415159e-02
1.121920871219615895e-01,-5.848594519501006811e-03,-1.649724397148771143e-02
-2.080061666693194117e-02,4.287031518086114462e-02,6.586592861870240595e-03
-1.470841806337729041e-02,1.477102546651365596e-02,-8.912870281233876979e-02
-7.606762640051868696e-02,2.156726032195358661e-02,-1.791907249395650187e-02
5.011921387571623837e-02,-4.255224866940450490e-02,2.766265224091683100e-02
6.599871417823867381e-02,-7.071477559746588114e-03,-4.649973348014097528e-03
3.777170210827222180e-02,2.841751216262879826e-02,-1.406121551345763075e-02
-4.930443724810306023e-03,3.666793140888105484e-02,-2.524138078492287399e-02
2.299702929181868596e-02,-5.055389746432652903e-02,-5.056128825270143207e-02
-1.875021992206105798e-02,5.949087261847772756e-02,-8.615817831734698048e-03
-8.986169225287386417e-03,-1.856231006976503603e-02,-1.025270444217010329e-01
-7.632830569112656477e-03,8.372514272797450599e-03,-3.313763356745565158e-02
2.615107878490666171e-02,6.665903498819288758e-03,2.805049113823408768e-02
6.440561367732820786e-02,7.487203430978627353e-03,-6.258566602844924109e-02
-2.515455319138691290e-02,2.665246062906672514e-02,-1.643334517240665343e-02
3.827896347607016858e-02,3.125428134772426786e-02,-6.844341402265250937e-03
-3.071597762735509864e-03,-3.829544340581685080e-02,3.577288969860185908e-02
-4.952999285547005082e-02,1.532799650615766437e-02,4.755124838583569408e-02
2.322538175630895624e-02,-5.595762939038637085e-02,2.725819965375488388e-02
3.553109748403689150e-02,-1.780735855842268019e-03,4.825532884052642635e-02
8.159259105696167400e-03,4.806527400969171082e-02,-5.057652712213386512e-03
1.360843967643986761e-02,-2.588528130698947508e-02,6.177302696495624856e-02
-6.261041984867858623e-02,3.005690532881628678e-03,-1.423004260628788105e-02
-4.270604792626366691e-02,-1.194011462266843411e-02,3.062308812341034414e-02
-2.711778082906057125e-02,-1.474568690370262405e-02,8.779845566003776497e-03
-5.546501898447933621e-02,-3.522646850015691278e-02,1.411011500746526919e-02
-1.394251410917488748e-02,-1.490248188962938272e-02,5.413610041936500750e-02
3.343965642014169737e-02,-2.888922661485742935e-02,4.008052863992853793e-02
-1.961131075127129156e-02,4.282512136428698237e-04,5.873934735540869458e-03
7.423306297417486821e-02,1.383088101106341380e-02,-1.558261498349465882e-02
-2.984201828746668728e-02,-4.143257045180089027e-02,6.532017556282618265e-02
1.507890615486961669e-02,-2.255795943241227855e-02,6.784630683994091749e-02
1.191629726060239730e-01,2.209335175666433948e-02,8.280144890134424418e-04
-2.563298326988309311e-02,-4.147870823407032170e-02,1.014575122979689348e-03
1.343721374585644772e-02,1.583778167942129916e-02,1.627713657579406975e-02
-8.679201648188068774e-02,1.064742950549674022e-01,8.332361253331975470e-02
-1.151967348177232973e-02,-1.218834474662152875e-02,4.942278309626598615e-02
-3.474058777589909136e-02,-3.405649701955951181e-02,2.502462415302502893e-02
-4.345146311132394579e-02,2.565310627738068283e-02,3.305917795125968336e-03
-8.964468894002956476e-03,-9.310073923370710061e-03,-5.698993328296118183e-02
-6.726691633644356350e-02,1.808809354461498459e-02,1.497670372168121572e-02
2.276161420086612527e-02,1.011517803532373944e-02,-2.949730549001404467e-02
6.416119698732757060e-02,-2.162343055140871287e-02,7.500817549782817784e-02
-3.373086069138693521e-02,1.538654668202456624e-02,6.631879994956796885e-03
-3.572099426741652539e-02,1.730807077870153560e-02,3.627002595432372162e-02
-6.921265341208132638e-02,3.782362653521961077e-02,-6.340608765552227521e-02
-2.779728077959597952e-03,-7.856649422911744785e-02,-2.952083617470105045e-02
-5.283266036908453034e-02,-1.081047143658944720e-01,2.881005600693525154e-02
