# IMU数据（从gnss-ins-sim转换）
# 坐标系: NED（北-东-地）
# timestamp gyro_x gyro_y gyro_z accel_x accel_y accel_z
# 单位: s, rad/s, rad/s, rad/s, m/s^2, m/s^2, m/s^2
0.000000 -0.0005112111 -0.0000410554 -0.0008010970 -0.0043998175 -0.0104174217 -9.8010106874
0.010000 0.0004860351 0.0007611576 0.0000338003 -0.0046458383 0.0071191673 -9.8031951604
0.020000 0.0007570269 -0.0003820112 0.0004791012 -0.0003945880 -0.0048501303 -9.7939740395
0.030000 -0.0009714529 -0.0004187347 0.0002837666 -0.0088689298 -0.0006838981 -9.7991346490
0.040000 -0.0004249359 0.0002359515 -0.0000564603 0.0032566543 -0.0001286497 -9.7949126798
0.050000 0.0010791575 -0.0005736686 0.0006673942 -0.0012479328 -0.0089641252 -9.7884755756
0.060000 -0.0007815985 -0.0017467142 0.0007652221 0.0036496633 -0.0058571552 -9.7920443611
0.070000 0.0005284581 -0.0001049776 -0.0005687726 -0.0057948879 -0.0036473433 -9.7976169412
0.080000 -0.0000007653 0.0001647109 0.0003281164 0.0054706330 0.0008824668 -9.7983177435
0.090000 0.0010533560 -0.0003864218 -0.0001060555 0.0026026417 -0.0052690026 -9.7951325443
0.100000 0.0011317399 0.0007235251 0.0004519626 0.0002483791 -0.0051328093 -9.7972582493
0.110000 -0.0004493911 -0.0002367704 -0.0004203969 -0.0065576172 -0.0004637150 -9.7867519156
0.120000 -0.0000216023 0.0005522535 -0.0006551050 -0.0004143797 0.0036830126 -9.7916932479
0.130000 -0.0004652666 -0.0012846511 -0.0006225805 0.0012824017 -0.0030778678 -9.7930045393
0.140000 0.0008783675 -0.0005608665 -0.0002878379 -0.0047370438 0.0000863117 -9.7878659600
0.150000 -0.0001155557 0.0004527031 0.0004138510 0.0012766464 0.0013668365 -9.7970014777
0.160000 -0.0002248970 0.0012841590 0.0002242459 0.0018757904 0.0073131816 -9.7994298010
0.170000 -0.0017007166 0.0002920519 -0.0003180218 0.0022620343 0.0012536319 -9.8025068901
0.180000 -0.0007887993 -0.0000673167 -0.0009564671 0.0002888265 0.0033680771 -9.7949748167
0.190000 -0.0004632076 -0.0008427232 -0.0014925191 0.0057524682 -0.0007807663 -9.7918530745
0.200000 -0.0012793097 -0.0006995661 -0.0004355559 -0.0051027671 0.0013204822 -9.8002509215
0.210000 -0.0004066625 0.0000719797 -0.0000574697 -0.0035037914 -0.0012406447 -9.7973335515
0.220000 -0.0000430267 -0.0008992860 0.0001428045 -0.0009045111 -0.0008421098 -9.8025469059
0.230000 -0.0022241564 0.0007565150 -0.0005609820 -0.0000393778 0.0030774261 -9.7864075106
0.240000 -0.0015158824 0.0002175561 -0.0004557752 0.0064997725 -0.0006818696 -9.8027893350
0.250000 -0.0007916646 0.0009182626 0.0003909710 0.0013171846 -0.0010890206 -9.7898011263
0.260000 -0.0014010798 0.0003357420 -0.0002731697 0.0042261137 -0.0039151620 -9.7910722149
0.270000 -0.0013080175 0.0005381987 0.0000967754 -0.0009614452 -0.0065676493 -9.7917581974
0.280000 0.0009050263 -0.0014900618 -0.0000201958 -0.0034747520 -0.0017516527 -9.7968079880
0.290000 0.0005373220 -0.0003545361 -0.0004543373 -0.0019251207 0.0026532299 -9.7987839465
0.300000 0.0008839592 -0.0005116780 0.0002289534 0.0056466539 -0.0008108718 -9.7910573440
0.310000 0.0002495103 0.0005807058 0.0007300235 -0.0039125852 -0.0094414850 -9.7928408752
0.320000 -0.0005021167 0.0018671524 -0.0010145692 -0.0005805007 -0.0118754520 -9.7937324202
0.330000 -0.0016693389 -0.0001834684 0.0007796406 -0.0053755432 -0.0090959466 -9.7884691361
0.340000 0.0007172858 -0.0001435131 0.0009608146 -0.0125424808 0.0009709454 -9.7883999855
0.350000 0.0005814122 -0.0009356029 -0.0006246524 -0.0038233867 -0.0027065258 -9.7978629402
0.360000 -0.0000584259 -0.0001653136 0.0013785926 0.0100379999 -0.0024986671 -9.7964696703
0.370000 0.0011662082 0.0003074979 0.0000678254 0.0008826810 0.0009802744 -9.8042498652
0.380000 -0.0001670757 0.0007267736 0.0000614654 -0.0007697644 -0.0081158872 -9.8038001321
0.390000 -0.0015225021 0.0005565858 -0.0009645181 0.0031940943 -0.0051483366 -9.7906313835
0.400000 -0.0006114316 -0.0003159774 0.0001597951 0.0002984968 -0.0042663757 -9.8077346385
0.410000 -0.0002613916 -0.0009326546 -0.0007954358 0.0065114421 0.0014948396 -9.8004674347
0.420000 0.0006481403 0.0006670631 -0.0001944025 0.0024352968 -0.0025075278 -9.7962337026
0.430000 0.0011218687 0.0000720653 -0.0000272775 -0.0037067914 0.0008351034 -9.8031935725
0.440000 -0.0019064243 0.0000320200 -0.0004240180 0.0013865149 -0.0048268221 -9.7910776871
0.450000 0.0003205081 0.0003566002 -0.0000065882 -0.0034499965 0.0002256785 -9.7970243418
0.460000 -0.0001310691 0.0005182946 0.0001596312 0.0034110558 -0.0049037745 -9.7845914518
0.470000 0.0000991862 -0.0003624293 0.0006303741 0.0057273731 0.0059496307 -9.7950097100
0.480000 0.0017163421 -0.0003183749 0.0000774641 0.0047295966 0.0055260073 -9.7847185753
0.490000 -0.0010295379 0.0001575448 -0.0009851681 0.0009939923 0.0094574691 -9.7988755654
0.500000 -0.0001498736 -0.0010954810 -0.0004876425 -0.0000715056 -0.0007679276 -9.7961569588
0.510000 -0.0002461695 -0.0004453777 -0.0003199451 -0.0036121700 0.0018012639 -9.7879448421
0.520000 -0.0008348595 -0.0002231990 -0.0007377189 -0.0101878147 0.0044827941 -9.7911590627
0.530000 -0.0009890390 0.0000754503 0.0001578547 0.0012949517 -0.0008705779 -9.7926026564
0.540000 0.0004245143 -0.0001328519 -0.0011213819 0.0068336027 -0.0035541335 -9.7859440265
0.550000 0.0013469727 0.0004796372 -0.0016858906 -0.0006259761 -0.0026856515 -9.8039009194
0.560000 0.0004431361 0.0001367772 0.0006100693 0.0058125722 -0.0003722269 -9.7954121335
0.570000 -0.0006674953 0.0006498253 0.0003565397 0.0005892336 0.0061938671 -9.7933217739
0.580000 0.0003199686 0.0006570032 -0.0005095362 -0.0041381550 -0.0029758840 -9.8007854161
0.590000 0.0010408380 0.0006915912 0.0007393325 -0.0004676650 -0.0039032790 -9.7943172583
0.600000 0.0001016571 0.0005474815 0.0004416917 0.0009714902 -0.0049656765 -9.7911900327
0.610000 -0.0007013165 -0.0014499674 0.0005481056 0.0014720957 -0.0000744934 -9.7915853981
0.620000 -0.0007627327 -0.0006843816 -0.0010131146 -0.0009890112 0.0000170177 -9.8003025477
0.630000 0.0008798173 0.0008163288 0.0010530512 0.0008503747 -0.0078677277 -9.7965093597
0.640000 -0.0000894786 -0.0002828783 -0.0008784397 -0.0039240659 -0.0017771801 -9.7932589146
0.650000 -0.0007907124 0.0004974963 0.0005591682 0.0063545137 0.0034659487 -9.7897377177
0.660000 0.0008566025 0.0002933614 -0.0005336908 -0.0005124293 -0.0038060367 -9.7940345177
0.670000 -0.0006414550 0.0000756320 0.0004480355 -0.0006556196 0.0051081560 -9.7958851084
0.680000 0.0001986617 -0.0012678310 0.0001938898 0.0027502373 -0.0055096996 -9.7946430684
0.690000 -0.0006529841 0.0001719251 0.0009829601 0.0060630469 -0.0073936374 -9.7961785060
0.700000 -0.0008311508 0.0002705412 -0.0005134750 -0.0078619443 -0.0049430993 -9.8050312868
0.710000 0.0003044941 -0.0005450819 -0.0000780776 0.0006788764 -0.0065829116 -9.8062985877
0.720000 -0.0004173779 -0.0000971765 0.0002148585 -0.0040445185 0.0086050491 -9.7914176539
0.730000 0.0002814986 0.0000769942 -0.0005495115 -0.0012842731 0.0009224183 -9.7967523313
0.740000 -0.0005300339 0.0001203515 -0.0001306009 0.0032886257 0.0041719766 -9.7975288009
0.750000 0.0009139189 0.0002785420 -0.0002840120 -0.0007652750 -0.0019897247 -9.7935006082
0.760000 -0.0000994049 0.0010770250 0.0004314664 0.0050159757 -0.0025462785 -9.7930859845
0.770000 -0.0008243234 -0.0000820176 0.0000559506 -0.0031515245 -0.0076290309 -9.7945348730
0.780000 -0.0004661301 0.0012405402 0.0003757319 0.0033777887 -0.0000491397 -9.7962396137
0.790000 0.0007404476 0.0001777115 0.0002826959 0.0052502761 -0.0034703965 -9.8042161061
0.800000 0.0009599353 -0.0000432287 0.0002825774 -0.0009527949 -0.0019215106 -9.7950911492
0.810000 -0.0002581176 -0.0000275044 -0.0006507863 0.0078455548 -0.0042208230 -9.7953539987
0.820000 -0.0000762420 0.0007216953 0.0011502193 -0.0070988577 -0.0077536746 -9.7972113126
0.830000 -0.0008232860 -0.0004335254 -0.0002471321 0.0028474392 -0.0055148165 -9.7907537942
0.840000 0.0008501500 0.0004408207 -0.0010844654 0.0013673513 -0.0059812016 -9.7803080449
0.850000 0.0002141251 -0.0003615874 -0.0004875102 -0.0012027067 -0.0035417354 -9.7888434731
0.860000 0.0008970154 -0.0010050016 -0.0006085043 -0.0087891824 0.0033572972 -9.7975494208
0.870000 -0.0000630617 0.0004144855 0.0002778327 0.0010943428 0.0038603944 -9.8024891797
0.880000 -0.0013586621 0.0001020384 -0.0000180130 0.0034477032 0.0019605659 -9.7868576091
0.890000 0.0003331232 -0.0003802645 -0.0001921320 -0.0080407402 0.0029897781 -9.7900738128
0.900000 0.0006475282 -0.0000066571 -0.0010511329 -0.0000411279 -0.0004063926 -9.7942453925
0.910000 0.0011588088 -0.0003926698 -0.0004192271 0.0028651405 -0.0011210322 -9.7947330730
0.920000 -0.0006367822 0.0000731418 0.0009394494 0.0054836833 0.0091915686 -9.7881869975
0.930000 -0.0006700814 -0.0003180474 -0.0002083499 0.0008274659 -0.0002469365 -9.7921717749
0.940000 0.0003639259 0.0001753099 0.0011951339 0.0012759080 -0.0031292305 -9.7887243423
0.950000 0.0000041596 -0.0015076129 -0.0000410821 -0.0112624357 -0.0035497293 -9.7892887082
0.960000 0.0008690515 -0.0004643361 0.0007571891 -0.0054684774 0.0013229972 -9.7977859604
0.970000 -0.0000976079 0.0007921515 -0.0013517438 0.0026259726 0.0047116237 -9.7973163600
0.980000 0.0001854572 0.0000691151 -0.0001421039 -0.0096168904 -0.0001733960 -9.7950235889
0.990000 0.0006373087 0.0006932581 -0.0018303580 -0.0012708031 0.0045077772 -9.7967080892
1.000000 -0.0000510973 0.0004410075 0.0001287745 0.0001139862 0.0012952909 -9.7935608039
1.010000 -0.0003460121 -0.0005366250 0.0001961657 -0.0064268238 -0.0027231425 -9.7961673314
1.020000 0.0004629339 -0.0005348313 0.0010188408 0.0018078966 -0.0005720934 -9.7956947579
1.030000 0.0002738005 -0.0008756189 -0.0001940140 0.0007326789 -0.0114047781 -9.7854464250
1.040000 -0.0008418890 -0.0004328283 0.0003126337 -0.0104752323 0.0043797534 -9.7991735565
1.050000 -0.0001324810 -0.0002694066 0.0003831443 0.0079016261 -0.0030919023 -9.7986426361
1.060000 -0.0017659639 0.0001066382 0.0006295653 -0.0032924395 0.0103458427 -9.7902456049
1.070000 -0.0007999906 -0.0007031547 0.0007129578 -0.0015779642 -0.0043079255 -9.7933311326
1.080000 -0.0007576698 -0.0008170655 0.0001888167 -0.0059077943 0.0140303085 -9.7967444955
1.090000 0.0000111209 0.0001386633 0.0000117993 -0.0049990708 -0.0021082807 -9.7901572962
1.100000 -0.0001416595 -0.0002126303 -0.0000453302 -0.0036742400 -0.0004120431 -9.8048054424
1.110000 -0.0009931447 -0.0011840808 -0.0008206113 0.0005289550 0.0056730550 -9.7958762112
1.120000 -0.0007327699 0.0005649868 0.0002114253 0.0034072665 0.0000489971 -9.7928068014
1.130000 0.0003959447 0.0004151205 -0.0006817909 0.0033654125 -0.0058291604 -9.7957411078
1.140000 -0.0000912695 0.0003064672 0.0006779555 -0.0039341246 0.0059306720 -9.7975645711
1.150000 -0.0002120165 -0.0011379076 0.0003248700 0.0004219914 -0.0024199852 -9.7975385790
1.160000 0.0011348913 0.0005819748 -0.0000063478 -0.0054295105 -0.0033878094 -9.7942788945
1.170000 -0.0003310091 0.0012241186 -0.0001897828 0.0044537053 0.0100748865 -9.7962527334
1.180000 -0.0007534620 0.0001634956 0.0014093542 0.0054166762 0.0099617537 -9.7846127724
1.190000 -0.0001242419 -0.0010123529 0.0013523379 -0.0036472007 0.0044842331 -9.7964626852
1.200000 0.0000974370 -0.0000971023 0.0006275851 0.0014427127 -0.0000474023 -9.7866222235
1.210000 -0.0006436952 0.0009933967 -0.0011229004 0.0012649845 -0.0035655275 -9.8038676119
1.220000 -0.0006029777 0.0000373766 0.0004367312 0.0085711553 0.0072632453 -9.7957311420
1.230000 -0.0003476401 0.0007840177 0.0000240521 0.0037388339 -0.0043348867 -9.8008381116
1.240000 0.0012050915 0.0005806536 -0.0012505201 -0.0008498311 0.0001029523 -9.7989635156
1.250000 -0.0017766333 0.0017127012 0.0000965599 0.0000249249 -0.0004906454 -9.7883456665
1.260000 0.0005582451 -0.0000396936 -0.0001297345 0.0059216328 0.0062223825 -9.7978940899
1.270000 0.0017001931 -0.0004556770 -0.0007117790 -0.0027851383 0.0033100894 -9.7916048636
1.280000 0.0002497318 -0.0011969249 0.0003650470 0.0007961971 0.0066005195 -9.7851721033
1.290000 -0.0004203220 -0.0001170248 0.0008493151 0.0032232605 0.0011508811 -9.8019701250
1.300000 0.0013733465 -0.0001488887 0.0000041969 0.0039216749 -0.0030793816 -9.7925071707
1.310000 0.0003214198 -0.0009790185 -0.0012094448 0.0015010347 0.0035889071 -9.7926228122
1.320000 -0.0001154200 -0.0005286125 -0.0014827180 -0.0000091318 -0.0034781225 -9.8012869237
1.330000 -0.0006378866 0.0008030419 0.0016649673 -0.0098687194 -0.0029515113 -9.7900686768
1.340000 -0.0006056246 0.0009528317 0.0001480802 -0.0069352914 -0.0023229167 -9.7827067023
1.350000 -0.0000488246 -0.0006600117 -0.0004484143 -0.0004166995 -0.0102778096 -9.8035894949
1.360000 0.0006703832 0.0005026140 0.0005715071 0.0021848452 -0.0029934408 -9.7905013956
1.370000 -0.0000268613 0.0002266062 -0.0009262554 0.0102268259 -0.0078959942 -9.7979856444
1.380000 0.0000016034 0.0004393553 0.0010040641 -0.0001210543 -0.0051569348 -9.7987232088
1.390000 -0.0001375378 0.0001452436 0.0010011920 0.0021499506 0.0079069047 -9.8000253073
1.400000 0.0003808415 -0.0004127398 0.0002586970 -0.0023239974 -0.0053471092 -9.7921270362
1.410000 0.0007906289 -0.0001283958 0.0010743201 0.0057063435 0.0058001226 -9.7947723230
1.420000 -0.0003866265 0.0002563293 -0.0003909783 -0.0020693966 0.0086789330 -9.7997915514
1.430000 -0.0000854414 -0.0010468186 0.0005377575 -0.0008921806 -0.0018449638 -9.8033799867
1.440000 0.0008615017 -0.0001270659 0.0006422206 0.0102292123 -0.0015699340 -9.8075854961
1.450000 0.0006764144 -0.0002736931 -0.0003320502 0.0044684521 0.0044876683 -9.7999350856
1.460000 -0.0006959288 0.0001174129 -0.0006603438 0.0041063504 0.0050998321 -9.7828894578
1.470000 0.0002040174 -0.0007809067 0.0011304977 0.0020533993 0.0022562750 -9.8046094781
1.480000 0.0002642784 0.0013016679 0.0012498305 -0.0036173677 0.0058317885 -9.7966953383
1.490000 0.0000977595 0.0005923579 -0.0007586723 -0.0004022890 0.0065555870 -9.7927552419
1.500000 -0.0009305891 -0.0012049303 0.0006932016 -0.0034968909 0.0004520603 -9.7896219086
1.510000 0.0011850414 -0.0011567028 0.0013950174 0.0037198420 0.0118419722 -9.7973407728
1.520000 -0.0000741435 -0.0002890768 -0.0004901672 -0.0036324243 0.0080405077 -9.8008594593
1.530000 0.0005975673 -0.0004260760 0.0009872621 -0.0062198875 -0.0088079602 -9.7929390689
1.540000 0.0010070759 -0.0009142051 0.0005178911 0.0064585293 0.0020539580 -9.8057314406
1.550000 -0.0002502576 0.0003336622 -0.0003412341 0.0018255541 -0.0021354877 -9.8014273233
1.560000 0.0004235346 -0.0010691018 -0.0005197133 -0.0090302112 -0.0017155075 -9.7923311741
1.570000 -0.0011213860 -0.0010063470 0.0004511574 -0.0052720241 0.0007237758 -9.7937453889
1.580000 0.0000786811 0.0005831794 -0.0004579129 -0.0035950537 -0.0052287880 -9.7972706645
1.590000 -0.0001961834 -0.0013368557 -0.0008635335 0.0035980887 0.0013735271 -9.7932358801
1.600000 0.0003123285 -0.0006861580 -0.0004857656 -0.0016712291 0.0016839912 -9.7974099685
1.610000 0.0003644529 0.0007800684 0.0004353383 0.0085659793 0.0085150005 -9.7971309442
1.620000 0.0000764013 0.0015424565 -0.0016197648 -0.0027411471 -0.0089503876 -9.7944556526
1.630000 0.0002500132 0.0001951163 0.0003202525 -0.0064315993 -0.0008759790 -9.7919704579
1.640000 0.0000392058 0.0002327263 0.0005337133 0.0074566081 0.0002109065 -9.7914604920
1.650000 0.0002613097 0.0003585925 -0.0013557462 -0.0015470414 -0.0005143853 -9.7975622285
1.660000 -0.0004227260 0.0004119057 0.0000271161 0.0118815559 0.0055792073 -9.7902124764
1.670000 -0.0007045265 -0.0005577078 -0.0006251425 0.0011201429 -0.0011695959 -9.8008858658
1.680000 -0.0000045501 0.0003054468 -0.0005648348 -0.0035941197 -0.0034972286 -9.7997255167
1.690000 0.0010414501 0.0002616432 -0.0007048401 0.0031748544 0.0095034509 -9.7989632651
1.700000 -0.0008732421 0.0010778302 -0.0012653576 0.0038180401 0.0070475300 -9.7988966285
1.710000 0.0013492988 -0.0011146409 -0.0010025064 0.0000418260 -0.0062307167 -9.7931574600
1.720000 -0.0000404498 0.0002712341 0.0008025894 -0.0013878552 0.0027425363 -9.7940908361
1.730000 -0.0006623229 -0.0011130722 0.0016126468 -0.0055834045 -0.0046536347 -9.7945949731
1.740000 0.0003097667 -0.0005773537 0.0013940926 -0.0015234616 0.0087461718 -9.7963065587
1.750000 -0.0018187221 -0.0000117063 -0.0003892371 0.0010506626 -0.0032633350 -9.7969939476
1.760000 0.0006817110 0.0004820515 -0.0007167820 -0.0021890006 -0.0055729210 -9.7932497905
1.770000 0.0001479587 -0.0009444277 0.0008489614 0.0002405372 0.0034386259 -9.7936518845
1.780000 -0.0003916738 0.0001702742 0.0010626615 0.0037032537 -0.0000321284 -9.7900348605
1.790000 -0.0006648518 -0.0005776148 0.0000864062 0.0039237720 -0.0012407689 -9.7966528963
1.800000 0.0010801752 -0.0000475574 -0.0001068408 0.0054788849 0.0021083413 -9.7987663030
1.810000 0.0000927682 -0.0000860710 0.0001925615 -0.0042219203 -0.0073820355 -9.8025831869
1.820000 -0.0006409797 0.0009645149 0.0006106728 0.0007292810 -0.0000343337 -9.7896287258
1.830000 -0.0012166101 -0.0003799378 0.0002607245 -0.0005303482 -0.0054147371 -9.7956889653
1.840000 0.0005604738 0.0000601147 0.0002417680 0.0024115897 -0.0161438459 -9.8025150912
1.850000 0.0001131919 0.0004860804 -0.0006531326 -0.0010014103 -0.0009073143 -9.7989991446
1.860000 0.0007547491 -0.0000335960 0.0001157099 -0.0000537537 0.0028505723 -9.7951190121
1.870000 0.0015404937 0.0005050297 -0.0003911897 0.0013624374 0.0043284074 -9.7953246327
1.880000 0.0007901812 -0.0001018869 -0.0006787743 -0.0004778592 -0.0008055930 -9.7919421353
1.890000 -0.0008279849 -0.0005864160 0.0007722634 -0.0024477748 0.0064893204 -9.7948018963
1.900000 -0.0000522539 0.0010482225 -0.0004278176 0.0053679126 -0.0051025081 -9.7998038861
1.910000 0.0007056907 0.0003400836 -0.0002629552 -0.0011489990 -0.0011493296 -9.7995789448
1.920000 -0.0016879202 -0.0001639228 0.0004452147 0.0051306797 -0.0003489401 -9.8022488376
1.930000 0.0015161228 -0.0001292176 -0.0002848213 0.0028480073 0.0083907302 -9.8017383419
1.940000 0.0004440240 0.0007665700 -0.0012976216 -0.0010132160 0.0043994323 -9.7962032334
1.950000 -0.0012379792 -0.0007312373 0.0001431744 -0.0008321624 0.0036846358 -9.7939303421
1.960000 -0.0005201001 0.0007194596 0.0005677239 0.0015461870 0.0031716199 -9.8017053200
1.970000 -0.0005278587 0.0002112647 -0.0002341315 -0.0008848303 -0.0018357953 -9.7936938340
1.980000 -0.0001239657 0.0006546932 0.0006270689 0.0022474402 -0.0104901366 -9.7921612493
1.990000 0.0000929949 0.0009662139 0.0008095891 0.0044352343 -0.0067674533 -9.8088109870
2.000000 0.0010396635 -0.0005493156 -0.0005862478 -0.0026978690 -0.0073716943 -9.7997013315
2.010000 -0.0004287018 -0.0010597659 0.0005473656 -0.0024841365 0.0053743499 -9.7975110029
2.020000 -0.0012417880 -0.0000031021 0.0009438748 0.0012292848 -0.0024937868 -9.7889288429
2.030000 0.0007227289 0.0005351074 -0.0001774981 -0.0047714532 0.0012480524 -9.7869440638
2.040000 -0.0002559037 0.0000569525 0.0007023629 0.0030743193 0.0028640284 -9.7922480991
2.050000 0.0007001040 -0.0002298028 0.0014730792 0.0022740958 -0.0047345818 -9.8019050414
2.060000 -0.0004297670 -0.0002478891 -0.0002086785 0.0006056026 0.0021389120 -9.7930803313
2.070000 0.0003247818 -0.0012046789 -0.0003959195 -0.0013556066 0.0035701828 -9.7960334240
2.080000 0.0003558375 -0.0001788201 0.0005151949 -0.0073147028 0.0022383152 -9.7982857082
2.090000 0.0001408252 0.0009382188 -0.0002210975 0.0082893726 0.0007775304 -9.7948155896
2.100000 -0.0006271441 0.0001881680 -0.0005821550 0.0026839656 0.0037566261 -9.7992700559
2.110000 0.0008024676 0.0009531355 0.0007034678 -0.0013924543 0.0040015203 -9.7960895992
2.120000 0.0000743091 0.0011598564 -0.0004618722 -0.0069567277 0.0005433340 -9.7853695511
2.130000 -0.0002743396 -0.0000348802 -0.0007441012 0.0015114517 0.0024951132 -9.7950524664
2.140000 -0.0001687921 0.0010224906 -0.0001015103 -0.0114609743 -0.0051683147 -9.7994901559
2.150000 -0.0017784472 0.0002158011 0.0006734266 0.0023863893 0.0074641702 -9.7898416430
2.160000 0.0012761936 0.0008772460 -0.0002861765 -0.0060102591 0.0012831992 -9.7944068105
2.170000 0.0009086629 -0.0009636288 -0.0006238888 -0.0085211327 0.0027392915 -9.7912472996
2.180000 -0.0001980106 0.0007036998 -0.0000292630 -0.0001281074 0.0063351883 -9.7850409433
2.190000 0.0009699427 -0.0007765319 -0.0009586416 0.0018059795 -0.0083215613 -9.7953833581
2.200000 0.0002236441 0.0001113329 -0.0000060980 0.0071025476 -0.0011924860 -9.7999744685
2.210000 0.0006847493 0.0004000042 0.0000163161 0.0030603258 -0.0024828013 -9.7944175049
2.220000 0.0005536945 -0.0005276816 -0.0003604135 -0.0068039294 0.0038166047 -9.7988768427
2.230000 0.0002080780 0.0003696033 0.0008003467 -0.0048534552 -0.0056430040 -9.7984149072
2.240000 0.0008711491 -0.0000660809 -0.0000745045 -0.0037565739 -0.0048916533 -9.7910999507
2.250000 -0.0008870368 -0.0004699899 -0.0019224046 0.0128693329 -0.0013305182 -9.8003570454
2.260000 0.0006434609 -0.0013349466 -0.0002736984 -0.0015686718 -0.0043927203 -9.7948598708
2.270000 -0.0002265311 0.0006178521 0.0006719270 -0.0064185889 0.0020390016 -9.7894803669
2.280000 0.0012436260 -0.0000113886 -0.0007876613 -0.0086915438 -0.0018560779 -9.7967824932
2.290000 0.0011553199 0.0012034501 0.0003678410 0.0030192334 0.0009267729 -9.7994531539
2.300000 -0.0018076248 0.0015926059 -0.0001078053 0.0011343378 -0.0015431090 -9.7938901832
2.310000 -0.0001452114 0.0001841559 -0.0006731139 -0.0079364075 -0.0016086420 -9.7856644049
2.320000 -0.0008142322 0.0005685274 -0.0012584462 0.0041655140 -0.0001359496 -9.7906405639
2.330000 0.0002428514 0.0008254842 0.0004517290 -0.0073085651 -0.0037051733 -9.7930152261
2.340000 -0.0005203529 -0.0007991562 -0.0007962192 0.0048315050 -0.0010845090 -9.7957520906
2.350000 -0.0001347747 0.0003384158 0.0004376990 0.0008362952 0.0000050257 -9.7876924428
2.360000 0.0014537438 -0.0003422954 0.0001755496 -0.0041839750 -0.0099182956 -9.7976054410
2.370000 -0.0010042747 0.0002525903 0.0003351582 0.0011724610 0.0073145864 -9.7918309547
2.380000 -0.0008030280 -0.0000930907 0.0002246767 -0.0011475520 0.0005142962 -9.7946545331
2.390000 -0.0004556456 0.0006001581 -0.0006492780 -0.0025875098 0.0040860763 -9.7941837988
2.400000 -0.0002638777 0.0017655519 -0.0006201824 -0.0097690127 -0.0006317540 -9.7911553836
2.410000 -0.0003118647 0.0010184213 0.0001643877 0.0000620501 0.0005424534 -9.7933902748
2.420000 -0.0011166930 0.0002348375 0.0000015844 -0.0069319094 0.0005233563 -9.7911850027
2.430000 0.0000375131 0.0005648080 -0.0007863130 -0.0021366900 0.0099872312 -9.7876585186
2.440000 -0.0001083629 0.0002888349 0.0003659228 0.0014881771 0.0029317620 -9.7923975092
2.450000 0.0003588612 -0.0004409250 -0.0008674690 0.0046799787 -0.0035689077 -9.8003341955
2.460000 0.0004149271 -0.0000630246 -0.0000924261 -0.0065446457 -0.0044717936 -9.7907297009
2.470000 -0.0007673388 -0.0004640932 0.0011068187 0.0035996559 -0.0002435223 -9.8008074581
2.480000 0.0006191081 -0.0009873028 0.0005133312 0.0051042880 0.0108653476 -9.7923781482
2.490000 0.0001548193 0.0000818512 -0.0014839856 -0.0051755818 -0.0049944572 -9.7921134310
2.500000 0.0008580136 -0.0002685818 -0.0002636627 0.0002607618 0.0000366222 -9.7928656575
2.510000 0.0004562314 -0.0008589530 -0.0004947417 0.0014532770 -0.0007417418 -9.7949970343
2.520000 0.0002603611 0.0002512530 -0.0000094770 0.0072760116 -0.0040969337 -9.7914519457
2.530000 -0.0000155055 0.0001914850 -0.0008638837 0.0047260263 0.0015187568 -9.7941576229
2.540000 0.0000566748 -0.0012911748 0.0010825007 0.0005312757 0.0082180110 -9.7991453146
2.550000 -0.0014600334 0.0001768895 -0.0005839268 0.0024183017 0.0059244025 -9.7996846514
2.560000 0.0008965830 -0.0002609126 -0.0007708253 0.0089253926 -0.0072895285 -9.7953731821
2.570000 -0.0004668856 -0.0000747222 0.0006066045 0.0027723784 -0.0031339148 -9.7914887057
2.580000 -0.0003026972 0.0009616970 -0.0003914824 -0.0012474354 -0.0008999625 -9.7905793995
2.590000 -0.0000845068 -0.0002431034 0.0002904090 0.0067160860 0.0028805125 -9.8004527379
2.600000 -0.0000794384 -0.0005921138 -0.0001829098 0.0053826635 -0.0015969398 -9.7959525893
2.610000 0.0001356733 -0.0002248300 0.0007666608 0.0073143383 0.0043598852 -9.7982723239
2.620000 -0.0002514505 0.0002488948 0.0000756439 -0.0020722526 -0.0055547362 -9.7960132031
2.630000 -0.0001355430 0.0002307145 -0.0004976837 -0.0080395295 0.0047655832 -9.8005962135
2.640000 -0.0004383313 0.0005487922 0.0011365915 0.0060353418 0.0049233728 -9.7963685106
2.650000 -0.0003092761 0.0003790801 0.0003994514 0.0023370063 0.0020746267 -9.7933141135
2.660000 0.0005814531 0.0002284704 0.0003386255 0.0010660700 -0.0027726729 -9.7947979937
2.670000 -0.0016099864 -0.0005948763 0.0014976172 0.0060232909 0.0015674066 -9.7915034928
2.680000 -0.0004924660 -0.0003784918 0.0003203166 -0.0036293247 -0.0016298420 -9.7851634662
2.690000 0.0005718254 -0.0009706476 0.0007780711 0.0021322448 0.0034653382 -9.7919287053
2.700000 0.0006540763 -0.0010071059 -0.0004094944 0.0001806404 0.0000662170 -9.7948348209
2.710000 -0.0003580844 -0.0001498374 -0.0005370501 -0.0030932870 0.0029350312 -9.7893590132
2.720000 -0.0007078196 -0.0003406670 -0.0007977738 0.0044720649 -0.0054897524 -9.7973934701
2.730000 -0.0016419242 -0.0000560972 -0.0006610300 0.0040125286 0.0001449694 -9.7943095181
2.740000 0.0001211397 0.0003411340 0.0003028654 -0.0029681318 -0.0002982704 -9.7970438488
2.750000 0.0001880105 0.0000703393 0.0008247189 0.0079197231 -0.0059791328 -9.7929479632
2.760000 -0.0010168810 0.0007463942 0.0000108933 0.0028340726 0.0040752846 -9.7865279607
2.770000 -0.0008705339 -0.0005469899 -0.0002624471 -0.0027576175 -0.0002264963 -9.7956478819
2.780000 -0.0010420836 0.0016340229 0.0002297515 0.0089025296 0.0045704454 -9.7974177874
2.790000 0.0004283792 0.0014102085 0.0002794464 0.0009815158 -0.0020414155 -9.7964909196
2.800000 0.0004541841 -0.0004766621 -0.0004173845 0.0031115125 -0.0096956766 -9.8024484316
2.810000 0.0007636198 0.0004653899 0.0002309824 0.0022152469 -0.0021830224 -9.8009578129
2.820000 -0.0003607917 0.0005375419 -0.0005072125 -0.0046677697 0.0006601985 -9.8031000610
2.830000 0.0009042927 0.0005440629 0.0010331729 -0.0046129742 0.0092773984 -9.7917681964
2.840000 -0.0009921953 0.0010681675 0.0001019926 -0.0072345301 -0.0045413312 -9.8018805882
2.850000 -0.0012896523 -0.0002364903 0.0005956214 0.0053805790 0.0011594132 -9.7954162057
2.860000 -0.0006115652 0.0006108831 0.0007942758 -0.0022462921 0.0056548365 -9.7928763825
2.870000 -0.0005547747 0.0014426242 0.0003880630 -0.0003519473 0.0042601606 -9.8018300191
2.880000 -0.0001708203 0.0006495461 -0.0011582523 0.0009204829 -0.0069793302 -9.7927967933
2.890000 0.0002899909 -0.0003006470 0.0003343474 0.0030520872 0.0030690160 -9.7970929939
2.900000 0.0000381832 -0.0010299895 -0.0000842737 0.0021485871 -0.0079649388 -9.7966783734
2.910000 -0.0000432236 0.0004722151 0.0004477170 0.0078161054 0.0066118419 -9.7987647586
2.920000 -0.0003522671 -0.0012256674 0.0007473739 -0.0078318038 0.0088687009 -9.7910323393
2.930000 0.0001851866 0.0020931279 0.0009973026 -0.0023501106 -0.0029176702 -9.7919403878
2.940000 0.0007900405 0.0012256139 -0.0002212484 -0.0120959991 -0.0059916438 -9.8018341323
2.950000 0.0009189876 -0.0001143940 -0.0008765033 -0.0046972213 0.0056349347 -9.7895601908
2.960000 0.0015350224 0.0003519037 0.0011194320 0.0039892402 -0.0047856062 -9.8012821955
2.970000 0.0008003172 0.0007132568 -0.0007691284 0.0068306812 0.0035559356 -9.8046395158
2.980000 0.0006946491 -0.0004380220 -0.0003675256 0.0023033787 0.0076322495 -9.7950935726
2.990000 -0.0001812637 -0.0003909692 0.0000098217 -0.0049936578 0.0020709582 -9.8012141707
3.000000 0.0003177191 0.0000978261 -0.0004795603 0.0008830257 -0.0073101652 -9.7831233794
3.010000 0.0008379442 0.0014938235 0.0006030227 0.0055201171 0.0046213243 -9.7987219938
3.020000 0.0004957200 0.0007775469 -0.0002633376 -0.0026725642 -0.0047487679 -9.7907012060
3.030000 -0.0003057636 0.0011049750 -0.0009254930 -0.0062291012 -0.0083120099 -9.7986619839
3.040000 0.0012159437 -0.0005062342 0.0010737649 -0.0015460976 -0.0081987312 -9.7980349153
3.050000 -0.0004275789 0.0004242711 -0.0005688477 -0.0105741412 -0.0072308839 -9.7954087111
3.060000 -0.0004724408 0.0010640420 -0.0000448683 0.0016151069 -0.0011698743 -9.8002076302
3.070000 -0.0005134757 -0.0005655860 -0.0010710659 -0.0022940287 -0.0015944209 -9.7983831313
3.080000 0.0009030777 -0.0000121549 0.0003396041 0.0049633066 0.0066157169 -9.7921501239
3.090000 0.0014248274 0.0003195349 -0.0002357253 -0.0013980377 0.0058148585 -9.7967485001
3.100000 0.0000927895 0.0003772529 -0.0007816136 -0.0045486279 0.0036947671 -9.7970101855
3.110000 0.0001082354 -0.0002241280 -0.0004701398 -0.0024214438 -0.0009653277 -9.7931148918
3.120000 -0.0002075940 -0.0003297423 -0.0013927348 -0.0059646409 -0.0006904592 -9.7900652074
3.130000 0.0011032795 0.0003438216 0.0009220585 -0.0004157120 0.0036571332 -9.7973654919
3.140000 -0.0005721336 0.0003923483 0.0009992566 -0.0035915669 0.0030473495 -9.7924283612
3.150000 0.0006610677 -0.0005895963 -0.0013377501 -0.0025883961 0.0018524087 -9.7922426705
3.160000 -0.0001192429 0.0005541137 -0.0004251053 -0.0059886393 0.0079894210 -9.7903073757
3.170000 0.0000996080 -0.0004880338 -0.0003337713 -0.0012792973 0.0021020708 -9.7984854537
3.180000 -0.0007048738 -0.0007133752 -0.0007503067 -0.0079591994 0.0039640881 -9.8030424984
3.190000 0.0003652518 0.0004951648 -0.0005611184 -0.0020337027 0.0053977130 -9.7996097061
3.200000 -0.0004991322 -0.0001404139 0.0006269449 -0.0001293194 0.0107920001 -9.7968252679
3.210000 0.0016755009 0.0004185080 -0.0002641267 0.0010005305 0.0082064386 -9.7964141452
3.220000 0.0002293528 -0.0003076386 0.0002558396 -0.0059127404 -0.0015718627 -9.7943969594
3.230000 0.0002460900 0.0009107135 0.0009531012 -0.0064425910 -0.0066278444 -9.7905070305
3.240000 0.0003143503 0.0008161944 0.0006483719 0.0010642621 0.0054448041 -9.7981742972
3.250000 -0.0006915269 -0.0000350959 -0.0009837116 -0.0016905298 0.0131233690 -9.7932979377
3.260000 -0.0002548522 -0.0001603860 -0.0002449996 0.0023830459 -0.0016411606 -9.7999029474
3.270000 0.0010698760 -0.0002848346 -0.0003815004 -0.0057720253 0.0043303221 -9.7886655616
3.280000 0.0005415462 0.0014843131 -0.0016850745 0.0049695497 0.0007643727 -9.7851307056
3.290000 -0.0000210875 -0.0002424702 0.0001938104 0.0036471693 0.0022506963 -9.7932702040
3.300000 0.0008241462 0.0001962220 -0.0009724746 0.0014191260 0.0010657413 -9.7922431314
3.310000 -0.0016075498 -0.0002286894 -0.0011583532 -0.0064442642 0.0025093672 -9.7915147520
3.320000 0.0002502004 -0.0013103818 0.0000101443 0.0011692354 0.0018149749 -9.7969057425
3.330000 -0.0012894899 0.0004995402 0.0004408116 0.0025004913 -0.0065258457 -9.7981666538
3.340000 0.0009184455 0.0007371100 -0.0006662233 -0.0013337963 -0.0036285212 -9.7990218054
3.350000 -0.0004018272 0.0006993081 0.0004674719 -0.0073348745 0.0089158016 -9.7873081904
3.360000 -0.0001824081 0.0003874553 0.0000496003 0.0094283881 -0.0057161977 -9.8024444237
3.370000 0.0015759246 0.0002888215 0.0014015461 -0.0039886376 -0.0032535270 -9.8009634120
3.380000 -0.0008064419 -0.0010932015 -0.0002601345 0.0001571126 -0.0053266606 -9.7887704829
3.390000 -0.0018821313 -0.0017259074 0.0009457647 -0.0040700285 0.0011847460 -9.7952854303
3.400000 0.0000537369 -0.0003449224 -0.0009797624 -0.0080321711 0.0058766195 -9.7903831307
3.410000 -0.0003439886 0.0001895115 0.0002979248 0.0073960094 0.0018094906 -9.8001880959
3.420000 0.0009726449 -0.0009879064 -0.0010704740 0.0017010488 -0.0014933756 -9.7914104859
3.430000 -0.0003735396 0.0005352201 -0.0004284614 0.0028878283 0.0008190431 -9.8012469031
3.440000 -0.0001188253 0.0000877352 0.0004183829 -0.0039919702 0.0015231657 -9.7924561486
3.450000 0.0007726503 0.0002790279 -0.0005566690 0.0026744312 0.0017959843 -9.7906070481
3.460000 -0.0001566977 0.0007584472 -0.0008628749 0.0051099705 0.0062366369 -9.7942747101
3.470000 0.0001170737 0.0010748389 0.0012438328 -0.0009964291 0.0043750668 -9.7907948169
3.480000 0.0013385563 0.0006329930 -0.0003810654 0.0017283742 -0.0066764292 -9.7986527923
3.490000 0.0004883238 -0.0005833537 -0.0015595932 0.0107568150 0.0002243716 -9.7862181997
3.500000 0.0017930525 0.0005123910 -0.0011921662 0.0005936566 0.0014812347 -9.7954745305
3.510000 -0.0002612595 0.0012778905 0.0001920759 -0.0009945622 -0.0014476420 -9.7963330770
3.520000 -0.0000722778 0.0000744955 0.0006828086 -0.0085406662 -0.0156234720 -9.7941783049
3.530000 -0.0002565992 -0.0007480716 -0.0001820672 -0.0055600780 0.0019197538 -9.7887255344
3.540000 0.0021473358 -0.0021580236 0.0000029903 -0.0022128302 -0.0098822748 -9.7876779369
3.550000 0.0005376654 0.0013446481 -0.0003949283 -0.0024335952 -0.0017901912 -9.7938930294
3.560000 0.0000485951 0.0008391702 0.0007731798 0.0034480213 0.0021527973 -9.7929028550
3.570000 0.0004766162 0.0006414555 0.0001717917 -0.0032820758 -0.0044677953 -9.8000039512
3.580000 0.0008201238 0.0010553660 0.0003946453 0.0014551174 0.0000202936 -9.8040334076
3.590000 -0.0004945343 -0.0005948415 -0.0015547210 -0.0004698171 -0.0003247571 -9.7877249667
3.600000 -0.0010902816 -0.0001635905 0.0002108807 -0.0133422719 0.0054367497 -9.8070940766
3.610000 -0.0012201881 -0.0001741739 -0.0008821012 -0.0088948933 -0.0032131798 -9.7958479882
3.620000 -0.0011508395 0.0010090905 0.0003852135 0.0025344322 0.0047396656 -9.7956875318
3.630000 0.0003777367 0.0003121248 0.0000854406 0.0023431065 -0.0001824132 -9.8012583634
3.640000 -0.0004103042 -0.0001855363 0.0001267135 0.0008164500 0.0022694032 -9.7868107816
3.650000 0.0005052803 -0.0003409631 0.0006461511 -0.0059186604 0.0053321429 -9.7924703634
3.660000 -0.0003598261 0.0002324287 -0.0000325921 0.0080324982 -0.0035026539 -9.7928698706
3.670000 -0.0008407371 -0.0006970573 0.0004650677 -0.0023961390 -0.0050988603 -9.8013732973
3.680000 -0.0017795540 -0.0002002031 -0.0010248093 -0.0022416131 -0.0095485336 -9.7858738604
3.690000 -0.0004242206 -0.0003645208 0.0009351706 0.0014811313 0.0002943776 -9.7895291155
3.700000 -0.0009446546 -0.0006667176 0.0005027053 -0.0012016796 0.0020436343 -9.7931823382
3.710000 0.0004118814 -0.0001285294 -0.0010387277 -0.0023383806 -0.0004706061 -9.7929341830
3.720000 -0.0004166235 0.0010836358 0.0000615406 -0.0029480495 -0.0084437646 -9.7947919996
3.730000 0.0001098404 -0.0002467042 0.0002002173 -0.0036728160 -0.0044370187 -9.7943967500
3.740000 -0.0007924004 0.0007509890 0.0009735389 0.0030346900 0.0033100962 -9.7947635297
3.750000 -0.0001556173 0.0002391599 0.0002341289 0.0046174957 -0.0044686084 -9.7961036344
3.760000 -0.0004136323 -0.0004084759 -0.0012539798 -0.0093337421 0.0108772914 -9.7901791535
3.770000 -0.0006177096 0.0005910335 0.0007051360 -0.0026976901 -0.0038136671 -9.7944632953
3.780000 0.0002068830 -0.0003134257 0.0005167632 0.0036111222 0.0017328830 -9.7958634900
3.790000 -0.0010070321 0.0002395968 0.0005179937 0.0050541107 -0.0015390786 -9.7948151113
3.800000 0.0008725763 -0.0000774273 -0.0000602317 0.0089885799 0.0047605672 -9.7983134220
3.810000 -0.0000610271 0.0000757518 -0.0018691912 0.0006934613 0.0038369372 -9.7937166151
3.820000 -0.0003708209 0.0010968432 0.0000697533 -0.0000323205 0.0008248514 -9.8030634152
3.830000 0.0007461391 0.0001448135 -0.0007242289 0.0025692197 0.0024513695 -9.7873122967
3.840000 -0.0010472812 0.0005731786 0.0000352805 0.0064778579 -0.0023039708 -9.7897865089
3.850000 -0.0000217818 -0.0019580125 -0.0006887779 0.0052220926 0.0087405478 -9.7931674947
3.860000 -0.0002224297 0.0005615457 -0.0001499372 -0.0058902829 0.0018483427 -9.7985629004
3.870000 0.0004911898 0.0003643406 0.0004815789 0.0093246407 -0.0067846956 -9.8033442546
3.880000 -0.0006462719 0.0001915117 0.0000591515 -0.0005787023 -0.0110027126 -9.7932446099
3.890000 0.0003446693 0.0006483035 -0.0002767316 0.0055496914 0.0031581280 -9.8042834809
3.900000 0.0000162034 -0.0009531654 -0.0003726239 -0.0054448128 0.0026689239 -9.8034666038
3.910000 -0.0015818165 0.0019318887 0.0000065025 -0.0003610455 0.0045429442 -9.7863133388
3.920000 -0.0003058109 0.0004188613 0.0009031773 -0.0101144764 -0.0100518211 -9.7878394723
3.930000 -0.0003027443 -0.0008510703 0.0005317417 0.0068049233 -0.0029802952 -9.7867644443
3.940000 0.0015894969 -0.0003471150 -0.0005992311 -0.0011123102 -0.0020382063 -9.7937669728
3.950000 -0.0013569255 0.0003960166 -0.0002928195 -0.0021855190 -0.0048533334 -9.7933132577
3.960000 -0.0007981799 0.0000258585 0.0001695798 0.0092148701 -0.0126388594 -9.7973342344
3.970000 -0.0005902017 0.0011652616 0.0000396391 0.0033348410 0.0001032627 -9.7902807116
3.980000 0.0003800548 0.0011127351 -0.0007797536 0.0068176396 -0.0046288767 -9.7852098486
3.990000 -0.0008902222 0.0009149604 -0.0009038379 0.0078049582 0.0029928153 -9.7946679322
4.000000 0.0011677056 -0.0007717623 0.0017621540 -0.0027896172 0.0044873941 -9.7851775109
4.010000 0.0017434390 -0.0016638247 -0.0010883341 0.0040103183 0.0071065191 -9.7978140821
4.020000 0.0002447714 0.0011458584 -0.0006237608 -0.0054857918 -0.0005332188 -9.7827911606
4.030000 -0.0004272179 0.0014940220 0.0001386953 -0.0027214086 0.0010024502 -9.7946974108
4.040000 0.0015355964 -0.0006584388 -0.0004593339 0.0046424205 0.0066121256 -9.7908448730
4.050000 0.0001554900 -0.0000016241 -0.0006332929 -0.0008082912 0.0067774308 -9.8026376751
4.060000 -0.0005756916 0.0000472985 0.0003036272 0.0028455797 0.0003533978 -9.7903676747
4.070000 0.0003703941 0.0018301072 0.0005965973 0.0011799473 0.0004839255 -9.7899515111
4.080000 0.0002579926 -0.0003551295 -0.0005166375 0.0027671473 0.0039684587 -9.7930950272
4.090000 -0.0000605275 0.0001954056 -0.0014697197 0.0002021354 -0.0011962866 -9.7966770371
4.100000 -0.0006650222 0.0011083469 0.0009674887 0.0022314475 0.0044700201 -9.7941591181
4.110000 0.0003883765 -0.0003861573 -0.0014251990 -0.0004190350 0.0053767143 -9.7938990113
4.120000 -0.0003620033 -0.0000356560 0.0019673806 -0.0010682555 0.0036626401 -9.7915658298
4.130000 0.0004259214 -0.0005824507 -0.0013239923 -0.0038831076 0.0004860777 -9.7955740046
4.140000 0.0000383465 0.0006238972 0.0009337338 -0.0079462227 -0.0116382201 -9.7961939971
4.150000 -0.0004814227 0.0006879246 -0.0004781849 -0.0069877298 -0.0014271724 -9.7967994450
4.160000 0.0003109583 0.0001689111 -0.0001822010 -0.0067177370 -0.0065294139 -9.7921390405
4.170000 0.0007355708 0.0007940108 -0.0000207041 -0.0074490182 -0.0031804600 -9.7956441532
4.180000 -0.0001602101 0.0010204296 0.0007891885 -0.0060945255 0.0003325742 -9.7984250031
4.190000 -0.0003276483 -0.0005976963 0.0009154728 0.0002405542 -0.0009916398 -9.7823125328
4.200000 0.0001423402 -0.0001026025 0.0001941290 0.0025369156 -0.0052816074 -9.7963681074
4.210000 0.0009886399 0.0012636726 -0.0001032297 -0.0042304232 -0.0001013595 -9.7992333735
4.220000 0.0012096335 -0.0010860086 0.0017437713 -0.0048132178 -0.0064364697 -9.8013403749
4.230000 0.0008508732 -0.0004544422 0.0008047036 -0.0040600340 -0.0031144043 -9.7909661881
4.240000 0.0007192011 0.0002586988 0.0004765752 0.0008833388 0.0035209800 -9.7994020002
4.250000 -0.0001859024 -0.0004004857 0.0005028967 0.0011884854 0.0026494947 -9.7957006245
4.260000 0.0008477225 0.0001564906 0.0002016746 -0.0027544276 -0.0102465560 -9.7954165274
4.270000 0.0010842132 0.0003498731 -0.0005293735 0.0044838908 -0.0004507087 -9.7887606295
4.280000 0.0001275111 -0.0000250021 -0.0012932276 -0.0058731725 -0.0000225515 -9.7912615571
4.290000 -0.0001273949 -0.0011802815 -0.0015190178 -0.0037079912 -0.0058619611 -9.7887594148
4.300000 -0.0001601374 0.0007065916 0.0004978853 -0.0013763960 -0.0018092312 -9.7914278733
4.310000 0.0007206229 0.0003191279 -0.0002795834 -0.0010149706 0.0056197667 -9.7937076880
4.320000 -0.0004488563 -0.0008016172 -0.0005717351 0.0033797355 -0.0024056730 -9.7921456543
4.330000 0.0003427777 -0.0000111411 0.0001479437 -0.0047032495 -0.0040901148 -9.7958555448
4.340000 -0.0001131227 -0.0001643231 -0.0000026236 -0.0091161090 -0.0020281631 -9.7960541220
4.350000 -0.0015623944 0.0001122393 0.0020180184 -0.0046517154 -0.0072625779 -9.7873790122
4.360000 -0.0016335522 -0.0008286837 0.0010512909 -0.0001984628 -0.0015930799 -9.7912006964
4.370000 -0.0007579811 0.0012971552 0.0005744665 -0.0005695363 -0.0116799434 -9.7964018482
4.380000 -0.0008924992 0.0001048689 0.0001393393 0.0065671784 -0.0045211722 -9.7938773855
4.390000 -0.0000646068 0.0003777210 -0.0006438285 0.0001540015 -0.0009695040 -9.7945504040
4.400000 -0.0005600576 -0.0004183644 -0.0000507809 -0.0097562982 0.0041180208 -9.7991977818
4.410000 -0.0002834308 0.0003129492 -0.0021372918 -0.0025386779 0.0081295457 -9.7953744978
4.420000 0.0000305788 0.0004330953 0.0010066088 -0.0020275644 -0.0081608375 -9.7934618085
4.430000 0.0007924988 0.0002397060 0.0009549560 0.0016037276 -0.0028721784 -9.8006360594
4.440000 0.0002066325 -0.0004238699 -0.0002243797 -0.0017488648 0.0005688746 -9.7954735407
4.450000 -0.0003677294 -0.0001855682 -0.0002071448 -0.0080932587 0.0105414681 -9.8014783212
4.460000 0.0006313586 -0.0001915615 0.0008874953 -0.0016512311 0.0076141053 -9.7940116953
4.470000 -0.0002024780 0.0005076397 0.0000615480 0.0043846361 -0.0050457298 -9.7920304388
4.480000 0.0001010083 -0.0003546746 -0.0003836959 0.0036021841 -0.0009078587 -9.7956235100
4.490000 0.0003782992 0.0001401212 0.0008740634 -0.0024675033 0.0025214112 -9.7935394959
4.500000 0.0006947192 0.0012509542 0.0000951955 -0.0001405475 0.0029544149 -9.7970082568
4.510000 0.0003592107 -0.0015782020 0.0005595134 -0.0023728292 0.0044777674 -9.7913021829
4.520000 0.0001410964 -0.0005709015 0.0007606042 0.0106892910 -0.0053626630 -9.7979276441
4.530000 0.0005877571 0.0002454446 -0.0011079576 0.0035411295 0.0085541222 -9.7975745856
4.540000 0.0002917886 0.0004055607 -0.0008114757 -0.0032592703 -0.0051444436 -9.7974374344
4.550000 -0.0003729596 -0.0007102048 -0.0006776647 0.0019278891 0.0072657738 -9.7882671605
4.560000 0.0005835471 0.0002428937 -0.0016189648 -0.0034384009 -0.0040186620 -9.7986839972
4.570000 0.0003114485 -0.0004832926 0.0009566539 0.0083238960 0.0029417411 -9.7878674310
4.580000 0.0002282582 -0.0003939633 -0.0001304983 0.0018865447 -0.0038334368 -9.7983777404
4.590000 -0.0009893777 0.0007272424 0.0003556674 0.0020215301 0.0090787803 -9.7926702954
4.600000 -0.0006595028 0.0001622877 -0.0002171139 -0.0106512976 -0.0053287659 -9.8005973783
4.610000 0.0004803243 -0.0008435654 0.0008111287 -0.0021092620 0.0046551921 -9.7983421015
4.620000 0.0009020995 0.0002130170 -0.0000233874 -0.0027958515 -0.0024077621 -9.7958126131
4.630000 -0.0001693965 0.0006669689 -0.0010345443 -0.0006000445 -0.0039894580 -9.7977270432
4.640000 -0.0006826553 -0.0007509074 0.0007317353 -0.0026493736 0.0045976046 -9.7958023698
4.650000 0.0009397090 0.0008668633 0.0004471365 -0.0065052178 0.0021407424 -9.7985130914
4.660000 -0.0008288065 -0.0005562082 0.0005836690 -0.0033540893 0.0031245362 -9.7907158525
4.670000 0.0001746545 0.0009413151 0.0007155623 0.0013834827 0.0053815400 -9.8009425149
4.680000 -0.0003752671 0.0008767744 -0.0001701451 -0.0017584712 0.0022864799 -9.7919184311
4.690000 -0.0000572795 0.0009224214 0.0008213757 0.0033166917 0.0015062935 -9.7867813225
4.700000 0.0010916817 -0.0007981043 0.0007837372 -0.0008549433 -0.0067677598 -9.7962966068
4.710000 0.0006727647 0.0011167242 0.0005306616 -0.0009016945 -0.0065746499 -9.7945363855
4.720000 -0.0002787208 0.0002577317 0.0000964717 -0.0035715621 -0.0031101848 -9.7974043727
4.730000 0.0011319086 -0.0001431862 -0.0007547632 -0.0016268528 0.0026874110 -9.7962411261
4.740000 -0.0002037143 0.0017171252 0.0002921485 0.0010419527 -0.0010593953 -9.7978707470
4.750000 -0.0006990915 -0.0001687534 -0.0010031412 0.0030418983 -0.0039857046 -9.8011269307
4.760000 -0.0001441597 -0.0018521335 0.0001371556 0.0043297286 0.0025742392 -9.7991999887
4.770000 -0.0000933842 0.0003979662 0.0009476169 -0.0020068945 -0.0073518194 -9.8027028391
4.780000 0.0006205162 -0.0002842219 0.0006801378 -0.0138876709 -0.0014581080 -9.7920469471
4.790000 -0.0020045549 0.0018046493 -0.0003052327 -0.0019105938 -0.0017800912 -9.7936173035
4.800000 0.0003549795 0.0007572231 0.0001080681 -0.0053841634 -0.0031669757 -9.7937075343
4.810000 -0.0016973681 0.0004402607 0.0011930017 -0.0000820121 0.0021700244 -9.7943090196
4.820000 0.0004928123 0.0007388093 0.0005159417 -0.0017208317 0.0082268531 -9.7921969545
4.830000 -0.0001913963 0.0003923358 -0.0001303550 -0.0048711605 0.0054978976 -9.7938983494
4.840000 -0.0020402712 -0.0004428693 0.0003538371 -0.0040733310 -0.0024832543 -9.7926717293
4.850000 0.0001260947 0.0006326171 -0.0012209886 0.0119298049 0.0013809189 -9.8032199397
4.860000 -0.0006103346 0.0009356669 0.0004745963 0.0023322651 0.0024086284 -9.7874114375
4.870000 -0.0003879999 0.0001562630 0.0004175272 0.0020789840 0.0024011735 -9.7922797764
4.880000 -0.0001453857 -0.0001004333 -0.0015246760 0.0084966203 0.0056660803 -9.7908362819
4.890000 0.0004629660 -0.0005707720 -0.0009082509 0.0039191627 -0.0036023838 -9.8036978685
4.900000 0.0001586553 -0.0013289303 -0.0006615192 0.0037733246 0.0028557135 -9.7961567858
4.910000 -0.0000629097 -0.0001060603 0.0009889428 -0.0029522034 -0.0122940959 -9.7965501451
4.920000 -0.0014988268 -0.0006635288 -0.0000595410 0.0017156492 0.0036302413 -9.7894333261
4.930000 0.0014202924 -0.0006204262 -0.0000357000 -0.0056685665 -0.0073094131 -9.7979094093
4.940000 0.0010387857 -0.0004322070 0.0012402384 0.0052786918 -0.0059375679 -9.7966976725
4.950000 0.0007929410 -0.0004950693 -0.0006624699 0.0034117920 -0.0015066994 -9.7997739272
4.960000 -0.0003386269 0.0003466704 -0.0011625924 -0.0006577360 -0.0006913956 -9.7828211254
4.970000 -0.0006952462 0.0005401239 -0.0001243869 -0.0049538612 0.0054963994 -9.7874704704
4.980000 0.0003039698 0.0007886030 -0.0004886796 -0.0000003548 -0.0071298414 -9.7985195653
4.990000 -0.0010829100 -0.0003574867 0.0008319266 -0.0020728385 0.0077027996 -9.8028115495
5.000000 0.0004268533 -0.0001290853 0.0002542540 0.0000624375 -0.0056225613 -9.7934482227
5.010000 0.0007327374 0.0001398798 0.0007613526 -0.0011988327 0.0015474113 -9.7965969221
5.020000 0.0008046906 -0.0007621732 -0.0009702342 0.0060146892 0.0034920007 -9.7960398921
5.030000 0.0007767657 0.0005691197 0.0003639612 -0.0065970704 -0.0079051957 -9.7924280187
5.040000 -0.0011157691 -0.0003110842 0.0003426303 0.0055949626 -0.0001984435 -9.8108100283
5.050000 -0.0003977078 -0.0000308333 -0.0001046430 -0.0012029077 -0.0028653039 -9.7936980798
5.060000 -0.0001225157 -0.0008661165 0.0005545285 0.0048031213 0.0008833984 -9.7903241946
5.070000 0.0011630247 -0.0006929896 -0.0000535690 0.0016567227 0.0016981897 -9.7921868877
5.080000 -0.0002830225 0.0006599026 -0.0003080881 0.0116551857 -0.0033309144 -9.7891270077
5.090000 0.0012404712 -0.0003486398 0.0006029407 0.0043185465 0.0037844168 -9.7995974759
5.100000 -0.0011101876 0.0018714312 -0.0012607337 0.0031570223 0.0070271287 -9.7868685058
5.110000 -0.0006953562 0.0001908914 0.0001397584 -0.0069329664 -0.0036672434 -9.7927670413
5.120000 0.0006232949 -0.0000272775 -0.0007759740 0.0062095450 0.0018566489 -9.8038054548
5.130000 0.0003758417 -0.0011095670 0.0013284928 -0.0009260156 0.0020718977 -9.7952910857
5.140000 0.0007301745 0.0010358153 0.0002318737 0.0036324093 0.0084660295 -9.7876561761
5.150000 -0.0006000857 0.0004497679 -0.0001695528 0.0091167292 0.0013242316 -9.7935811016
5.160000 0.0002704199 -0.0008165654 0.0000933138 -0.0004532669 -0.0079463656 -9.8020417047
5.170000 -0.0007822385 0.0003989542 -0.0001117334 -0.0006391469 -0.0036820951 -9.7902820610
5.180000 -0.0002885358 -0.0000676363 0.0008992534 0.0023391488 -0.0033873590 -9.7983691105
5.190000 0.0010340275 -0.0011120600 0.0004679718 0.0005772316 -0.0042313665 -9.7906985432
5.200000 -0.0013462308 -0.0002437286 -0.0004602691 0.0021948975 0.0025332357 -9.7962043255
5.210000 -0.0001039323 0.0010912977 -0.0001861303 0.0035719106 -0.0007984999 -9.7907181956
5.220000 -0.0003497174 -0.0001308716 0.0004751226 -0.0053783527 0.0025369911 -9.7927501372
5.230000 0.0006510544 0.0004640659 0.0001382082 -0.0002583340 -0.0034100784 -9.7843705538
5.240000 -0.0001012614 -0.0007777098 -0.0012391806 0.0044355994 -0.0043061197 -9.7943984936
5.250000 -0.0007197522 0.0001657569 -0.0010136190 -0.0032246150 -0.0026198799 -9.7875951136
5.260000 -0.0008233871 -0.0005500405 0.0004662439 0.0032448143 -0.0016797669 -9.8025980095
5.270000 -0.0009189602 0.0003421233 -0.0001064552 0.0030059883 -0.0041337541 -9.7907883265
5.280000 0.0002358830 0.0006594155 -0.0004615239 -0.0016805941 0.0022032636 -9.8025619063
5.290000 -0.0010363384 0.0005596270 0.0005707444 -0.0031500741 0.0061261613 -9.7986379447
5.300000 0.0005845185 0.0004694576 0.0002783903 -0.0026540962 -0.0110340071 -9.7972020085
5.310000 -0.0004276475 -0.0008798254 0.0002976243 0.0019444670 -0.0030050268 -9.7902184132
5.320000 0.0000192148 0.0011230839 -0.0005073284 0.0018935893 0.0057388450 -9.8006327927
5.330000 0.0016267700 -0.0004361361 0.0005784379 0.0051807942 -0.0026456895 -9.7937525440
5.340000 0.0004697823 0.0003801997 -0.0004796377 0.0012103184 -0.0075257087 -9.7898313619
5.350000 0.0003845093 0.0004966587 0.0005817436 -0.0078301088 0.0008215334 -9.7963621456
5.360000 -0.0008869860 0.0011797640 0.0006061674 0.0024638100 0.0027881630 -9.7986996993
5.370000 0.0004526013 0.0003385195 0.0006574414 -0.0050097753 0.0025450510 -9.8046654362
5.380000 0.0005020754 0.0009777981 0.0004403755 -0.0011678441 -0.0021416453 -9.7943279055
5.390000 0.0001707624 -0.0003680122 0.0006134469 0.0059492340 0.0081039549 -9.8009069262
5.400000 0.0010294126 -0.0007700477 0.0006518090 0.0028160082 -0.0039740863 -9.7977662855
5.410000 0.0008376147 -0.0001113499 0.0002599155 -0.0025814168 -0.0044120561 -9.8028522803
5.420000 -0.0007938621 -0.0011832816 0.0005264861 0.0060212125 -0.0064969243 -9.7860740134
5.430000 0.0007733402 0.0007981607 -0.0003194848 -0.0078458714 0.0079112745 -9.7912673275
5.440000 0.0015255640 -0.0000502783 0.0003398161 0.0007130974 0.0025288407 -9.7924557831
5.450000 -0.0006345671 0.0010439293 -0.0009599846 -0.0078096787 0.0006194600 -9.7936700750
5.460000 -0.0000062223 0.0009617148 -0.0008045404 0.0056375495 0.0074602931 -9.7931049679
5.470000 -0.0011468647 -0.0003325883 0.0003616748 -0.0046146685 -0.0060612745 -9.7890352902
5.480000 -0.0003117796 -0.0006600286 0.0007421306 0.0026654681 0.0070415132 -9.7973130671
5.490000 -0.0010595887 0.0002571573 0.0002425755 0.0009127643 -0.0007588852 -9.7931235489
5.500000 -0.0003720303 0.0003561076 -0.0005567444 -0.0036414694 -0.0035688002 -9.7912114505
5.510000 0.0018019703 0.0006841694 -0.0006147031 0.0001693742 0.0068794818 -9.7925855357
5.520000 -0.0006287492 0.0004027246 0.0000673178 -0.0007642765 0.0120740661 -9.7922337503
5.530000 0.0007334968 0.0004587518 0.0004151171 0.0042444805 -0.0062973817 -9.7951791436
5.540000 0.0013334103 -0.0009487862 -0.0001424431 -0.0035100503 -0.0061868259 -9.8020473832
5.550000 0.0004097816 0.0000348503 0.0010282634 0.0035247175 -0.0079690994 -9.7944922397
5.560000 0.0004736127 0.0005686448 0.0009136892 -0.0018602144 0.0021474622 -9.7941456824
5.570000 -0.0002740642 -0.0003209452 -0.0008007511 -0.0009366741 0.0033854877 -9.7910692750
5.580000 0.0008586691 0.0003894363 -0.0010852578 0.0023149169 0.0059820629 -9.7916716349
5.590000 -0.0002268629 0.0005198475 0.0004194131 0.0116676605 0.0045269067 -9.8088466856
5.600000 0.0016504956 -0.0001737705 0.0001865941 0.0039644433 -0.0041578122 -9.7950777464
5.610000 -0.0004696531 0.0009257745 0.0005029097 -0.0004427224 0.0028387625 -9.7907612686
5.620000 0.0008182586 0.0006020807 -0.0001947144 -0.0020582528 0.0031134584 -9.7894169358
5.630000 -0.0000761619 -0.0015487797 -0.0003799319 -0.0026750105 -0.0023296328 -9.7920388096
5.640000 -0.0009852554 -0.0010900839 -0.0003195048 0.0027048400 0.0003285892 -9.7895857620
5.650000 0.0002416398 -0.0009735329 0.0001818193 -0.0015734386 -0.0019542277 -9.7963026505
5.660000 -0.0004127785 0.0003253344 -0.0002875473 -0.0009415464 0.0001104816 -9.7947878832
5.670000 0.0000303938 -0.0001186780 -0.0001801514 0.0010362373 0.0008767326 -9.8001101353
5.680000 0.0005490287 -0.0001613736 0.0010163378 -0.0105458358 0.0049681470 -9.7832553058
5.690000 -0.0008394315 -0.0012998755 -0.0006962626 -0.0052390246 0.0009437925 -9.7950557702
5.700000 0.0003011427 -0.0010258353 0.0007577842 0.0014886753 -0.0021723181 -9.7913687881
5.710000 0.0000655905 -0.0007623189 0.0006481980 -0.0031107844 0.0028765345 -9.8056152809
5.720000 0.0002096741 0.0002831665 0.0009312734 -0.0044038527 0.0031024243 -9.7868836117
5.730000 0.0007668981 -0.0007549766 -0.0005999054 0.0038463235 -0.0044581618 -9.7959381457
5.740000 0.0004163906 -0.0010749783 0.0000061369 -0.0058900355 -0.0032584039 -9.7979205742
5.750000 0.0002772064 0.0003845281 0.0009492450 0.0066556024 0.0023558313 -9.7948757895
5.760000 -0.0010508251 -0.0004430178 -0.0006105262 0.0020853263 0.0007744800 -9.7849400564
5.770000 -0.0001887110 -0.0001589606 0.0003840545 -0.0002516859 0.0028010373 -9.8002787616
5.780000 -0.0000857216 0.0004004914 0.0004040886 0.0007074580 -0.0001045890 -9.7947615014
5.790000 -0.0006476607 0.0008953354 0.0007301841 -0.0043698809 0.0024089302 -9.8015681014
5.800000 -0.0006774364 0.0010526647 0.0007500802 -0.0073166853 0.0005219930 -9.8053533618
5.810000 0.0001803379 0.0013211065 0.0011516428 -0.0025855302 0.0046700308 -9.7932321656
5.820000 0.0006053769 -0.0005752935 0.0002091457 0.0024664256 0.0030437864 -9.7965089606
5.830000 0.0004110452 0.0001266073 -0.0001703044 -0.0049181131 0.0028653200 -9.7976143238
5.840000 0.0007202492 0.0000782675 0.0003158062 0.0034342383 0.0049524247 -9.7978728984
5.850000 -0.0011022499 -0.0003478073 0.0007633178 -0.0103306256 -0.0097966985 -9.8042286383
5.860000 -0.0004619337 0.0005912120 -0.0011991358 0.0017148474 -0.0001660611 -9.7963114298
5.870000 0.0000660222 -0.0011641558 0.0003092833 0.0005073617 0.0012705272 -9.7929669501
5.880000 -0.0009885557 -0.0004429943 -0.0002792097 -0.0032946410 -0.0143482598 -9.7909569480
5.890000 0.0003592950 0.0001281349 -0.0002233988 0.0055592367 -0.0020711531 -9.7951983837
5.900000 0.0005079056 -0.0000979673 0.0001915987 0.0105180638 0.0048354254 -9.7926599619
5.910000 0.0000112314 -0.0008665911 0.0000629826 -0.0102834235 0.0035118720 -9.7943234484
5.920000 -0.0007273238 0.0004804819 0.0002699300 0.0081423107 -0.0044655902 -9.7926762242
5.930000 0.0003618189 0.0002954703 0.0006809935 0.0044908397 0.0015544058 -9.7860568481
5.940000 -0.0011375024 0.0001119046 -0.0009717261 -0.0024867216 0.0013531547 -9.7970965482
5.950000 -0.0000274428 -0.0003019350 -0.0009263970 0.0030227567 -0.0047030680 -9.7927466367
5.960000 0.0002485026 0.0001850709 0.0011361812 -0.0005701222 -0.0027862970 -9.7918616361
5.970000 0.0013416663 0.0013973410 0.0001668682 0.0037763885 -0.0031076933 -9.8056138629
5.980000 -0.0000427900 0.0011481287 -0.0006119539 -0.0010192965 -0.0023986989 -9.7962141410
5.990000 -0.0004546640 -0.0002950773 -0.0010654349 0.0018624448 0.0037043187 -9.8005860831
6.000000 -0.0000523925 0.0000586696 -0.0004022001 -0.0034277534 0.0013147683 -9.7924963270
6.010000 0.0001447646 0.0007084756 0.0005180882 0.0001436342 0.0039980840 -9.8000962910
6.020000 -0.0003605052 -0.0007120784 -0.0005317217 -0.0034282411 -0.0124335565 -9.7900874107
6.030000 0.0011009811 0.0002254525 -0.0009014294 0.0011939142 -0.0030159226 -9.7945590074
6.040000 0.0004471549 -0.0003709471 -0.0000673535 -0.0055398398 -0.0038746664 -9.7980491798
6.050000 0.0004260944 0.0005309741 0.0009540730 0.0029460571 0.0074229797 -9.7944221043
6.060000 -0.0002107199 0.0006235235 0.0001471654 0.0047183421 0.0007333269 -9.7951234534
6.070000 -0.0004513877 -0.0017314600 -0.0012221028 -0.0110729180 -0.0023125425 -9.7944653762
6.080000 0.0008844334 0.0008361789 0.0003190383 0.0065174567 0.0062124108 -9.7890490244
6.090000 -0.0005317037 0.0007320103 0.0006949145 0.0034871723 -0.0010388545 -9.7939506644
6.100000 0.0005442539 0.0001843807 -0.0005075202 -0.0002566687 -0.0006217836 -9.7853023855
6.110000 -0.0007221415 -0.0003742413 0.0000291371 0.0022383398 -0.0018444890 -9.7946908700
6.120000 -0.0001315601 -0.0007904314 0.0006039235 0.0026119290 -0.0019454613 -9.8001995840
6.130000 -0.0016511126 0.0007894334 0.0008250481 0.0071885567 -0.0064796109 -9.7877530613
6.140000 0.0000499516 0.0002131757 0.0005090300 -0.0108993564 -0.0108838401 -9.7891128325
6.150000 0.0011678699 0.0005921389 0.0010505137 0.0076087181 -0.0048457637 -9.7943313990
6.160000 -0.0003755863 0.0003376899 -0.0004731816 -0.0029351231 -0.0088188882 -9.7916784735
6.170000 -0.0010399139 0.0004826972 0.0017147109 0.0022285690 -0.0020143166 -9.7915229175
6.180000 0.0001333760 -0.0005437001 0.0003649722 -0.0015729186 -0.0038395225 -9.7896260965
6.190000 0.0001262297 -0.0004075025 0.0001637087 -0.0019858383 0.0023638526 -9.7949568953
6.200000 0.0001317262 0.0004045212 -0.0010071706 -0.0029635602 0.0049396786 -9.7973550451
6.210000 0.0007007382 -0.0014452080 0.0003430256 0.0113342255 -0.0009653033 -9.7999957811
6.220000 -0.0007983828 -0.0002256702 0.0000931351 0.0031067477 0.0005182848 -9.7928746961
6.230000 -0.0003625916 0.0001343547 0.0005854928 0.0060832897 0.0052925773 -9.7970299396
6.240000 -0.0000697495 -0.0006158412 0.0007398995 0.0001732189 0.0055963536 -9.7910581702
6.250000 -0.0013314150 0.0011145656 0.0002128108 0.0039204129 -0.0018995868 -9.7935341567
6.260000 0.0013930739 0.0012661676 -0.0001440214 0.0025481648 -0.0013090010 -9.7968883097
6.270000 0.0013459137 0.0001547540 -0.0001516504 0.0004805399 0.0010220017 -9.7939672528
6.280000 0.0007741403 -0.0009585658 -0.0009132530 0.0067615011 -0.0036204350 -9.7945904522
6.290000 -0.0005145899 -0.0015572926 0.0000879240 -0.0013787918 -0.0053380033 -9.7917609264
6.300000 -0.0001551606 -0.0002138991 0.0014522029 0.0003248243 -0.0059190712 -9.7947128134
6.310000 -0.0004073787 -0.0001007564 -0.0002085917 -0.0047782116 -0.0060120428 -9.7922785968
6.320000 0.0000369874 0.0004044400 0.0003938657 0.0090110075 -0.0058945794 -9.7909743796
6.330000 -0.0007921264 -0.0005495344 0.0013808838 -0.0048269596 0.0015377535 -9.7935250461
6.340000 0.0003631250 0.0006997980 -0.0005348623 0.0019705491 -0.0031368128 -9.7949300763
6.350000 0.0000085766 -0.0000459594 0.0013868442 0.0052886101 -0.0070570136 -9.7929702962
6.360000 0.0008210208 -0.0010295228 -0.0000980464 0.0000543381 0.0003413745 -9.7921725148
6.370000 0.0001944847 0.0000801446 -0.0003676005 0.0025929525 -0.0049024508 -9.7980695216
6.380000 -0.0013763306 -0.0011912005 -0.0008680080 -0.0017333682 0.0044501230 -9.7944883559
6.390000 -0.0016920448 -0.0006783038 0.0000763630 -0.0054129122 -0.0020023055 -9.7864533871
6.400000 0.0002101720 -0.0002669315 -0.0006135204 0.0040936976 -0.0044348202 -9.8028775260
6.410000 -0.0000611717 -0.0008970347 0.0016953917 -0.0048532212 0.0070607320 -9.8067142946
6.420000 -0.0003734018 -0.0019713391 0.0007989705 -0.0081913808 -0.0000428854 -9.8021588939
6.430000 0.0003457778 0.0008428310 0.0003436402 0.0041764482 0.0001784910 -9.7933947254
6.440000 -0.0001407301 0.0002055561 -0.0009952013 0.0041055487 -0.0111990826 -9.7942712541
6.450000 0.0000510856 0.0013915458 -0.0004869769 -0.0023736132 -0.0062501367 -9.7996358063
6.460000 -0.0007124998 0.0000368290 0.0006013422 0.0020861748 0.0009484900 -9.7929132820
6.470000 0.0008127173 -0.0005726975 -0.0004198084 0.0013073050 0.0002831506 -9.7911344926
6.480000 0.0001654354 -0.0001354787 -0.0004772197 -0.0122571626 0.0009656077 -9.8005617756
6.490000 0.0004247213 -0.0003169166 0.0003719794 0.0031197451 0.0094577409 -9.7873244533
6.500000 0.0012911137 0.0007746498 -0.0000030493 0.0051819954 0.0042451472 -9.7930933015
6.510000 0.0016682745 0.0006153943 -0.0009422260 -0.0028625266 -0.0022645360 -9.7893037086
6.520000 -0.0007775014 0.0011645693 -0.0000004642 -0.0040055769 -0.0051851469 -9.7896752134
6.530000 0.0003878625 0.0012014677 0.0001987156 -0.0071325648 -0.0080658409 -9.7931029206
6.540000 -0.0004732400 0.0008106973 0.0002232972 0.0010662564 -0.0046597495 -9.7920142808
6.550000 0.0008608788 -0.0000569365 0.0006516397 -0.0031281603 0.0021412149 -9.7911443093
6.560000 0.0002698133 -0.0006893966 0.0005396903 -0.0106673905 0.0022272273 -9.7890619451
6.570000 0.0007231399 -0.0000948213 -0.0011256033 -0.0009248758 -0.0064001077 -9.7922457201
6.580000 -0.0000066969 -0.0003193526 0.0005001742 -0.0080917745 -0.0007123387 -9.8079433518
6.590000 0.0003557790 0.0000651286 -0.0012411563 0.0031386707 -0.0016656375 -9.8019086600
6.600000 0.0007932244 -0.0002897041 -0.0005652012 0.0114777565 -0.0020544530 -9.8053908886
6.610000 -0.0000155400 -0.0005532153 0.0003481838 0.0013133814 0.0049581920 -9.7909278528
6.620000 0.0014219266 -0.0000186813 0.0001422803 0.0023339919 0.0031053094 -9.7993350994
6.630000 -0.0004060856 -0.0000825215 -0.0009518334 0.0058857710 0.0019331628 -9.7959887164
6.640000 0.0007570776 -0.0005251277 0.0009969347 -0.0059059851 0.0094483438 -9.7986776953
6.650000 -0.0001351829 0.0004579881 -0.0003733085 0.0006786914 0.0041611304 -9.7993701264
6.660000 0.0005102324 -0.0004963821 0.0001713762 0.0028991433 -0.0021550638 -9.7940532442
6.670000 -0.0009248355 -0.0006305255 0.0007231396 0.0021281293 -0.0106746956 -9.8012683584
6.680000 -0.0004718817 -0.0003103284 -0.0001842561 0.0029524508 0.0021962314 -9.7972940162
6.690000 0.0001194548 -0.0002162486 0.0007884778 0.0042973326 0.0016363408 -9.8005471582
6.700000 -0.0020601621 0.0007755822 -0.0003619014 -0.0058651461 0.0065798792 -9.7861470193
6.710000 0.0004937437 -0.0000409841 0.0006343683 0.0013119753 -0.0039679086 -9.7920781030
6.720000 0.0002994090 -0.0003879006 0.0001575789 0.0109790313 0.0042793925 -9.7926456988
6.730000 -0.0015618565 0.0007115789 -0.0001741341 0.0021887086 0.0057375753 -9.8011147868
6.740000 0.0001619890 0.0000961121 0.0000666284 0.0033862898 0.0001110258 -9.8011033382
6.750000 0.0008843089 -0.0002689017 0.0000720007 -0.0029535733 -0.0011154707 -9.7903362439
6.760000 -0.0007876963 0.0009133289 -0.0001003337 -0.0029159840 0.0023417013 -9.7984012757
6.770000 0.0003855348 0.0002723085 0.0004964389 0.0077368548 0.0018524279 -9.8023549192
6.780000 -0.0000884798 0.0002539791 -0.0012054105 0.0016591055 -0.0002924987 -9.8004934997
6.790000 0.0005777610 0.0004380325 0.0005621323 -0.0044039401 0.0008658587 -9.7964632348
6.800000 -0.0009974806 0.0004256482 -0.0009187401 0.0054358807 -0.0000136958 -9.7892778526
6.810000 0.0003307443 0.0006277852 0.0002824766 0.0082350877 -0.0067713929 -9.7959381874
6.820000 -0.0006687806 0.0000270843 0.0000780697 -0.0042002113 -0.0030529519 -9.7958958681
6.830000 0.0003470220 -0.0007132096 -0.0016002440 0.0033094417 0.0018915663 -9.7894358225
6.840000 0.0003978382 0.0004700849 0.0001926407 0.0084371392 0.0055377746 -9.7876239070
6.850000 0.0013091115 0.0006980042 -0.0001174194 -0.0022944693 0.0080918426 -9.7850630180
6.860000 0.0006562232 0.0014640664 -0.0004321723 -0.0059708077 -0.0014438751 -9.7995001980
6.870000 0.0006541233 0.0005751945 0.0002331270 -0.0018108629 -0.0008843116 -9.7984771891
6.880000 -0.0007797828 -0.0001421678 0.0005998213 -0.0006946989 -0.0003334743 -9.7935464459
6.890000 -0.0005239053 -0.0004427907 0.0000649068 0.0043856075 -0.0001900314 -9.7967644831
6.900000 -0.0004336882 -0.0007284539 -0.0001666375 -0.0005927574 0.0040645949 -9.7909358298
6.910000 -0.0006944446 0.0001753406 0.0007885053 -0.0011096762 -0.0033143932 -9.8028272330
6.920000 0.0001178723 0.0011493646 0.0000829427 0.0043091156 -0.0020007226 -9.8003257979
6.930000 0.0003791000 0.0002686272 -0.0006615004 -0.0053196826 -0.0056983608 -9.7988573076
6.940000 0.0003777337 0.0004254862 -0.0007225144 -0.0054669865 0.0015888951 -9.8004829903
6.950000 -0.0006514501 0.0012421915 0.0001895139 0.0016138617 -0.0046636479 -9.7931420933
6.960000 -0.0010277659 0.0004286234 -0.0004404769 -0.0021461178 -0.0031588924 -9.7960032733
6.970000 0.0003071360 0.0005511355 -0.0005669127 0.0001366237 0.0087666480 -9.7903456861
6.980000 0.0003453919 -0.0002330181 0.0003806532 -0.0050278727 -0.0056745958 -9.7949040145
6.990000 -0.0002190398 -0.0008793577 0.0002844113 -0.0047164677 -0.0036042996 -9.7914753172
7.000000 -0.0000475247 -0.0006417888 0.0004205555 -0.0019978891 -0.0057194400 -9.7907605634
7.010000 0.0004438880 -0.0008214051 -0.0002291120 -0.0035102931 0.0005086982 -9.8025315371
7.020000 0.0000852649 0.0012918657 0.0000484844 0.0045147197 -0.0020644933 -9.7902529402
7.030000 0.0000564830 0.0000864943 -0.0008034830 0.0032887303 -0.0025766333 -9.7957894777
7.040000 -0.0013232456 0.0005965542 -0.0002842818 0.0031649608 -0.0012725226 -9.7813313299
7.050000 0.0008896686 0.0004394368 -0.0002681684 -0.0018547260 -0.0070459774 -9.7924147336
7.060000 -0.0007341663 -0.0001012748 0.0004053854 -0.0040061908 -0.0077012224 -9.7994847018
7.070000 0.0000237126 0.0002092382 -0.0020722021 0.0061039413 -0.0012309851 -9.7942107831
7.080000 -0.0007725090 0.0006362648 0.0000680760 -0.0052487410 0.0085564872 -9.7948693308
7.090000 -0.0006037549 0.0005940575 0.0002694482 0.0031725212 -0.0086821014 -9.7902202180
7.100000 -0.0006491724 0.0010174856 -0.0000876130 0.0076751175 0.0052280223 -9.7910628609
7.110000 0.0000611160 -0.0008121820 -0.0008945881 0.0027604737 0.0087124473 -9.7899089236
7.120000 -0.0008828333 -0.0007931431 0.0000339881 -0.0008720710 -0.0031666134 -9.7942599590
7.130000 0.0003822995 -0.0006988153 -0.0001009138 0.0029472629 0.0007960593 -9.7949215161
7.140000 -0.0010791848 -0.0005081495 0.0000226550 -0.0005302438 0.0066004533 -9.7989918217
7.150000 -0.0001972461 -0.0010101019 0.0000782688 0.0068124230 0.0018562209 -9.7970386565
7.160000 -0.0002699824 -0.0003129949 0.0000121906 -0.0043645208 0.0046638389 -9.7945969015
7.170000 -0.0000929733 0.0002739636 0.0011634015 0.0030954715 -0.0041702093 -9.7975248010
7.180000 -0.0000017207 -0.0001420331 -0.0001153294 -0.0004348477 -0.0058786829 -9.7846627824
7.190000 0.0003994176 0.0018074685 -0.0005216715 -0.0056458435 0.0002731346 -9.7955645358
7.200000 0.0008218541 0.0006457712 0.0001346309 -0.0017444627 -0.0008394254 -9.7906798393
7.210000 -0.0007546670 0.0010053721 0.0002708730 -0.0072463840 0.0019899471 -9.7971557625
7.220000 0.0004527625 -0.0001102159 -0.0009903789 0.0073936980 0.0049803127 -9.8046848530
7.230000 0.0001333118 0.0008424992 0.0017179899 0.0011759954 0.0020460767 -9.8006333610
7.240000 -0.0001811131 -0.0004131572 -0.0010064840 -0.0039975616 -0.0056731866 -9.8082331653
7.250000 0.0006279265 -0.0007969217 0.0004865143 0.0003189244 0.0016000289 -9.7869673592
7.260000 -0.0000476383 0.0013067811 0.0002012229 0.0033002684 -0.0020132678 -9.7913328734
7.270000 0.0002815745 -0.0004016140 0.0002107721 -0.0077980561 -0.0044091806 -9.7885010352
7.280000 -0.0011816445 0.0008477144 0.0001921515 0.0019930899 0.0020561663 -9.7929118532
7.290000 0.0008488595 0.0001361411 0.0003291821 -0.0073422918 0.0061329194 -9.7862304193
7.300000 0.0000003692 0.0010394188 -0.0002764211 -0.0008701575 0.0033219934 -9.7985436104
7.310000 0.0005132655 -0.0001868215 -0.0003706334 0.0022256173 0.0044448153 -9.7948891892
7.320000 -0.0000347266 0.0007501791 -0.0001201365 -0.0074741768 -0.0016745432 -9.7908243916
7.330000 -0.0003053458 0.0006231083 0.0009984715 0.0088680289 -0.0072879516 -9.7974884776
7.340000 -0.0003959357 0.0000325911 0.0005710769 -0.0003998481 0.0037611458 -9.7900836951
7.350000 0.0011818226 -0.0002155955 0.0002042339 0.0011901120 0.0053069057 -9.7980530097
7.360000 -0.0000464216 0.0008458729 0.0000875018 -0.0005795822 -0.0123428334 -9.7956553617
7.370000 0.0000367979 0.0008579707 0.0001367365 0.0007217542 -0.0002224943 -9.7978138640
7.380000 -0.0007033646 0.0003155205 -0.0014639886 0.0162870395 -0.0020755435 -9.7926017632
7.390000 -0.0014314808 -0.0004671880 0.0003984873 0.0083904615 0.0095022938 -9.7982854995
7.400000 0.0001118221 -0.0002152191 -0.0012098389 0.0019891872 0.0026157741 -9.8009925114
7.410000 -0.0007064656 -0.0002585161 -0.0009239462 0.0069041691 0.0076090419 -9.7992637344
7.420000 -0.0001401177 0.0008672930 0.0002191487 0.0059974456 -0.0003396892 -9.7828144839
7.430000 -0.0007527523 -0.0003065068 0.0007473632 0.0028898556 -0.0022582144 -9.7872581806
7.440000 0.0011674463 0.0000539810 -0.0005987444 -0.0022182392 0.0023889689 -9.8051072141
7.450000 0.0013927143 -0.0003377924 -0.0017737267 -0.0035068797 0.0008756231 -9.7987874517
7.460000 -0.0000769479 -0.0009740346 0.0006240548 0.0011737476 -0.0054085829 -9.7923699320
7.470000 0.0011009259 -0.0007780328 -0.0000708412 -0.0027328447 -0.0027336216 -9.7930098686
7.480000 -0.0005304800 0.0006560727 -0.0012871567 0.0030033596 0.0051029899 -9.7918793934
7.490000 -0.0006213618 -0.0016061392 -0.0002971904 0.0006865716 0.0039910716 -9.7965455284
7.500000 0.0002487953 0.0000130512 -0.0002078310 0.0033444592 -0.0045863125 -9.7967609615
7.510000 0.0001513967 0.0005745301 -0.0012500909 -0.0073813096 -0.0008994782 -9.7865818726
7.520000 -0.0002979185 0.0004507892 0.0005788056 0.0116065169 -0.0025960399 -9.7945193332
7.530000 0.0007465578 -0.0003220370 -0.0001688664 -0.0003188072 0.0063863582 -9.7860002351
7.540000 0.0010176149 -0.0007097948 -0.0008976501 0.0048914135 0.0061252401 -9.7912363504
7.550000 0.0000549770 -0.0006734497 0.0003370591 -0.0068521460 0.0017000110 -9.7911143711
7.560000 -0.0002270048 0.0004572913 -0.0016035591 -0.0010372466 -0.0053085073 -9.7958394979
7.570000 -0.0001645768 0.0005780459 -0.0016728152 0.0038364236 -0.0040919135 -9.7932776702
7.580000 0.0000336637 -0.0001340855 -0.0009468820 -0.0057751399 -0.0054550605 -9.7994950480
7.590000 0.0005479801 -0.0002628789 -0.0003398377 -0.0062206432 -0.0044162813 -9.7928955388
7.600000 -0.0001177050 0.0014830486 0.0001137324 -0.0013010283 -0.0048803257 -9.7972115023
7.610000 0.0002555043 0.0003647404 0.0014771252 0.0086983993 0.0043684398 -9.8001651888
7.620000 0.0004004368 0.0004618490 0.0000997112 0.0020256095 -0.0012598826 -9.7954895625
7.630000 0.0007257871 0.0008972691 -0.0003788206 -0.0035023729 0.0124648277 -9.7896503356
7.640000 0.0012272446 0.0004207196 0.0007191411 -0.0052893434 -0.0056075985 -9.7919027190
7.650000 0.0006431544 0.0005157098 0.0001058061 -0.0045992307 -0.0026908393 -9.7919083308
7.660000 -0.0014222310 -0.0000474433 -0.0013413674 0.0003174676 -0.0059045021 -9.7924089804
7.670000 0.0006998340 -0.0001211976 0.0004581535 0.0061919710 0.0032128560 -9.7942922145
7.680000 -0.0013663478 0.0000841981 -0.0005012534 0.0054329213 0.0024335168 -9.8049467259
7.690000 -0.0012870738 -0.0010606892 0.0010046346 -0.0031747874 0.0023986901 -9.7964328826
7.700000 0.0007157941 0.0010479393 -0.0003255167 -0.0083720388 0.0025584291 -9.7947183181
7.710000 0.0005022232 -0.0002300330 -0.0004798938 -0.0040230602 -0.0092475789 -9.7932754423
7.720000 -0.0007125470 -0.0000110176 -0.0002464216 0.0016561008 -0.0010801016 -9.7878043703
7.730000 0.0008690815 0.0008405428 0.0012617758 0.0025192451 0.0034138051 -9.7966175152
7.740000 0.0002839276 0.0011462273 0.0009970425 0.0069614046 0.0060531998 -9.7934771617
7.750000 -0.0007428216 -0.0001481732 0.0001602153 0.0061091736 0.0012911711 -9.7921632559
7.760000 0.0004916285 0.0001447854 -0.0004951093 0.0023470600 -0.0035169372 -9.7862524170
7.770000 0.0012481247 -0.0011654147 -0.0003668220 -0.0002593334 -0.0031230792 -9.7930544336
7.780000 -0.0000895640 0.0003275737 -0.0017575046 -0.0006562961 0.0041035965 -9.7896550240
7.790000 0.0003661655 0.0006400027 -0.0022010548 -0.0038759764 0.0017388704 -9.7913003523
7.800000 -0.0005379363 0.0004254530 0.0000662702 0.0052374087 -0.0002872193 -9.7866272346
7.810000 0.0013558835 0.0007427119 -0.0007962133 -0.0058525415 0.0025662585 -9.7880254446
7.820000 -0.0006405239 0.0000805706 -0.0001583013 -0.0033325377 0.0036450089 -9.7959405661
7.830000 -0.0004400614 0.0003366533 0.0004169789 -0.0037594326 0.0014109848 -9.7914556550
7.840000 0.0001759248 0.0004696417 0.0014066468 -0.0013862349 -0.0100765517 -9.7875578801
7.850000 -0.0001037566 0.0005588073 0.0003922963 -0.0049483352 0.0001702269 -9.7965589887
7.860000 0.0010326088 -0.0003875045 0.0001528660 0.0032408441 -0.0031195657 -9.7910922748
7.870000 0.0002120486 0.0014710877 0.0003445176 0.0018899498 -0.0028126037 -9.7952846186
7.880000 -0.0001467175 0.0001042872 -0.0002207382 0.0003523109 -0.0049799910 -9.7883727035
7.890000 0.0003047687 0.0006474011 -0.0006207420 -0.0021562901 -0.0046365599 -9.7921005845
7.900000 0.0007908247 -0.0003896256 -0.0002308780 0.0028144097 0.0010712983 -9.8011446894
7.910000 0.0006301319 -0.0007031984 -0.0006562710 0.0021294261 -0.0017691064 -9.7904521798
7.920000 -0.0005100776 0.0008812507 0.0001761898 -0.0070480003 -0.0101421779 -9.7957102198
7.930000 -0.0011935108 -0.0001924809 0.0003461552 -0.0068354369 0.0051436015 -9.8016818844
7.940000 0.0000932470 -0.0003052620 0.0014418216 -0.0002597427 -0.0070103573 -9.7971390676
7.950000 -0.0005800185 0.0009252221 -0.0004677932 -0.0001404827 0.0011777356 -9.7954870682
7.960000 0.0004166990 0.0001442934 0.0006214940 -0.0001357230 -0.0021060509 -9.7919367246
7.970000 -0.0009181990 0.0014883196 -0.0007612097 -0.0010269263 -0.0088708414 -9.7927876668
7.980000 -0.0007101726 -0.0003606142 -0.0005424156 0.0025976119 0.0052058577 -9.8020941728
7.990000 0.0001205586 -0.0003038972 -0.0004997151 0.0053724896 0.0033888852 -9.7982380607
8.000000 -0.0004074917 0.0010050314 -0.0006770891 0.0005299421 0.0008781033 -9.7898291013
8.010000 -0.0000897668 0.0002996035 -0.0004247665 -0.0002063169 0.0002923241 -9.7936841065
8.020000 0.0003833174 0.0005504700 0.0009284240 0.0076697234 0.0078747721 -9.8050239177
8.030000 0.0008906356 0.0005669660 0.0008476538 -0.0045687736 0.0006187723 -9.7899866003
8.040000 0.0018426489 0.0007440687 -0.0013071465 -0.0002466287 0.0004617597 -9.7966607668
8.050000 0.0004865321 -0.0007059897 0.0002639342 0.0097611262 0.0026237087 -9.7966337009
8.060000 -0.0000683329 0.0011897370 -0.0005093296 -0.0053721732 -0.0060325700 -9.7881522662
8.070000 0.0001425448 0.0000882917 0.0005932778 -0.0017099592 0.0041936469 -9.7896142581
8.080000 0.0002754077 -0.0005107538 -0.0002075589 0.0047951825 0.0043313320 -9.8015041213
8.090000 0.0003691467 0.0009334693 0.0008179553 -0.0053218825 -0.0027919716 -9.7983114658
8.100000 -0.0001892218 0.0011963373 -0.0001115831 0.0012790480 -0.0088186225 -9.7976867598
8.110000 0.0001089688 0.0004537689 -0.0006416536 -0.0011973389 -0.0038591852 -9.7938696147
8.120000 0.0004773150 -0.0009328306 -0.0003306219 -0.0035547251 0.0010361266 -9.8049116519
8.130000 -0.0002822627 0.0004248936 0.0003265171 -0.0071918642 0.0091108371 -9.7863152585
8.140000 0.0008705156 0.0002494008 0.0001378608 -0.0077444107 -0.0028295099 -9.8034753644
8.150000 0.0003696492 0.0000849094 0.0009766043 0.0077333860 0.0017172477 -9.8014931428
8.160000 -0.0010617849 -0.0010653617 -0.0003167509 -0.0095343023 0.0062951542 -9.7962055534
8.170000 0.0000176847 -0.0014255206 0.0003655659 0.0045575234 0.0001987042 -9.7922445419
8.180000 -0.0001419656 0.0004218904 -0.0000640644 0.0050798213 -0.0034972278 -9.7905527933
8.190000 -0.0007459091 -0.0002481492 -0.0001085295 -0.0023542882 -0.0100408091 -9.8018986682
8.200000 0.0011233066 -0.0003254229 0.0006321123 -0.0007716236 -0.0035640792 -9.7974922847
8.210000 -0.0005785200 -0.0002368284 0.0005522320 -0.0001510892 -0.0030062880 -9.7997133588
8.220000 -0.0003559683 0.0007618902 0.0001492641 0.0043154772 0.0027521005 -9.7932114142
8.230000 -0.0001252276 0.0003110813 -0.0009610524 -0.0025284229 -0.0039393057 -9.7976135182
8.240000 -0.0002077421 -0.0001081087 -0.0006342812 0.0049099856 -0.0102486872 -9.7918441010
8.250000 0.0012890975 0.0008347652 0.0001813637 0.0033452094 0.0045690938 -9.7936200961
8.260000 -0.0004044251 -0.0007411743 0.0005562257 -0.0048201063 0.0069137874 -9.7967202189
8.270000 0.0015709361 -0.0006299905 -0.0001034219 -0.0008848972 -0.0060001926 -9.7904299213
8.280000 -0.0003042556 -0.0002211216 -0.0000611219 0.0040486908 -0.0018383597 -9.7969930748
8.290000 -0.0006781565 -0.0000374710 -0.0003187062 0.0133575002 -0.0084185505 -9.7994127239
8.300000 -0.0000518938 0.0006182587 -0.0010227667 -0.0068798018 0.0009516641 -9.7964157112
8.310000 0.0003173610 0.0000391906 0.0007841614 0.0094950113 0.0071616232 -9.7997441393
8.320000 0.0002261216 0.0003836890 0.0004105278 0.0008414480 -0.0022056186 -9.7872523654
8.330000 0.0005238388 0.0012507440 0.0001278663 -0.0037609094 0.0001920655 -9.7977274401
8.340000 -0.0004449803 0.0002554654 -0.0003539557 -0.0064926578 0.0055495182 -9.7919044630
8.350000 -0.0004160606 0.0007526196 -0.0000683498 -0.0003822811 -0.0037909925 -9.8016967097
8.360000 0.0010684885 -0.0005281695 0.0003781546 0.0000029627 -0.0094492874 -9.7938856693
8.370000 -0.0022717857 -0.0009612173 0.0008372792 0.0019644433 -0.0056141781 -9.7921936434
8.380000 0.0008259073 0.0008068189 0.0013102431 -0.0029777492 -0.0015762447 -9.7924843934
8.390000 0.0011572345 -0.0000503674 -0.0003982690 0.0053702799 0.0074264996 -9.7931563011
8.400000 0.0007253898 -0.0001019832 0.0005251102 -0.0066476614 0.0063464548 -9.7947669796
8.410000 -0.0010490413 0.0004348453 -0.0001865439 -0.0041121282 0.0025031613 -9.7937305499
8.420000 0.0000501338 0.0007172058 0.0000207116 0.0009153288 0.0022571431 -9.7942953883
8.430000 -0.0001211251 -0.0005772333 -0.0013207826 0.0089881138 0.0078840155 -9.7921400383
8.440000 -0.0008353239 0.0001664945 0.0007220281 0.0016618289 0.0100504767 -9.8004023879
8.450000 0.0004047519 -0.0005041516 0.0005712313 0.0063790976 -0.0004839628 -9.7939814861
8.460000 0.0007279416 0.0008810410 -0.0007562954 -0.0008674476 -0.0003236516 -9.7869030235
8.470000 0.0014280715 -0.0013689098 0.0006212430 -0.0021379615 -0.0097672125 -9.7837286641
8.480000 0.0009778161 -0.0007786645 -0.0005257899 -0.0141814735 0.0001185205 -9.7966530812
8.490000 -0.0002208295 0.0003353270 0.0001709837 0.0009039352 -0.0048428775 -9.7959263859
8.500000 -0.0010423618 -0.0000646624 0.0003082258 -0.0001374324 0.0020548870 -9.7925956966
8.510000 0.0002365783 -0.0004121236 0.0005392968 -0.0033758009 -0.0030051598 -9.8031179706
8.520000 0.0001964651 0.0016175475 0.0004111748 -0.0027947558 0.0001856498 -9.7961022425
8.530000 0.0002059678 0.0008081488 -0.0000387779 -0.0051070850 0.0083497170 -9.7925474654
8.540000 0.0005133652 -0.0004475220 0.0002822451 -0.0032434264 -0.0000104054 -9.7988974177
8.550000 -0.0000479287 0.0000606004 0.0001010165 -0.0072579791 0.0080808685 -9.8019401613
8.560000 0.0004607888 -0.0008543613 -0.0005509209 -0.0053266787 0.0007632420 -9.7929478932
8.570000 0.0010307473 -0.0004148699 0.0006417634 0.0057012216 0.0020176768 -9.7971109336
8.580000 -0.0002620821 0.0002105615 -0.0001098304 0.0004544914 -0.0030300655 -9.8003957159
8.590000 -0.0006230949 -0.0008245064 0.0009612886 0.0002614755 0.0027937997 -9.7967449020
8.600000 -0.0001706892 0.0000117514 -0.0014998002 -0.0073970211 -0.0046222807 -9.7992005788
8.610000 -0.0013162549 -0.0005316656 -0.0005579718 0.0029811222 -0.0031737358 -9.7966526818
8.620000 0.0007875821 -0.0010276400 0.0008614303 -0.0002618359 0.0007819565 -9.7938189971
8.630000 -0.0013444339 -0.0001987276 0.0013743573 -0.0060173484 -0.0069869136 -9.7882219755
8.640000 -0.0014215942 -0.0005249459 0.0000227678 -0.0018523275 -0.0040530854 -9.7841585208
8.650000 -0.0006763202 -0.0000311349 0.0000993094 0.0013861691 -0.0009271671 -9.7915718153
8.660000 -0.0001690908 0.0003690526 -0.0005873693 -0.0001139407 -0.0020290036 -9.7902804619
8.670000 -0.0006149882 -0.0001541443 -0.0002673310 -0.0069975912 0.0179642836 -9.7831847117
8.680000 -0.0000700094 -0.0007767692 -0.0003007283 0.0016873001 -0.0020331242 -9.7996048888
8.690000 -0.0004174836 0.0002675290 -0.0008283883 0.0063082876 -0.0083147792 -9.8007738926
8.700000 -0.0009782140 0.0008251484 0.0001728808 0.0037411068 -0.0130043177 -9.8025097751
8.710000 -0.0005722650 0.0013536422 -0.0004501313 -0.0069274430 -0.0003458871 -9.7953851935
8.720000 -0.0006626147 0.0014259309 0.0002079813 0.0060817940 0.0021856782 -9.7951541900
8.730000 0.0003858748 -0.0008459461 -0.0004039103 0.0070349279 -0.0074093106 -9.7900746269
8.740000 -0.0013536859 -0.0004862472 0.0004991080 -0.0063630987 0.0039563487 -9.7944298053
8.750000 -0.0005360630 -0.0000465607 -0.0004361294 -0.0018544576 0.0086401117 -9.7882512819
8.760000 0.0007409638 0.0001551595 -0.0003494844 0.0068937599 0.0061701646 -9.7968748815
8.770000 -0.0007695447 0.0011947041 -0.0010699236 0.0016994732 0.0036945288 -9.7902520029
8.780000 0.0001703590 0.0015446720 -0.0007157088 -0.0070061422 0.0043718639 -9.7949971848
8.790000 0.0000027376 0.0003452566 -0.0002107036 -0.0022532424 -0.0105886380 -9.7911241857
8.800000 0.0002044183 0.0005739892 0.0006329295 0.0010119471 -0.0035317636 -9.7898097807
8.810000 0.0000116341 -0.0001318382 -0.0003250264 0.0066075066 0.0062259546 -9.8031734833
8.820000 -0.0000782116 -0.0002036449 -0.0006303991 -0.0036434282 0.0010362765 -9.8021813974
8.830000 -0.0000807561 0.0001714631 0.0012262699 -0.0037376038 -0.0002453912 -9.8057059490
8.840000 -0.0004114871 -0.0003271903 0.0012915313 0.0062683782 0.0016137193 -9.8011523462
8.850000 -0.0008286325 0.0003199275 0.0004288943 0.0042423508 0.0054162671 -9.7880591008
8.860000 0.0000798416 0.0012116846 -0.0007518363 0.0026821418 0.0042365086 -9.7937187821
8.870000 -0.0010931502 0.0009692141 -0.0001002956 0.0093180066 0.0085796083 -9.7943433055
8.880000 -0.0002328993 -0.0014895325 -0.0002475963 0.0078225653 -0.0007358222 -9.7894449764
8.890000 0.0012824651 0.0010644055 -0.0004515963 0.0002582644 -0.0096551812 -9.8001287692
8.900000 -0.0004112214 0.0000356333 -0.0011102075 -0.0050215473 0.0021937935 -9.7917677002
8.910000 -0.0005511237 0.0003559985 0.0002062946 -0.0006297217 0.0015033520 -9.7970611571
8.920000 -0.0016639911 0.0012399243 0.0003700230 -0.0028768317 0.0003780537 -9.7937135283
8.930000 0.0006485357 -0.0005150924 0.0013222458 -0.0035187397 0.0013123364 -9.7922847785
8.940000 -0.0008144182 -0.0007700273 -0.0000228362 0.0034976398 0.0031615611 -9.7979702528
8.950000 0.0004227260 -0.0015294730 -0.0002123725 -0.0029927502 -0.0049178568 -9.7947137527
8.960000 0.0009611837 -0.0006350847 0.0001329905 -0.0005201838 -0.0012952466 -9.7871943307
8.970000 -0.0008104280 -0.0002952378 -0.0013688093 0.0014509642 -0.0011330220 -9.7942425671
8.980000 -0.0007084561 0.0010398532 -0.0000418387 0.0030797562 -0.0063821929 -9.7992017485
8.990000 -0.0004552340 0.0005028878 -0.0017424030 0.0039098754 0.0036568774 -9.7915524385
9.000000 -0.0009121821 -0.0008548234 0.0000629526 -0.0057287379 -0.0075052096 -9.7968319030
9.010000 -0.0001968253 -0.0001596190 0.0002496279 -0.0082177382 -0.0025745886 -9.7945767943
9.020000 -0.0009574059 0.0003692169 -0.0010656560 0.0039899277 -0.0056235290 -9.8033267977
9.030000 -0.0000580892 0.0011693851 -0.0001373423 0.0001937552 0.0066113518 -9.7979188908
9.040000 -0.0007108831 -0.0004288944 -0.0003896216 0.0000197137 -0.0029517948 -9.7991168080
9.050000 0.0000489798 -0.0000469043 0.0001643088 0.0064253215 0.0058212142 -9.8051242050
9.060000 0.0007320713 0.0011156031 0.0018070651 0.0076684897 0.0058958148 -9.7954661358
9.070000 -0.0005233823 0.0004454091 0.0001645069 0.0011471707 -0.0036409922 -9.7929760966
9.080000 -0.0000314707 0.0003396936 0.0007963099 -0.0004870992 -0.0025917666 -9.8006887179
9.090000 0.0008301552 -0.0014917184 -0.0004215026 -0.0081690436 0.0006526701 -9.7940957772
9.100000 0.0003992197 0.0005193832 0.0003466470 -0.0040771973 -0.0066188227 -9.7966098927
9.110000 -0.0001895030 -0.0000714480 0.0003715786 -0.0012957937 -0.0028066027 -9.8013751230
9.120000 0.0018237956 0.0007201915 -0.0000412857 -0.0123299708 0.0045007918 -9.8009517239
9.130000 0.0005899182 0.0009719398 -0.0000449007 -0.0013970946 0.0030355545 -9.7943616489
9.140000 -0.0004953804 0.0004266095 0.0003246898 0.0025401663 0.0088794607 -9.7921511201
9.150000 -0.0006765595 0.0004076964 -0.0000624006 -0.0056735144 0.0057024379 -9.7919679858
9.160000 -0.0004046916 0.0005571115 0.0014126572 0.0063402326 -0.0036766039 -9.8040323391
9.170000 0.0007992148 0.0011752422 0.0000872019 0.0007152647 -0.0072568252 -9.7987815376
9.180000 -0.0001224061 -0.0003260710 0.0008451674 -0.0007565427 -0.0070477799 -9.7929773927
9.190000 0.0000043445 -0.0005415678 0.0005842059 0.0014417071 -0.0081161237 -9.8046318851
9.200000 -0.0014052679 0.0004869598 0.0000560551 0.0031749549 0.0000411640 -9.7932065789
9.210000 -0.0006345775 -0.0002623996 -0.0004956811 -0.0066730120 0.0125505610 -9.7886742744
9.220000 -0.0007305612 0.0004406651 -0.0003438188 0.0022891361 0.0064162468 -9.7925547139
9.230000 -0.0004554879 -0.0011485970 0.0002626794 0.0066069232 0.0061918961 -9.8004793266
9.240000 0.0006999158 -0.0001686634 -0.0001928660 0.0097481496 -0.0009802573 -9.8058891465
9.250000 0.0001602715 0.0006045986 -0.0006191150 0.0054776620 -0.0014577888 -9.7933810691
9.260000 0.0013444816 -0.0000445515 0.0006106541 0.0120398161 0.0008889216 -9.7890887512
9.270000 -0.0002440165 0.0001920045 -0.0004526417 0.0022963752 -0.0023420315 -9.7992097721
9.280000 -0.0006810117 0.0002968652 0.0006256541 -0.0060356812 0.0047875204 -9.7947474367
9.290000 0.0000664115 -0.0002697824 0.0006667190 0.0016003131 -0.0076081099 -9.7948192177
9.300000 0.0007755814 -0.0001067596 -0.0001159754 0.0011099535 0.0039030075 -9.7913184784
9.310000 -0.0008180377 -0.0002562621 0.0001492693 -0.0009530324 -0.0025646362 -9.8001587849
9.320000 -0.0002667590 0.0005766310 0.0006066752 -0.0025271526 0.0020237976 -9.7947693920
9.330000 0.0008445447 0.0004273373 0.0004247923 -0.0074647849 -0.0039589812 -9.7959158753
9.340000 -0.0000866053 -0.0012153459 0.0011271567 0.0006344614 -0.0049142806 -9.7916957193
9.350000 0.0009349603 -0.0004301949 0.0000625131 -0.0133536315 0.0064409919 -9.7970674140
9.360000 0.0009510005 0.0003723482 0.0008111909 0.0044770811 0.0054452305 -9.7968769083
9.370000 -0.0002410296 0.0001520751 0.0002820567 0.0044795323 -0.0056643610 -9.7890950590
9.380000 0.0008067291 0.0004480490 -0.0000958934 -0.0004187828 0.0002827369 -9.7928338709
9.390000 -0.0000595443 -0.0012749886 -0.0004796317 -0.0033219661 0.0029523378 -9.8047404835
9.400000 0.0008603176 -0.0008318907 0.0004896626 0.0033665627 -0.0041000190 -9.8017335995
9.410000 -0.0004186160 -0.0009292643 -0.0002365981 0.0039731335 0.0109265673 -9.7941816445
9.420000 0.0000034730 -0.0000904711 0.0011819340 -0.0125669625 -0.0004736141 -9.7957218773
9.430000 0.0001542336 0.0010969302 0.0007042599 0.0016025568 0.0045547708 -9.7933641809
9.440000 -0.0003861828 0.0001262059 -0.0002722050 -0.0021803730 0.0005894668 -9.7966396221
9.450000 -0.0001758758 0.0009441918 -0.0000843584 0.0050574292 0.0022402898 -9.7968432753
9.460000 -0.0000797753 0.0008683528 0.0010747798 -0.0036387354 -0.0017553662 -9.8004004225
9.470000 -0.0005351418 -0.0003416355 0.0007199262 -0.0080052335 0.0083456390 -9.7974542726
9.480000 -0.0011434616 -0.0000699537 0.0004471015 -0.0024642295 -0.0080762119 -9.7869845714
9.490000 0.0001973318 0.0006100405 0.0008228887 -0.0005464676 0.0013493733 -9.7926975387
9.500000 0.0010231061 0.0001451333 0.0011878571 -0.0088771520 0.0007767283 -9.7897662406
9.510000 0.0008679663 0.0005069620 0.0008200356 0.0005260658 0.0032956590 -9.7935384679
9.520000 0.0000527680 -0.0000100127 0.0002866950 0.0013153674 0.0018004993 -9.7962245692
9.530000 -0.0003603227 0.0012579230 0.0009206411 -0.0012545143 -0.0056320898 -9.7975650052
9.540000 -0.0007735511 0.0003828466 0.0011829951 -0.0046795882 0.0020235397 -9.7835191753
9.550000 0.0012912289 -0.0005267978 -0.0021716784 0.0043497687 -0.0004925027 -9.7914337394
9.560000 -0.0002216470 -0.0002961153 -0.0004609551 0.0096869152 0.0092576865 -9.7963133443
9.570000 0.0001713137 -0.0005339365 -0.0010846193 -0.0002166290 0.0051714789 -9.8018614827
9.580000 0.0007763062 -0.0011253458 0.0001859388 0.0012976777 -0.0011003043 -9.7932488682
9.590000 -0.0005320967 -0.0000045149 -0.0005169089 -0.0013044274 0.0050571386 -9.8075263055
9.600000 0.0000878342 0.0003052439 0.0004253893 -0.0004638543 0.0053302588 -9.7932870710
9.610000 0.0004724218 -0.0005314227 0.0000174242 -0.0014404022 -0.0034582498 -9.7812840482
9.620000 0.0000730758 0.0003775610 -0.0004572819 -0.0014835876 -0.0014240775 -9.7889692867
9.630000 -0.0003613741 -0.0003268973 -0.0008088134 0.0022161225 0.0066375114 -9.7952303544
9.640000 -0.0003943173 0.0003000158 0.0000119351 0.0021389722 0.0039137559 -9.8008201617
9.650000 -0.0000230485 0.0006976330 -0.0010628593 -0.0006552050 0.0067674480 -9.7939966619
9.660000 0.0006302729 -0.0001281330 0.0006218071 -0.0066234755 0.0014338682 -9.7884336067
9.670000 0.0001258532 0.0010063515 -0.0014403104 0.0044640087 -0.0012412288 -9.8008478951
9.680000 -0.0002656177 0.0002733362 -0.0008104564 -0.0002915857 0.0141804073 -9.7923193724
9.690000 0.0009601950 -0.0003501684 -0.0000602769 -0.0087685492 -0.0061437872 -9.7995326387
9.700000 0.0003948211 -0.0007846928 -0.0002681406 0.0010216529 -0.0013636349 -9.7932188124
9.710000 0.0006906418 -0.0004447318 0.0001764748 0.0053279780 -0.0022599538 -9.7992908047
9.720000 0.0012213977 0.0001900625 0.0002280318 -0.0067538551 0.0036855049 -9.7950895170
9.730000 0.0000630650 -0.0006354866 -0.0002703692 0.0056423540 0.0009195731 -9.7925324179
9.740000 -0.0003640716 0.0000532972 -0.0003177945 0.0006506330 0.0050659879 -9.7899084309
9.750000 -0.0002450799 -0.0010661259 -0.0001226136 -0.0037935780 0.0002902147 -9.7908953385
9.760000 0.0007411926 0.0004539246 -0.0001722147 0.0014354007 0.0044632361 -9.7922837962
9.770000 0.0000941012 0.0014781368 -0.0013787772 0.0007848201 -0.0017183861 -9.7936491691
9.780000 0.0010660800 -0.0007716843 0.0003966588 -0.0059243446 0.0033478240 -9.7999875020
9.790000 -0.0004848724 -0.0006102506 -0.0003616314 -0.0068692578 -0.0047320942 -9.7933082928
9.800000 0.0000050158 0.0001735585 -0.0005491360 -0.0023608387 0.0012584333 -9.7889553477
9.810000 -0.0002557364 -0.0003232818 -0.0008632824 -0.0060840772 -0.0015212873 -9.7906838782
9.820000 -0.0001540733 0.0005660861 0.0007235953 0.0055033492 0.0008106676 -9.7940365250
9.830000 0.0009117042 0.0002689062 -0.0000843459 -0.0077465016 -0.0042375058 -9.7980598889
9.840000 -0.0000816545 -0.0016650249 0.0008612350 -0.0020077780 -0.0030086531 -9.7988299380
9.850000 -0.0000875595 -0.0004102387 -0.0003993714 -0.0099085411 -0.0003974155 -9.7906006979
9.860000 -0.0001598729 -0.0011071594 -0.0000244550 0.0025483471 -0.0040976489 -9.7975484867
9.870000 0.0011141173 0.0000941342 0.0002882617 0.0049496048 -0.0064478737 -9.8069199178
9.880000 -0.0002371791 -0.0007004052 0.0001895767 -0.0065805509 -0.0088289936 -9.8038494911
9.890000 -0.0002473136 -0.0001748652 0.0007337988 -0.0017178967 0.0042015440 -9.7922604062
9.900000 0.0001700798 -0.0005330357 -0.0003167178 -0.0015078001 0.0022313058 -9.7946823116
9.910000 -0.0000855212 -0.0000943461 -0.0007754163 -0.0018407125 -0.0131633580 -9.7962178333
9.920000 -0.0003732371 0.0004277731 -0.0000905358 -0.0019450864 0.0063008839 -9.7899099000
9.930000 -0.0001569656 0.0006208085 0.0000580407 -0.0021971641 -0.0012713307 -9.8027206657
9.940000 -0.0000203732 -0.0002024608 -0.0000960570 -0.0028814248 0.0023684986 -9.7959818978
9.950000 -0.0002071782 -0.0013996118 0.0007956095 -0.0058429934 0.0030607083 -9.7968291203
9.960000 0.0002535630 -0.0002597909 0.0014337327 0.0051395234 0.0085183156 -9.7986418497
9.970000 0.0000844460 -0.0002184153 0.0003566225 0.0019940751 -0.0063488485 -9.7858120475
9.980000 -0.0004603189 -0.0000152212 -0.0001470701 0.0141104782 0.0003599750 -9.8059750146
9.990000 -0.0014946925 -0.0005148010 -0.0008765410 0.0007912321 0.0018203520 -9.7905657909
10.000000 -0.0009035587 0.0014006179 0.0001547074 1.0030380611 0.0081260991 -9.8055195411
10.010000 -0.0006376278 0.0018242244 -0.0001152175 0.9998545548 -0.0032662441 -9.7927501384
10.020000 0.0011912268 -0.0006404900 -0.0001358229 0.9966794959 0.0004436438 -9.7888756678
10.030000 -0.0003132537 0.0007300842 -0.0000595382 0.9969151882 0.0024367938 -9.7891325265
10.040000 -0.0002702925 0.0003568752 -0.0002581824 0.9936588688 0.0016362525 -9.7884499641
10.050000 -0.0001291169 0.0008243465 0.0000243794 0.9941536522 -0.0017652229 -9.8007607131
10.060000 -0.0013780086 -0.0002432764 -0.0004968884 1.0060670407 0.0068415519 -9.7955191157
10.070000 -0.0000016879 0.0007814349 -0.0015174645 0.9943040857 0.0045825705 -9.7924123834
10.080000 0.0002845677 -0.0003086406 -0.0013327555 1.0018953623 0.0002330743 -9.7983388181
10.090000 0.0009429425 -0.0001074706 -0.0002198504 0.9965327381 -0.0030235035 -9.8016838142
10.100000 0.0005741929 0.0003109449 -0.0004656099 1.0092014035 0.0065741427 -9.7882579146
10.110000 0.0002996327 0.0001594168 -0.0006519051 1.0022384634 0.0012082252 -9.7959301460
10.120000 0.0015496423 -0.0003796767 -0.0001429356 0.9979326598 -0.0025528180 -9.7948345805
10.130000 0.0003859880 0.0002539956 -0.0000122532 1.0003620917 0.0014818401 -9.7897138877
10.140000 -0.0001570111 -0.0004606955 -0.0004909258 1.0075984902 0.0091890418 -9.8044870707
10.150000 -0.0007099400 0.0000352074 0.0002769564 0.9958295074 0.0011076565 -9.8010102007
10.160000 0.0005404039 0.0010449209 0.0009525026 1.0011595135 0.0018192718 -9.7908022593
10.170000 -0.0006594875 -0.0001702349 0.0000784731 1.0010055836 -0.0047294596 -9.7881045595
10.180000 0.0001995042 -0.0004048112 0.0008778554 1.0097106056 -0.0048268208 -9.8003892659
10.190000 -0.0001127346 0.0003846894 0.0006340972 0.9953038802 0.0046931668 -9.7926437122
10.200000 0.0014597758 -0.0003607837 0.0002169913 0.9965662243 -0.0037891094 -9.7918943450
10.210000 0.0004605258 -0.0012533147 -0.0004169239 0.9966881331 -0.0011389404 -9.7955423996
10.220000 0.0006548138 -0.0000118234 -0.0004719682 0.9990135021 -0.0024174089 -9.8014021439
10.230000 -0.0005203172 -0.0005143864 -0.0008034408 0.9874530453 0.0053024329 -9.7963129447
10.240000 -0.0014433727 0.0005101061 0.0010602850 0.9967917043 0.0110846727 -9.7907793120
10.250000 -0.0006213379 -0.0001348048 -0.0002188899 1.0035416733 0.0139899355 -9.7964636011
10.260000 0.0003253176 -0.0009506642 -0.0008958840 0.9997236195 -0.0038155559 -9.7909407009
10.270000 -0.0011066199 -0.0004620605 -0.0002989219 0.9898220312 -0.0077038078 -9.8018645843
10.280000 0.0006439324 0.0001117064 -0.0002957880 0.9983126260 0.0089572099 -9.7919532867
10.290000 -0.0004372840 0.0001939416 -0.0000320859 0.9906604827 -0.0009832049 -9.7980908045
10.300000 0.0002775631 0.0002574150 0.0001138219 0.9989182138 -0.0007312414 -9.7950113697
10.310000 0.0002943012 -0.0002835051 0.0008980370 1.0032468969 -0.0084938520 -9.7913889800
10.320000 0.0003314554 -0.0001984778 -0.0003963811 0.9990153108 0.0070983441 -9.7885102259
10.330000 0.0017195218 0.0001603754 0.0010347644 0.9935418935 -0.0042761995 -9.7907700074
10.340000 -0.0000298767 -0.0001923590 0.0016033842 0.9999930193 0.0048561495 -9.8008233922
10.350000 -0.0019835016 -0.0004201932 -0.0009401983 0.9962857947 0.0026421982 -9.7991579086
10.360000 0.0001193765 -0.0002813788 -0.0006889507 0.9989510123 0.0060004725 -9.7870007278
10.370000 -0.0000391017 -0.0005219991 0.0000094099 0.9968020629 -0.0063721740 -9.7967842205
10.380000 -0.0005264089 -0.0000407114 0.0009896232 0.9927338866 0.0048081685 -9.7901662143
10.390000 0.0012579333 0.0009982396 -0.0003880242 0.9984272076 -0.0010931264 -9.7875004413
10.400000 0.0001261339 0.0021138758 0.0010303759 1.0073454251 -0.0008268251 -9.7997623917
10.410000 0.0005924379 0.0012545308 -0.0006152247 1.0051461698 0.0016297844 -9.8052310952
10.420000 0.0004049617 0.0005510086 0.0000604235 0.9969631355 0.0015544515 -9.7950672889
10.430000 -0.0004383801 -0.0005096300 0.0002972361 0.9983017600 -0.0050432101 -9.7903610985
10.440000 0.0013491984 -0.0000304889 0.0001195108 0.9977716233 0.0034437304 -9.7952590353
10.450000 0.0002455918 -0.0015984324 0.0006839093 1.0061455669 0.0008220121 -9.8019119860
10.460000 -0.0008611214 0.0006589276 0.0006655685 0.9903109562 -0.0023034838 -9.7996328007
10.470000 -0.0006017040 -0.0016476211 -0.0002415422 1.0003034975 0.0059541723 -9.7938318425
10.480000 0.0006282771 -0.0011128084 -0.0009012362 1.0109947141 -0.0136594391 -9.8009969251
10.490000 -0.0006559790 -0.0007879582 -0.0000380303 1.0014921394 -0.0033913950 -9.7980886955
10.500000 -0.0007194858 0.0000987273 0.0001261609 0.9964345183 0.0107147407 -9.7959610834
10.510000 -0.0002026235 -0.0002401317 0.0002478232 1.0005357857 0.0090191164 -9.7992156573
10.520000 0.0000069175 -0.0010874794 -0.0014217766 1.0006176974 0.0018111917 -9.8030356028
10.530000 -0.0000386163 -0.0016479574 0.0003207135 1.0086751614 -0.0074361481 -9.7932923784
10.540000 -0.0005629417 -0.0014136678 0.0001352096 0.9881921724 -0.0007917420 -9.7951339094
10.550000 0.0015820818 -0.0009298619 0.0003364172 0.9949495749 0.0024461775 -9.7877168138
10.560000 0.0011469071 0.0007149740 -0.0008973870 1.0043525139 0.0024507459 -9.7985408643
10.570000 -0.0001558870 -0.0005751959 -0.0003930078 0.9951758308 -0.0025621450 -9.8032998248
10.580000 -0.0004200017 0.0004925547 -0.0008659032 0.9979402910 0.0054776794 -9.7971483052
10.590000 -0.0000767505 -0.0006099328 0.0012995718 0.9972182611 0.0055506707 -9.7968064802
10.600000 -0.0001829595 0.0009297302 0.0002281015 0.9975412273 -0.0010144838 -9.7947378652
10.610000 -0.0001466531 -0.0002314519 -0.0013410217 0.9935147584 -0.0064094899 -9.7983659966
10.620000 0.0002258517 0.0002484820 0.0000202405 0.9979038225 -0.0060369207 -9.7881515433
10.630000 -0.0006438999 0.0003870135 0.0000164750 1.0034128925 0.0015662167 -9.8022548114
10.640000 0.0004308716 0.0000375648 0.0005782939 1.0155937159 0.0061869575 -9.7969697826
10.650000 0.0005082350 0.0003725853 -0.0015036998 0.9961567633 0.0054112623 -9.7955774108
10.660000 -0.0004758696 0.0014637141 0.0008174543 1.0083085823 0.0057796236 -9.7924393917
10.670000 0.0002837289 0.0005777945 0.0002331767 0.9972015942 -0.0047850288 -9.7936925462
10.680000 -0.0002686630 0.0006523175 -0.0008259886 0.9982457713 -0.0027484136 -9.7984405777
10.690000 -0.0018410156 0.0002827764 0.0010326591 0.9999723125 0.0001274313 -9.7904797203
10.700000 0.0012744264 0.0009580508 -0.0005785549 1.0010119042 0.0016913319 -9.7887104466
10.710000 0.0004067994 0.0002896650 0.0004005613 0.9961633736 0.0039535550 -9.8014443372
10.720000 -0.0011851923 0.0006555090 -0.0002931931 1.0026993578 0.0076361559 -9.8051439266
10.730000 0.0011982302 -0.0005070230 -0.0009675617 1.0051215130 -0.0103385959 -9.7941717206
10.740000 -0.0000830493 -0.0003031921 0.0005948562 0.9957394710 -0.0038338469 -9.7960225014
10.750000 0.0001343044 0.0005737120 -0.0000059755 0.9962534379 -0.0032960355 -9.7944706778
10.760000 0.0005388387 0.0000193576 0.0005668418 0.9992781357 -0.0050935834 -9.7958320491
10.770000 -0.0004787934 -0.0003777273 0.0000803778 1.0019461868 -0.0022899349 -9.7909782288
10.780000 -0.0001350112 0.0005018627 0.0019329457 0.9928891860 -0.0045720100 -9.7997418894
10.790000 0.0010703258 -0.0001323843 0.0001331295 0.9992657056 0.0031298215 -9.7963073251
10.800000 0.0001027098 -0.0008544907 -0.0004095986 1.0038631596 0.0038732312 -9.7983837949
10.810000 0.0004304311 0.0005342314 0.0007817640 0.9952600773 0.0009845104 -9.7968053473
10.820000 0.0007879335 -0.0004794420 0.0007872051 1.0008897088 -0.0052699427 -9.7923266182
10.830000 0.0006079005 0.0006058496 0.0005392043 1.0009476818 -0.0124725050 -9.7974519342
10.840000 -0.0010554419 -0.0006352938 -0.0000015932 0.9962142245 0.0035263922 -9.7996337277
10.850000 0.0000949916 0.0008374252 -0.0012642083 0.9982568535 -0.0053208868 -9.8006929423
10.860000 -0.0003800021 0.0000028299 0.0001026273 0.9988703931 0.0026189079 -9.7905856229
10.870000 -0.0008060502 -0.0004916719 -0.0001481994 1.0038590597 -0.0080046792 -9.7993574451
10.880000 0.0001438637 0.0000285612 0.0001692026 0.9941005206 -0.0059567906 -9.7906385801
10.890000 0.0003552835 -0.0007330936 -0.0004519728 0.9983035974 -0.0071431267 -9.7940703446
10.900000 -0.0007331070 -0.0002257156 -0.0013019802 0.9874008807 0.0042768454 -9.7985709979
10.910000 -0.0002247667 -0.0003905619 -0.0009460314 1.0003727941 -0.0084697550 -9.7968333243
10.920000 -0.0007091340 0.0005421373 -0.0002702959 0.9958162945 0.0036340812 -9.8027828584
10.930000 -0.0007994882 0.0013415415 0.0000714340 0.9979815655 0.0022823238 -9.7995779729
10.940000 0.0000028007 -0.0005657213 -0.0003271881 0.9985160459 -0.0027777459 -9.7826520933
10.950000 -0.0000195258 0.0005632124 0.0005787968 0.9985019488 0.0034425861 -9.7903617201
10.960000 -0.0006079933 -0.0005884251 0.0014130198 0.9995909620 -0.0056651862 -9.7887015840
10.970000 -0.0001160516 0.0013577538 0.0004083821 0.9986125726 -0.0049269095 -9.8046318182
10.980000 0.0007207859 -0.0002559490 -0.0003076523 0.9955292927 0.0013228228 -9.7935909727
10.990000 -0.0002679066 0.0008622131 0.0002224286 0.9977419870 -0.0022255370 -9.7967552024
11.000000 0.0006512348 -0.0010142500 0.0011429561 1.0016493699 -0.0052208203 -9.8022157669
11.010000 -0.0004697725 -0.0002412376 0.0017855177 0.9945189075 0.0084209251 -9.7985931855
11.020000 0.0000303463 0.0001039572 0.0006149490 0.9953741079 -0.0037902254 -9.7941823109
11.030000 -0.0007978937 0.0015610878 0.0000168490 0.9999653259 -0.0031816090 -9.7972417598
11.040000 0.0001451065 -0.0004427149 -0.0003164925 1.0004328022 0.0029066399 -9.7982028405
11.050000 0.0002929580 -0.0006148448 0.0006640163 0.9992644387 -0.0037959523 -9.8044483967
11.060000 -0.0004299194 -0.0007704294 0.0009049445 0.9961967658 -0.0022576018 -9.8012708485
11.070000 -0.0017031404 -0.0001744772 -0.0001499710 0.9968972944 -0.0013618175 -9.7938898639
11.080000 0.0003123422 -0.0005592971 -0.0000954102 0.9998214878 -0.0004141676 -9.7963731503
11.090000 0.0001905500 0.0008271496 0.0007651190 1.0042833380 -0.0048190754 -9.7820216265
11.100000 -0.0001350855 0.0002030325 -0.0001540051 0.9943056263 0.0010088060 -9.8004236313
11.110000 0.0010075632 -0.0002721574 -0.0009733914 0.9966362176 0.0026862045 -9.7964869404
11.120000 0.0003642056 -0.0000784102 -0.0009342990 1.0044313560 -0.0028393663 -9.8054374338
11.130000 -0.0007294031 -0.0009555873 -0.0007557183 0.9983295938 -0.0021860112 -9.7958464038
11.140000 -0.0010304025 -0.0006430805 -0.0005703558 1.0008517089 -0.0022514313 -9.7925939466
11.150000 0.0003664531 0.0001277600 0.0003631708 0.9990024678 -0.0051245332 -9.7928548270
11.160000 -0.0004596412 -0.0017360334 0.0024955763 0.9867985937 -0.0048837519 -9.7917676696
11.170000 0.0004031565 0.0011040773 -0.0002966408 1.0015331207 -0.0043380702 -9.7947482255
11.180000 -0.0003560244 -0.0000578635 -0.0005032028 1.0049157211 -0.0005403808 -9.7906555512
11.190000 -0.0008851753 0.0000529896 0.0001116347 0.9997626482 -0.0107304159 -9.7853384797
11.200000 -0.0005799988 0.0008677896 0.0000166331 0.9984922600 -0.0021693783 -9.7898568112
11.210000 0.0002193966 0.0013343877 0.0005630900 1.0001261498 -0.0014141505 -9.7925147476
11.220000 -0.0002569318 -0.0008362601 0.0004349243 1.0133372877 -0.0016582624 -9.7921391186
11.230000 0.0001262938 -0.0009829895 -0.0004326698 1.0003569083 -0.0016200940 -9.7962780425
11.240000 0.0001183346 0.0008937962 -0.0010277276 1.0005221749 -0.0009040456 -9.7994995785
11.250000 -0.0010013574 -0.0003899390 0.0003217582 1.0023983305 0.0029209761 -9.7917254053
11.260000 -0.0001491567 -0.0002239946 -0.0001348941 0.9960082179 0.0061857917 -9.7921392567
11.270000 -0.0009877973 -0.0004691822 0.0000760696 0.9943808264 0.0169254955 -9.7994460162
11.280000 0.0006062438 0.0006356051 0.0014115233 1.0016896788 0.0056765412 -9.7973222223
11.290000 -0.0011482156 -0.0002180365 -0.0016794948 1.0002555179 0.0015369160 -9.7982265173
11.300000 -0.0012073687 0.0006965974 0.0003085094 1.0023800842 0.0056894164 -9.7945176079
11.310000 -0.0005620873 0.0004209615 -0.0003547983 0.9975573361 0.0029047110 -9.8029469911
11.320000 0.0009906826 -0.0010447857 -0.0001826854 1.0054122294 0.0022526454 -9.7924322980
11.330000 -0.0016314689 -0.0000538420 -0.0005750284 0.9944057400 -0.0004144147 -9.7904910345
11.340000 -0.0009106045 0.0004053022 0.0003136528 0.9948979649 -0.0020882265 -9.7943596051
11.350000 -0.0003352980 0.0004744640 -0.0006123922 1.0027989740 0.0041710601 -9.7923283085
11.360000 -0.0005130484 -0.0009576444 0.0007056521 0.9960304420 -0.0016135746 -9.7937601753
11.370000 -0.0007131027 -0.0005843848 -0.0007534700 0.9984329196 0.0003857579 -9.7916795916
11.380000 -0.0002184114 0.0007432050 -0.0000089166 1.0004308678 0.0037265213 -9.7866177169
11.390000 -0.0006365053 0.0002118523 -0.0014192188 0.9929685541 -0.0021374366 -9.8050429704
11.400000 0.0017792866 0.0001962387 0.0005710925 0.9907497931 0.0051961848 -9.8018282100
11.410000 0.0002277984 -0.0002082050 0.0009564540 0.9963528296 0.0045289609 -9.7854064190
11.420000 -0.0000236971 -0.0000011037 -0.0006378829 0.9997561707 -0.0033810573 -9.7888716584
11.430000 -0.0007332264 -0.0004288242 0.0006454365 1.0048074342 0.0011513421 -9.7931198448
11.440000 0.0007739798 0.0008285703 -0.0009456909 0.9944569463 -0.0026205694 -9.7915347575
11.450000 -0.0012461508 -0.0000581479 -0.0002065537 1.0008887619 0.0043328589 -9.7948637338
11.460000 -0.0005432771 0.0003309162 -0.0001772092 0.9956661285 0.0006685401 -9.8004235984
11.470000 0.0000769154 -0.0002256391 0.0003878602 0.9967496313 -0.0099836794 -9.7910417614
11.480000 0.0004046054 0.0001387616 -0.0000269412 0.9924465882 -0.0051697430 -9.7995853695
11.490000 0.0005920606 -0.0011403124 0.0003428918 0.9976084299 -0.0025906682 -9.7971186471
11.500000 -0.0003095269 0.0015128846 0.0006264417 1.0045901913 0.0035079853 -9.7822272404
11.510000 0.0004995755 -0.0010603531 0.0002643100 1.0042327194 0.0012504552 -9.7965362915
11.520000 -0.0012092108 0.0007028349 -0.0004798823 1.0064372706 -0.0017090842 -9.8009107049
11.530000 0.0001972490 0.0004868707 -0.0011222448 1.0009634481 0.0116510568 -9.7946820369
11.540000 -0.0001454085 -0.0003639878 0.0002507254 0.9939393613 -0.0090350512 -9.7860706232
11.550000 -0.0004547012 0.0002352464 0.0015900534 1.0059213363 0.0042640184 -9.7956142910
11.560000 -0.0001534385 -0.0010299252 0.0010875613 1.0007295984 -0.0056492839 -9.7981473122
11.570000 0.0006738691 -0.0005722247 0.0002843865 0.9956230907 -0.0042075728 -9.7937735490
11.580000 -0.0008691128 0.0002292657 -0.0000219304 1.0099439278 -0.0040487601 -9.7959077149
11.590000 -0.0001852344 -0.0000535083 0.0002286598 1.0044351970 -0.0086162616 -9.7938337660
11.600000 -0.0004612117 0.0002184194 0.0002414070 0.9926360002 0.0049652432 -9.7898484458
11.610000 0.0007719725 -0.0007066479 -0.0006800808 1.0014422422 -0.0009920967 -9.7878666424
11.620000 0.0003390982 0.0005339849 -0.0006274062 1.0046949365 -0.0016503675 -9.8042049821
11.630000 0.0004558539 0.0011240415 0.0004496447 0.9965137370 0.0013223872 -9.7939405189
11.640000 -0.0010921343 0.0004308239 -0.0009903456 1.0048519935 0.0011844963 -9.7903623465
11.650000 -0.0013568891 0.0013084985 -0.0001683510 0.9991320796 -0.0066429748 -9.7945760224
11.660000 0.0002628664 -0.0000755062 0.0008223670 0.9980939484 -0.0002812051 -9.7976731235
11.670000 0.0005519574 -0.0010039238 0.0004973855 1.0004528861 0.0027250412 -9.7953783664
11.680000 0.0004520586 0.0011031262 0.0002357599 0.9947020871 -0.0005495525 -9.7933154720
11.690000 0.0013860368 -0.0009101917 -0.0005766325 0.9923877937 0.0094104232 -9.7952733329
11.700000 -0.0009886687 -0.0010208457 0.0004943575 1.0042172047 -0.0081556260 -9.7913483103
11.710000 0.0005692468 0.0000368129 0.0002505063 0.9995056664 -0.0030947552 -9.7990017690
11.720000 0.0001389196 -0.0003179915 -0.0003634546 1.0050108407 -0.0019908306 -9.7961838610
11.730000 0.0003587665 -0.0004472486 -0.0012953593 1.0044030693 -0.0043724731 -9.8044209856
11.740000 -0.0006358750 0.0002621397 -0.0010398295 1.0032293225 -0.0063886571 -9.7947698540
11.750000 0.0004698935 -0.0002686410 0.0003892508 0.9923443464 0.0014300804 -9.7902222803
11.760000 0.0005564221 0.0005248367 0.0017140451 1.0048946474 -0.0038356160 -9.7926314848
11.770000 -0.0007082725 -0.0014222987 0.0008726844 1.0003858742 -0.0046621051 -9.7875092980
11.780000 0.0001132335 0.0001902101 -0.0009058801 0.9997742576 0.0064603864 -9.7979936136
11.790000 -0.0005713944 0.0016999590 -0.0009795818 1.0081316502 0.0039284018 -9.8020457804
11.800000 -0.0007071381 -0.0000640311 0.0005729853 1.0046288271 -0.0017642274 -9.7964315333
11.810000 -0.0009679709 -0.0000437716 -0.0007643048 1.0095825825 0.0058344472 -9.7903912640
11.820000 0.0000084867 -0.0011321083 0.0008081059 1.0045088686 0.0079597248 -9.7965159895
11.830000 0.0010105478 0.0000593593 -0.0009025380 1.0005657601 -0.0022944710 -9.7917074196
11.840000 -0.0011526990 0.0002364060 0.0008450818 0.9925451260 -0.0006363735 -9.7915141067
11.850000 0.0019601999 -0.0006286756 -0.0004916508 1.0000414924 -0.0003769751 -9.7940250762
11.860000 -0.0001745490 -0.0002248899 0.0001806889 0.9930651305 0.0045743121 -9.7993081884
11.870000 -0.0001189178 0.0000588832 -0.0005464431 0.9920854234 -0.0009349018 -9.7951599148
11.880000 -0.0006827704 -0.0010988170 -0.0024239436 1.0035320095 -0.0035830167 -9.7843777865
11.890000 0.0001390374 -0.0006922142 -0.0001495938 0.9921973880 0.0104292459 -9.7818935337
11.900000 0.0018863165 -0.0001061628 -0.0007037727 1.0010649956 -0.0026054177 -9.7993144160
11.910000 0.0002526154 0.0000599300 0.0000390884 0.9990465470 0.0038676073 -9.7942885543
11.920000 0.0014784327 0.0015654298 0.0000757939 0.9914050983 0.0028491900 -9.8003053290
11.930000 0.0006028468 -0.0010115798 0.0005851636 1.0008459561 0.0000636525 -9.7961065523
11.940000 0.0002089209 -0.0002168333 -0.0009271708 1.0021465857 0.0012521249 -9.7940544510
11.950000 0.0010085059 0.0005779390 0.0002710509 0.9982664082 -0.0054968088 -9.7992476556
11.960000 0.0019517617 0.0005196728 -0.0005644388 0.9992439780 -0.0067715944 -9.7968610449
11.970000 -0.0006595703 0.0011695776 -0.0002097077 1.0034437509 -0.0043447256 -9.8006034422
11.980000 0.0000422095 -0.0021054948 -0.0005061361 1.0007456746 -0.0074869505 -9.7941256652
11.990000 -0.0005969036 -0.0006373605 0.0003174498 0.9996023997 0.0099358233 -9.7987435667
12.000000 -0.0004853986 0.0013724957 -0.0002861876 1.0041082661 -0.0076573887 -9.7911338100
12.010000 -0.0008153554 -0.0002826103 0.0009879993 1.0047465142 -0.0102945192 -9.7904805301
12.020000 -0.0016677043 -0.0007933865 -0.0015354576 0.9931370381 0.0040878353 -9.7987616486
12.030000 -0.0002836913 0.0006087670 0.0002567215 0.9970136772 0.0026222208 -9.7933001685
12.040000 0.0019588044 -0.0004026296 -0.0009560897 0.9981107225 -0.0030302752 -9.7913277988
12.050000 0.0005338999 0.0000010365 0.0015408907 0.9945656991 -0.0001301519 -9.7950909007
12.060000 0.0006570606 0.0002863698 -0.0006225925 0.9868143062 0.0067853466 -9.7915243886
12.070000 -0.0000081249 0.0002579606 0.0000845859 1.0088511473 0.0068808152 -9.7945735594
12.080000 -0.0000253556 0.0000829788 0.0002279759 0.9930751775 0.0045025509 -9.7923787052
12.090000 0.0015662652 0.0010573442 0.0008110147 0.9952082559 -0.0013321800 -9.7924086760
12.100000 -0.0001379028 0.0002599843 0.0005396928 1.0066536513 0.0048233093 -9.8003312137
12.110000 -0.0007910110 0.0004891848 0.0004474114 0.9989871744 -0.0030279835 -9.7932503126
12.120000 0.0010589597 0.0004058461 0.0002975017 1.0044771187 -0.0061872204 -9.8021337790
12.130000 -0.0012490735 -0.0011532803 -0.0004692722 1.0009802840 -0.0013851233 -9.8029329526
12.140000 0.0000248757 0.0006249073 0.0009294655 0.9977204436 -0.0031392853 -9.7975195124
12.150000 0.0006072640 -0.0008361909 0.0005943066 0.9944894385 -0.0010881941 -9.7895035461
12.160000 0.0002247939 -0.0007871907 -0.0011598179 1.0040992121 -0.0010544204 -9.8002888722
12.170000 0.0007883988 0.0001783152 -0.0007406378 0.9919296566 -0.0098134936 -9.8035530218
12.180000 0.0007771037 0.0008936572 -0.0002878799 1.0059620942 -0.0057432449 -9.7885424405
12.190000 -0.0005238409 0.0000471921 0.0007655662 0.9936164596 -0.0054131493 -9.7945640415
12.200000 -0.0010309877 0.0003024622 -0.0010329842 0.9947514910 0.0004452863 -9.7924139099
12.210000 0.0002905391 -0.0007666316 0.0004113198 0.9962286816 0.0000392745 -9.8064920232
12.220000 -0.0006711571 -0.0005016657 0.0001432006 0.9947659211 0.0009307354 -9.8001100204
12.230000 0.0000015171 0.0011592950 0.0002769879 1.0037413792 0.0063688481 -9.7947712615
12.240000 -0.0009029005 0.0000598469 0.0011194147 1.0050495577 -0.0080146742 -9.7997956027
12.250000 0.0000440471 0.0010986217 0.0005556373 0.9987527389 0.0030954584 -9.7907189088
12.260000 0.0005210354 -0.0000483860 -0.0001286356 0.9994394399 -0.0149842158 -9.7974376765
12.270000 0.0004785472 -0.0008609760 0.0010854842 0.9966748357 -0.0052399071 -9.7951376002
12.280000 -0.0000451655 -0.0000907609 0.0004249572 0.9966827346 -0.0013220376 -9.7948908591
12.290000 -0.0003030536 -0.0006371102 -0.0002095125 0.9990019492 0.0043249861 -9.7956231282
12.300000 -0.0006287864 0.0009985728 -0.0010556230 0.9979997962 0.0051656688 -9.7937599514
12.310000 0.0004355622 -0.0001919291 -0.0010308567 1.0151934592 -0.0010389861 -9.8017650556
12.320000 -0.0002241421 0.0001663683 -0.0002984101 1.0005317791 0.0015805057 -9.7950152646
12.330000 -0.0013685720 0.0013291733 0.0009280957 1.0003362578 -0.0060200951 -9.7984490158
12.340000 0.0010348965 0.0000494401 0.0000563883 1.0003857148 -0.0049684097 -9.7987750402
12.350000 -0.0002562827 0.0012597220 0.0000742516 0.9947466705 0.0008593161 -9.7899887461
12.360000 -0.0010902725 -0.0006782279 0.0000875053 0.9988597282 0.0036515113 -9.7992509388
12.370000 -0.0000960917 -0.0004307398 0.0003377266 0.9974042111 -0.0081905712 -9.7880338934
12.380000 0.0005428711 -0.0001680371 0.0000442239 0.9949815302 0.0008113867 -9.7896648336
12.390000 -0.0002186257 0.0007966826 -0.0000468549 1.0000734015 0.0015997690 -9.7946147686
12.400000 -0.0003580729 0.0016419722 0.0007227431 1.0020616304 -0.0090653726 -9.7885040127
12.410000 0.0002659559 0.0021875566 0.0006064476 1.0035038306 0.0104794129 -9.8013230121
12.420000 -0.0015569923 0.0000046563 -0.0008724387 1.0010966707 0.0023033915 -9.7966150878
12.430000 0.0006737781 -0.0000425092 0.0005773489 0.9969557730 0.0003021530 -9.7908008053
12.440000 0.0000290996 0.0005937034 0.0002978635 0.9954108587 0.0046570082 -9.7865673062
12.450000 0.0009700826 -0.0019801902 0.0015341602 1.0097676908 0.0002512376 -9.7876379466
12.460000 -0.0002671593 -0.0015290907 -0.0008802130 1.0004313646 0.0064042397 -9.7958685105
12.470000 -0.0016244007 0.0000901050 -0.0006617616 0.9987447449 -0.0022196976 -9.7958065204
12.480000 0.0011763249 -0.0003090894 0.0016637278 0.9999221519 0.0104391569 -9.7874098743
12.490000 -0.0005305666 0.0002749740 -0.0009026957 0.9910133642 0.0087237509 -9.8003875725
12.500000 0.0002929066 0.0005232629 0.0009048360 1.0006841571 -0.0034027171 -9.8026603832
12.510000 -0.0006251612 0.0007680975 0.0013700561 0.9947474752 0.0020008530 -9.7962622947
12.520000 0.0005388597 -0.0004624812 0.0001557612 1.0049161006 0.0045013799 -9.7923580766
12.530000 0.0010211478 -0.0008095514 0.0006006387 1.0069203393 0.0047673000 -9.7917636542
12.540000 0.0002691231 -0.0000338563 0.0005658781 0.9931646928 -0.0002397515 -9.7896306548
12.550000 -0.0002317532 -0.0006335782 0.0006332014 1.0066738938 0.0055261229 -9.7958512148
12.560000 -0.0008599472 0.0005685076 0.0002899053 1.0016593400 -0.0043691913 -9.8006437256
12.570000 -0.0003977621 -0.0008064551 -0.0017481619 0.9929463886 0.0130953727 -9.8010047324
12.580000 0.0001317444 -0.0004274809 -0.0007175783 0.9964155925 -0.0016635707 -9.7907443317
12.590000 -0.0011024116 0.0009709092 0.0005791292 1.0009525564 0.0012922941 -9.7916314264
12.600000 0.0005699206 0.0005705461 0.0009190979 1.0021444708 -0.0008292841 -9.7832133580
12.610000 -0.0000645115 0.0003837739 -0.0004586609 1.0079279831 -0.0023595157 -9.7957195999
12.620000 -0.0002665408 0.0008008921 0.0002661769 1.0014072622 -0.0049102712 -9.7963399536
12.630000 0.0002254308 -0.0009378781 0.0002183042 0.9954019782 0.0015648165 -9.7941150636
12.640000 0.0009424200 0.0012617453 0.0000836646 1.0091292655 0.0059430400 -9.7984503725
12.650000 -0.0004899174 -0.0004148363 -0.0011473075 1.0050246023 0.0042887997 -9.7981548323
12.660000 -0.0000797777 0.0000838770 0.0001320807 0.9970603921 -0.0027970850 -9.7985781476
12.670000 -0.0007844315 0.0000549074 -0.0000902602 1.0029787813 0.0057123300 -9.7937611268
12.680000 0.0007097696 0.0002359065 -0.0000368691 1.0030784727 -0.0009722402 -9.7924891529
12.690000 -0.0000710442 -0.0010654246 -0.0002593449 0.9990426177 0.0013906517 -9.7915001140
12.700000 -0.0006776064 0.0001139476 -0.0001805393 1.0011882771 0.0006434562 -9.7913554767
12.710000 0.0000131035 -0.0005694381 0.0012564487 0.9991505777 -0.0038790732 -9.7905520260
12.720000 0.0005275960 0.0012511000 -0.0007872165 1.0036454626 0.0000855726 -9.7939767117
12.730000 0.0000628562 -0.0009274133 -0.0012349673 0.9954268653 -0.0073135318 -9.7934870931
12.740000 0.0014851288 -0.0005510195 0.0011176333 1.0025388885 0.0075266549 -9.7967067817
12.750000 0.0004225980 -0.0015041429 0.0000021641 1.0038567820 0.0017348731 -9.7990498846
12.760000 -0.0008832723 -0.0008748215 -0.0005833198 0.9989986243 0.0003713110 -9.8035423899
12.770000 0.0004659835 -0.0002476764 0.0001344258 1.0022055890 -0.0075145644 -9.7996961375
12.780000 0.0000631841 -0.0005785147 0.0000072308 1.0025118505 -0.0061366283 -9.7965612956
12.790000 -0.0006194640 -0.0011846354 0.0001261536 0.9926026437 0.0027490707 -9.7983622065
12.800000 -0.0002199809 0.0012414030 0.0003418176 0.9961321483 -0.0086119022 -9.7960366709
12.810000 -0.0002310123 0.0001288424 0.0011140333 0.9986125369 -0.0047480819 -9.7977092109
12.820000 -0.0001167394 0.0002880491 0.0006193374 1.0003748844 -0.0127136870 -9.7951805483
12.830000 -0.0011081835 0.0000125777 -0.0012793711 1.0003120306 0.0079798200 -9.7971989608
12.840000 -0.0005618517 -0.0001239174 0.0008141577 1.0003724856 -0.0059224393 -9.8011433354
12.850000 -0.0001376745 -0.0003595284 -0.0002718499 0.9990789383 -0.0014234299 -9.8005494921
12.860000 0.0001444466 -0.0005063309 -0.0014209079 1.0039566417 -0.0069879429 -9.8038145928
12.870000 -0.0004264520 -0.0014284719 0.0004968727 0.9957197728 -0.0039131559 -9.7933022493
12.880000 -0.0007752134 0.0000835534 -0.0005337765 0.9947712249 -0.0033230488 -9.7917398324
12.890000 0.0015873184 -0.0004241955 0.0005609982 0.9990343330 -0.0017738211 -9.7941989563
12.900000 0.0005486726 -0.0002448466 0.0000136752 0.9996203596 0.0019817651 -9.7926171959
12.910000 -0.0009876353 0.0000015511 0.0004040432 1.0063353431 0.0085719920 -9.7899918944
12.920000 0.0008786126 -0.0009228052 0.0010790073 0.9937824002 0.0008305549 -9.7948345826
12.930000 -0.0012718319 0.0004213279 -0.0006511274 0.9994128424 0.0014025159 -9.7923483788
12.940000 0.0007225732 0.0002697617 -0.0005024387 0.9984353093 0.0038235919 -9.7840019135
12.950000 -0.0004915778 0.0017032999 0.0011751261 0.9904021208 -0.0063466797 -9.8051769643
12.960000 -0.0019947792 0.0000651041 0.0007316900 0.9996736369 -0.0016263656 -9.7966255023
12.970000 0.0003134776 0.0003212164 -0.0001233613 0.9976874131 -0.0027560825 -9.7973353638
12.980000 -0.0003010070 0.0002853375 -0.0003358593 1.0034823299 -0.0036992575 -9.7871431331
12.990000 0.0000678962 -0.0003664657 -0.0000112828 0.9986178205 0.0011452756 -9.7949033473
13.000000 0.0014734725 0.0009875712 -0.0007608105 0.9999233170 0.0023819185 -9.7820509684
13.010000 -0.0000495526 -0.0008613222 0.0011119397 0.9978332649 0.0006845002 -9.7936034939
13.020000 -0.0009863000 0.0005905290 0.0006379128 1.0031988141 -0.0090521621 -9.7891856378
13.030000 0.0000242626 -0.0004196173 -0.0011160932 1.0108072235 0.0061707876 -9.7944167743
13.040000 -0.0002383622 0.0001064949 0.0007980541 0.9912921619 0.0022510537 -9.7962057950
13.050000 0.0011559016 0.0001587667 -0.0010488267 0.9947806861 0.0052200233 -9.7914396125
13.060000 0.0006311508 0.0000672786 -0.0007478483 1.0005352358 0.0038636599 -9.7994785758
13.070000 0.0000514708 -0.0011981044 -0.0000370604 0.9965055244 -0.0064922909 -9.7940783528
13.080000 0.0001460927 0.0006224839 0.0011128818 0.9967010047 0.0042927489 -9.7935393141
13.090000 -0.0003890038 -0.0009027133 0.0002838405 1.0025272544 0.0017032875 -9.8028110625
13.100000 -0.0001009725 -0.0009727472 -0.0006009040 0.9954905499 -0.0042276240 -9.7872155618
13.110000 0.0001002551 -0.0000627029 0.0000926951 0.9923533516 0.0020675387 -9.8037699335
13.120000 -0.0005089245 0.0000970508 0.0010145758 0.9995797045 0.0027213616 -9.8024815646
13.130000 -0.0002368686 0.0006250080 -0.0000622241 1.0034788689 0.0046290133 -9.7958417644
13.140000 -0.0007099567 -0.0013919212 -0.0009777684 0.9980688667 -0.0041777400 -9.7963196288
13.150000 -0.0003987328 0.0005966915 -0.0000980058 0.9991382576 -0.0033010067 -9.7928984265
13.160000 -0.0006241279 -0.0004421703 0.0001326135 0.9966456731 -0.0060861164 -9.7893664798
13.170000 0.0000285280 0.0005433289 0.0015171915 0.9971894079 -0.0048227766 -9.7855133081
13.180000 -0.0008941356 0.0002119426 0.0001141354 0.9984430035 -0.0035584411 -9.7930813160
13.190000 -0.0005973450 -0.0004626022 0.0020997289 1.0027349523 0.0139922978 -9.7962740999
13.200000 0.0013376152 0.0007131879 0.0006575064 0.9912026463 -0.0057981886 -9.7958094371
13.210000 0.0009693259 0.0009381822 0.0004688478 0.9929386823 -0.0002067757 -9.7930925444
