accel_x (m/s^2),accel_y (m/s^2),accel_z (m/s^2)
1.001112793455039673e+00,3.671583423514207176e-03,-9.794568234968277665e+00
1.898232179894360216e+00,2.516958796555809289e-03,-9.780842361646383765e+00
2.705723089695440731e+00,6.113452335300147145e-03,-9.796359600926949796e+00
3.435756731324509872e+00,2.711986937277131339e-03,-9.785190835072219429e+00
4.097913293522141842e+00,4.523954329587635999e-03,-9.790405986963136797e+00
4.678284104461793547e+00,-4.716023991646750568e-03,-9.812029307607495809e+00
5.218701166183279838e+00,-3.801572263499996152e-03,-9.802484923709787523e+00
5.686910908205127235e+00,9.504410810279723121e-03,-9.801758923225481368e+00
6.125051614042205550e+00,-9.635477791584509677e-03,-9.801550518256139100e+00
6.504998278837703651e+00,-2.854210863464099086e-03,-9.798832001817700643e+00
6.865188384406447852e+00,3.869680764210033704e-03,-9.790318301755773334e+00
7.174168815101161556e+00,3.897840166717758160e-03,-9.786316645860521746e+00
7.464967261186061798e+00,-4.066992206926359037e-03,-9.801979482268666999e+00
7.712264955232400965e+00,-7.801745157191825215e-03,-9.790952071869924112e+00
7.939171390926010652e+00,1.736201329915805979e-03,-9.793066757307787640e+00
8.145732652096173254e+00,-6.098029353512834060e-03,-9.805828561502782037e+00
8.331277802783404240e+00,-2.437138484664535219e-03,-9.796550656461128881e+00
8.500817972178786874e+00,-2.177425642695105228e-03,-9.798770036887507473e+00
8.650890532976788450e+00,-3.987185250443050707e-03,-9.807586750412898624e+00
8.772334090970199227e+00,-1.394489476382373278e-04,-9.797984640346143692e+00
8.906325401082984428e+00,-1.961078583123240446e-03,-9.791639462157178286e+00
9.013107911094545344e+00,7.044212177407705930e-03,-9.792996617247673896e+00
9.111764992804229024e+00,-6.734270524208104108e-04,-9.801058388332672067e+00
9.199298202370705724e+00,7.697364044606669863e-03,-9.797190690855297035e+00
9.282285500123460764e+00,5.050126889890742092e-03,-9.792730443610720314e+00
9.347230432101618192e+00,1.493529530358303492e-02,-9.790300331663239319e+00
9.417906719425232609e+00,3.137114139388632889e-03,-9.792205012556193466e+00
9.480502119960728891e+00,-4.987766917960910658e-03,-9.807160811713012905e+00
9.524400638102440197e+00,-4.586345062570029371e-03,-9.780516483320129240e+00
9.575787445826424715e+00,4.750590007719990293e-03,-9.800941428571432468e+00
9.622873251191071731e+00,-1.153849017699613844e-02,-9.797459183526230575e+00
9.650333058591195723e+00,-2.343795460026816633e-03,-9.799683179698089219e+00
9.691763548872485146e+00,-9.254334064618376099e-03,-9.811141051250498180e+00
9.717775311319156728e+00,8.505938430803346769e-04,-9.805841305716175071e+00
9.745309817051385437e+00,3.566239294483695369e-04,-9.789059413561307821e+00
9.777618265568319700e+00,-4.857823602506316314e-05,-9.792643046506920967e+00
9.796761440499800244e+00,6.525102607796958235e-03,-9.801206399753384702e+00
9.819142390462436865e+00,-2.812964722261994833e-03,-9.795675787566263892e+00
9.827165366898075405e+00,-1.455615784807223279e-03,-9.783027752078137240e+00
9.845063502841917114e+00,-1.261598122917383276e-02,-9.802810311795148834e+00
9.864974330921697288e+00,1.601626464892858025e-03,-9.798121277613807578e+00
9.868924118870394224e+00,2.905299951576473944e-03,-9.802374102998294703e+00
9.885816454422693411e+00,-7.405051278608982407e-03,-9.786967653755590746e+00
9.902158679729325286e+00,2.200958652136473983e-03,-9.782894561195712768e+00
9.917208672987179341e+00,-8.819861723338112518e-04,-9.809278024654624062e+00
9.923732440466206839e+00,-3.354726408385414176e-03,-9.791836557320028334e+00
9.928337346849325229e+00,6.857204703364629117e-03,-9.803530975054169261e+00
9.935064267619200251e+00,-3.106207173151904859e-03,-9.777089676798958351e+00
9.941144315197858461e+00,-3.986427579105838656e-03,-9.795863962754603804e+00
9.941294449790724741e+00,-3.679523821436069854e-03,-9.810054055773107962e+00
9.956386864032586104e+00,2.611937931137865102e-04,-9.803493643324186380e+00
9.954463949955632884e+00,4.338278034498210811e-03,-9.799894784866566511e+00
9.963986462326170468e+00,-2.414097213303907120e-03,-9.797623217714749089e+00
9.967060416531564826e+00,6.167957132994289146e-04,-9.796359012017774148e+00
9.968709979081078032e+00,-5.714729446509018984e-03,-9.800149552479906490e+00
9.968353187639369395e+00,-4.746843685988322292e-03,-9.806231402457287416e+00
9.977384194116885041e+00,-2.235869751427719664e-03,-9.791583400292255490e+00
9.982504977151535286e+00,2.448120425179187674e-03,-9.807342320590505480e+00
9.979522871107782578e+00,-2.492067101230606950e-04,-9.789630378081064066e+00
9.987324912365439289e+00,9.967527177908341168e-03,-9.795386151350834680e+00
9.980208992690370096e+00,-1.397480722707918890e-03,-9.805046852505936883e+00
9.983349947560363091e+00,-6.381016952064354208e-03,-9.805610569485311956e+00
9.988441265437813854e+00,-6.901436735135008799e-03,-9.791095886763031331e+00
9.993275670421651213e+00,4.089225060559267821e-03,-9.777405253066559609e+00
9.999245976150236359e+00,1.287966714476443701e-03,-9.793137485367990891e+00
9.986995217421437587e+00,6.030751048325722757e-03,-9.781390126766003945e+00
9.990928342403099904e+00,-2.977208061585325666e-03,-9.790347575738261199e+00
9.996259081388464196e+00,9.840082600862483028e-03,-9.788175902491133229e+00
9.994919234522159357e+00,4.823179842561806270e-03,-9.807510690075170956e+00
9.995477154222092153e+00,2.930256665427120964e-03,-9.798506069756019343e+00
9.992515493246024505e+00,6.440506150802427325e-03,-9.793847862492228273e+00
9.999396276812269946e+00,-5.824920807641984465e-03,-9.786624579387547485e+00
9.987755514422143932e+00,-3.560191817842565465e-04,-9.798664358803971908e+00
9.994432893308829335e+00,-4.557026022447160929e-03,-9.781086200440926248e+00
9.994630912134105927e+00,4.450790091845668699e-03,-9.815261655225775428e+00
1.000714743127628381e+01,1.179275709317301321e-03,-9.787422934449606871e+00
9.994338547101895287e+00,-3.566549914464763266e-04,-9.792996062163700444e+00
9.998701145792516343e+00,4.166830231112060318e-05,-9.799150019515408871e+00
1.000501970953380848e+01,6.762299838752667408e-03,-9.791304449938232679e+00
1.000189971625763441e+01,5.104581600750667246e-06,-9.781536143887477053e+00
9.989402677336022052e+00,-7.004487557341757594e-04,-9.777937692574342421e+00
9.996200267656574212e+00,5.434811494522976717e-03,-9.791408672251286305e+00
1.000203511568007109e+01,1.833612480305868951e-04,-9.795421831370401122e+00
1.000025432403980830e+01,-8.948672699412881307e-03,-9.796395531296644421e+00
9.999920190874384218e+00,-7.203268235008475654e-04,-9.789420319664454695e+00
9.985909313811452748e+00,-4.247068985205436006e-03,-9.802136262481644380e+00
1.000079244851116478e+01,3.764590899866309456e-03,-9.800240507588737771e+00
9.989893135778221023e+00,-1.319063613587728029e-03,-9.788983265658666610e+00
1.001157461297878370e+01,-7.950361596953961496e-03,-9.787469982518915756e+00
1.000021566210530999e+01,-6.455273659645680180e-03,-9.796196255791146612e+00
9.994868981890636661e+00,4.275696314262957508e-03,-9.792608155045968488e+00
9.997327322245402215e+00,6.783324122941545263e-03,-9.811188886451494895e+00
1.000209821612471295e+01,-3.615390272487557267e-03,-9.815555636976498022e+00
9.997567981787552682e+00,-5.183442763576423355e-03,-9.792641026652923131e+00
1.000568938343363534e+01,-5.969250266507287322e-03,-9.811902269489607420e+00
1.000120246082198250e+01,9.647799389952436966e-03,-9.808290157427100198e+00
1.000407449209004440e+01,4.491223531752196879e-03,-9.790483183640324327e+00
9.992208077838892422e+00,6.101509234395148008e-03,-9.797284033080101651e+00
1.000278113429989979e+01,2.348465277668597417e-03,-9.792306364186419643e+00
1.000064297477639563e+01,-1.870493843471096335e-03,-9.788240315387010781e+00
9.994772211515432048e+00,3.614188633138761854e-03,-9.803127384409847878e+00
1.000249012160424655e+01,-8.651856673548036225e-03,-9.800108500498589947e+00
9.992416065400725245e+00,5.207223339520308109e-03,-9.800370277503979821e+00
1.000613692788148512e+01,-6.027089544440376694e-03,-9.802422617213123246e+00
9.991930992435927195e+00,-3.525560635211102099e-03,-9.814122971830929743e+00
1.000275349560061144e+01,9.845296577869870353e-04,-9.791299848691098262e+00
1.000109609680858291e+01,-6.096326137001734612e-03,-9.793426150895696125e+00
1.000078620033657018e+01,4.186015299467434753e-03,-9.808642662612136576e+00
9.992878540684072775e+00,4.468756366190548314e-03,-9.793660457842587874e+00
9.995244886906945680e+00,-6.440100643440995615e-03,-9.805091698725886928e+00
1.000692078776225458e+01,2.820777008760371341e-03,-9.806758717715599261e+00
1.000887803387867869e+01,-8.283820738455141552e-03,-9.788086210426079958e+00
9.998754526994268588e+00,-6.215309674877209263e-03,-9.797571714869059534e+00
1.000286056849935434e+01,1.922760324025292006e-05,-9.792671181771591904e+00
9.997534950021449873e+00,-2.483212328737287658e-03,-9.793377130769597372e+00
9.998362094128239619e+00,4.374824711424156053e-05,-9.784734602508631696e+00
1.000899529345900163e+01,-7.186363668118466233e-03,-9.807483854532947021e+00
1.000241856774000127e+01,1.154929834721621048e-04,-9.790477840457954883e+00
9.998579245800346627e+00,9.953236455988048823e-04,-9.797979340422388717e+00
9.993361123149931302e+00,-5.354654840496810312e-04,-9.783515390032302861e+00
1.000325398896014839e+01,2.055353565534730805e-03,-9.788801801250846424e+00
1.000161046205777637e+01,3.904683659161889073e-03,-9.791019025017165589e+00
1.000557204927572919e+01,-2.515351139677879377e-03,-9.794403291845412696e+00
1.000930104523958875e+01,4.629957304873326862e-04,-9.802756109881759272e+00
1.000336895893120648e+01,2.353229560674478717e-03,-9.802216454222117292e+00
9.990114908448953557e+00,-8.822450525603408797e-04,-9.780865729541293518e+00
9.992489050434370412e+00,-1.099834109417022025e-02,-9.792774838065470888e+00
1.000145177414960784e+01,2.375320556067242374e-03,-9.795313064938302006e+00
1.000369106952621223e+01,-8.382565741065651360e-03,-9.797310882564824297e+00
1.000029529660436545e+01,-1.036746835852451164e-02,-9.781147007963721052e+00
1.000422749119830002e+01,-2.857863218715190473e-03,-9.806113803167768594e+00
1.000760822974999087e+01,-9.202459226738267557e-04,-9.800961263148911584e+00
9.996943315981411615e+00,-1.437851386010412951e-04,-9.799296603454367371e+00
1.000101894047779361e+01,-1.052519719772029112e-03,-9.786707213333984967e+00
9.994057786826861189e+00,-2.741404984232475705e-03,-9.780827888986738827e+00
1.000156386342001369e+01,1.848124387745898141e-03,-9.803886681848995366e+00
9.996553620386858796e+00,-2.914679927245095691e-03,-9.793719629957374551e+00
9.993590455042360432e+00,1.207556113945394390e-04,-9.799652297659951827e+00
9.994462186583753294e+00,3.259195602767690682e-03,-9.794482943998817248e+00
1.000180579763463484e+01,-4.593971720675656817e-03,-9.801073513604219301e+00
1.000045280867639974e+01,4.787738152333568219e-03,-9.792257681358671917e+00
1.000625185235328729e+01,-7.429221036431079249e-03,-9.798711821781816766e+00
1.000578490116045671e+01,1.725182560940724443e-03,-9.801048490468907914e+00
1.000337035374400863e+01,1.587833001083413607e-03,-9.780229547645118870e+00
9.994624736827610434e+00,1.118726688261487742e-03,-9.791906280784587580e+00
1.000349218410391217e+01,-9.184329971294553224e-03,-9.785476123234573720e+00
9.997535278344889420e+00,3.149858566315198467e-03,-9.806545979869557783e+00
1.000305575099030975e+01,-4.989951772982927081e-03,-9.799291087773207565e+00
1.000178170506919528e+01,-3.638797307217992078e-04,-9.790748954337283649e+00
9.997785110676186804e+00,6.377947550640448299e-03,-9.788995331504937170e+00
9.989816499149485551e+00,-2.532981687577074825e-03,-9.783038400759695108e+00
1.000246971560424925e+01,-7.190711376604677803e-03,-9.813383293681406272e+00
1.000103724397767913e+01,1.866314581909143695e-03,-9.788119018066968380e+00
9.997579486008270067e+00,5.681217562410104290e-03,-9.807956283559761346e+00
9.997705620658154047e+00,2.751114091162228624e-03,-9.793587380550397015e+00
9.996953085979544795e+00,3.418454964409274252e-03,-9.802091275113715696e+00
1.000598203476042691e+01,2.176189880652213457e-04,-9.803572837266925077e+00
1.000101712695408551e+01,3.885702808697227232e-03,-9.811891950716780997e+00
9.994937416978936895e+00,-2.473859602361921754e-03,-9.791224966801491902e+00
1.000597954810047163e+01,-8.237100853412530552e-03,-9.804869437570516766e+00
9.995736084104942520e+00,1.080014170478876476e-03,-9.793933588357703002e+00
1.000623343650685726e+01,-1.181231057369836607e-02,-9.786666807032030846e+00
9.998975387446538576e+00,-9.948599881828721833e-03,-9.795050031339568974e+00
9.999746152989109405e+00,-1.326874659485950680e-03,-9.797029042739815452e+00
9.998415969957017424e+00,-5.583892131173513046e-04,-9.791555976820685459e+00
1.000593671123121808e+01,-6.134588132491459490e-03,-9.805381472394381959e+00
9.998874744921932844e+00,3.656035097969661651e-03,-9.804478888813525472e+00
9.995918394009901675e+00,-5.536639169650461314e-04,-9.804678182519365848e+00
9.995184997108848890e+00,2.711438160753633538e-03,-9.784155496614481251e+00
9.989013152807201479e+00,-2.683663575498832377e-03,-9.791059439527638020e+00
9.999746824488973118e+00,1.944425755977408771e-03,-9.801386765422005709e+00
9.992558802765680426e+00,-1.386211101886512071e-03,-9.789070410912607656e+00
1.001346370331653901e+01,-2.969684835514181925e-03,-9.792893843674077559e+00
9.997510223676526309e+00,3.998134418307623542e-04,-9.805844737787593246e+00
9.994691193544205987e+00,1.617388393528107655e-03,-9.785318612431399998e+00
1.000099576640624122e+01,1.625344788990441477e-03,-9.796732040816234388e+00
1.000288246452882213e+01,3.113474713791548193e-03,-9.790205697522180728e+00
1.000731396436098386e+01,3.467386092246982441e-03,-9.803558275975881031e+00
9.996743881252793784e+00,-5.836716852101225123e-03,-9.798077221857539598e+00
9.999938187978422377e+00,2.801536048101729718e-04,-9.805279652682342473e+00
1.000043089574219479e+01,5.544913286202414254e-04,-9.805358086641197346e+00
9.996700363719281057e+00,3.135210472073548475e-03,-9.797058265500897534e+00
9.997427845099926103e+00,-4.438397317492211842e-04,-9.794260456746878063e+00
1.000060819735166184e+01,-1.940428792000808804e-03,-9.791081973407944616e+00
9.998807345380381406e+00,1.191177016627207067e-03,-9.798551224214019584e+00
9.997421332924592008e+00,-2.793182148340673035e-03,-9.790937113052660123e+00
1.000354370889786182e+01,4.715975811020200505e-04,-9.798978776726668727e+00
1.000054182076249099e+01,-7.006461598898356541e-03,-9.794087354315063720e+00
1.000672675649257748e+01,-7.420084274308743656e-03,-9.787649794379207790e+00
9.991019663226607506e+00,3.335409546120085902e-03,-9.794711292120100055e+00
9.989186013387486796e+00,-3.754166868009679078e-03,-9.799446344221234284e+00
9.991756521356608189e+00,2.313288436463166540e-03,-9.795934017601874544e+00
1.000278139349857298e+01,-1.548820269989274875e-03,-9.795824484401130405e+00
1.000336889636683146e+01,-1.572888225001655912e-03,-9.790208323312675986e+00
1.000389720102043434e+01,-3.694839321833564682e-03,-9.781469948304300388e+00
1.000291314333556159e+01,1.499397561645624075e-03,-9.779212179404114025e+00
9.993266304031200420e+00,-4.551178840778061230e-03,-9.792105400014191829e+00
9.997060847640041104e+00,4.363135391650415197e-05,-9.787186328312118988e+00
9.992658610220043869e+00,-9.266838448795968602e-03,-9.807145817649660202e+00
9.991792480354444450e+00,-4.526201027026278446e-03,-9.791524556142666924e+00
9.998173255397430736e+00,-3.499598907345464853e-03,-9.797829975586790141e+00
9.996741651660258299e+00,4.638780682304084226e-03,-9.774555744239078692e+00
9.992789272086609387e+00,9.225680447334839301e-03,-9.802662242721050134e+00
1.000031570747140997e+01,-1.180065092953454936e-03,-9.787582622543910205e+00
1.000920009188146409e+01,-3.472769135153683934e-03,-9.798023379137431377e+00
9.989073504806951220e+00,-9.476106745378805101e-04,-9.800583226605095177e+00
1.000525872619635592e+01,-1.664662966278501570e-03,-9.790415403164566044e+00
9.998049955569719316e+00,-4.332466319427343178e-03,-9.798795532216502124e+00
9.993100099904911104e+00,-2.505340816515497357e-04,-9.791683415672469692e+00
9.993903394143076824e+00,-2.461465993215598228e-03,-9.798716326493080331e+00
9.996026682296355048e+00,3.917858151499336271e-03,-9.788938620055059658e+00
9.994744692874096614e+00,5.376831525789995195e-03,-9.807003335040674230e+00
1.000021042950838357e+01,6.799171006796719992e-03,-9.803788627371982756e+00
1.000273122542368220e+01,-5.089126158244896593e-03,-9.799237023332219465e+00
9.997457790180142467e+00,1.535997206871210800e-03,-9.803393762119412713e+00
1.000247740465029622e+01,-2.551132316158081711e-03,-9.809080541825535349e+00
9.995223508603974238e+00,1.587093412360669840e-03,-9.798763761682810269e+00
1.000473591100954529e+01,-7.123337896346206878e-03,-9.777562419019586670e+00
9.992631003008417778e+00,6.795502569114737247e-03,-9.796189868102247900e+00
9.992421409420565226e+00,2.991481291566207203e-03,-9.796124437357377701e+00
1.000353868181047545e+01,-7.712888408035137137e-03,-9.794253021015595806e+00
9.998156795132493002e+00,-5.893891334470250168e-03,-9.794789188784726264e+00
1.000209665571522066e+01,-1.376033823893062311e-03,-9.793343854676383131e+00
1.000247329446700206e+01,2.384532795228510617e-03,-9.797789375217618613e+00
1.001080578717291480e+01,3.048043178930447995e-03,-9.797659113628395033e+00
1.000214024265502211e+01,5.129051524071069450e-03,-9.781809167337547350e+00
9.996282658376498986e+00,2.399483026365732078e-03,-9.812055964851987611e+00
9.997497421575811671e+00,1.044413356193452233e-03,-9.798657516267727630e+00
1.000246200286978926e+01,3.348254806414076301e-03,-9.796395219972010793e+00
9.995320900195020286e+00,-7.152513973433762516e-03,-9.781118582468394607e+00
9.997838444080516140e+00,-8.575747968598555412e-03,-9.797418139964293005e+00
1.000007394086849111e+01,-2.808073090652613360e-03,-9.793665001446532514e+00
1.000106707276261986e+01,5.139471138041696620e-03,-9.800917726374356320e+00
1.000558746672998822e+01,8.175523400188873871e-03,-9.805397067137443301e+00
1.000767713349988242e+01,3.937890150754417076e-03,-9.804013872778563510e+00
1.000146674559601223e+01,4.492648912973809527e-03,-9.808728064257794088e+00
9.997300807517339294e+00,4.603558442414008856e-03,-9.793871398341783774e+00
1.000222544818866055e+01,3.618542767840293283e-03,-9.791294996198374179e+00
9.993231722809124307e+00,-5.781370853844405855e-03,-9.792169199334049168e+00
9.998468675211915624e+00,4.456444872966590885e-03,-9.787012887749286350e+00
1.000386146394586895e+01,-1.313416044830312398e-03,-9.811234981360696494e+00
1.000381408539242578e+01,5.561229650977518417e-03,-9.783029051116120201e+00
9.999460238260576617e+00,3.086163606540884632e-04,-9.801734908409763136e+00
1.000184313865488406e+01,5.395333423047862786e-03,-9.784026063082812641e+00
1.000411157384808192e+01,-2.659832553096168253e-03,-9.798121445099269522e+00
9.997154830778823609e+00,-2.317732841746216431e-03,-9.798192246348765622e+00
9.995185628907909958e+00,-4.247206957182053622e-05,-9.782580391258278496e+00
9.995168955529310395e+00,3.415759602699108919e-03,-9.777978418540991257e+00
9.995636113965463920e+00,2.586286834506151388e-03,-9.791537975766152258e+00
9.997791770172783643e+00,4.460496264509737456e-03,-9.795384731023258240e+00
9.998621031374112178e+00,5.301740766198276798e-03,-9.803544565590323501e+00
1.000249722439877331e+01,9.190037203382543738e-04,-9.793204148035940193e+00
1.000450343415537979e+01,6.298754923662433806e-04,-9.800862209841859851e+00
1.000323823988539829e+01,-1.169766585407081699e-02,-9.793252664439371813e+00
9.993465008907831404e+00,3.754006959053880418e-03,-9.786778887437915131e+00
9.989604631493634201e+00,9.750320733264384795e-03,-9.801764250524563238e+00
1.000553563803035217e+01,-1.598461060104117127e-04,-9.800124830245056984e+00
9.996426435312873338e+00,-3.017795065416224286e-03,-9.783492026713810574e+00
9.998091133849822398e+00,2.706664308839932913e-03,-9.803136537720533283e+00
9.996043316236281839e+00,-6.071982927271832309e-03,-9.784495731706901012e+00
9.992411533247619104e+00,2.291670438128187368e-03,-9.802443847357279694e+00
9.995719544640440546e+00,3.294154383692499740e-04,-9.784513904520078853e+00
1.000063635093302494e+01,-4.574308027915691480e-03,-9.799991950390818829e+00
9.990504737859041029e+00,2.309166789343283094e-03,-9.804527280291113200e+00
9.995351893174332147e+00,1.749440819276084800e-03,-9.786782225597091767e+00
9.993505846656598024e+00,-2.014670965047422001e-04,-9.795445744371297891e+00
9.991537517737262064e+00,-5.401053727955774930e-03,-9.789487136398285827e+00
1.000356813590187066e+01,-1.306996763569450161e-05,-9.787920614834330735e+00
9.994085509187913274e+00,-2.619961062365866889e-03,-9.790323473780059516e+00
1.000040662006484204e+01,-6.227917043636866171e-03,-9.795023993936311513e+00
9.996919616384744245e+00,-1.821529948197218559e-03,-9.806522421443835569e+00
1.000482485583524372e+01,4.913198059092392135e-03,-9.813100208802731927e+00
9.997450318601574182e+00,2.836589265464097356e-03,-9.788511356229124161e+00
9.993735344123287234e+00,1.426282108587434037e-03,-9.796434728574862305e+00
1.000023189153981917e+01,6.607486880847648382e-03,-9.803112947851957415e+00
9.995065851139889546e+00,-6.545276847050753369e-03,-9.785952101097294076e+00
1.000542840804120814e+01,-6.845140179272414180e-03,-9.804486205653013542e+00
9.997760996972427705e+00,2.438536363490340086e-03,-9.786354831336366189e+00
1.000460076019470534e+01,1.296809556617256522e-03,-9.795775939552081368e+00
9.994638181303164615e+00,4.521262987176003986e-03,-9.790207370147049559e+00
9.994183251180119854e+00,2.397539884764072950e-03,-9.788271333674126495e+00
9.990358001853721248e+00,3.878876399480566967e-03,-9.795011192938687827e+00
1.000661104907748467e+01,2.199975100270761159e-03,-9.793750008770587101e+00
1.000016210086999457e+01,3.611646531888691117e-03,-9.784053738811236300e+00
9.993449376015732355e+00,1.059198853368373446e-02,-9.797540435206547826e+00
9.996117316036729150e+00,-3.747766938638346767e-03,-9.796595876607453235e+00
9.989777224646783083e+00,1.021939269316274497e-02,-9.801657792481440978e+00
9.998686872208448762e+00,-1.120304265450226388e-03,-9.791615646741353984e+00
1.000908506199663428e+01,6.349680062443528554e-03,-9.787926954332627716e+00
9.998574921033707597e+00,-1.889917552837042276e-03,-9.793925364423195390e+00
9.998674276271074746e+00,1.048278061191828744e-02,-9.796807567945997164e+00
1.000178966361063360e+01,-4.440473552012545386e-03,-9.805142674410735282e+00
9.998272517619156474e+00,2.636537170003812672e-03,-9.800717443088512226e+00
9.994848962149042393e+00,-1.228019726573509156e-03,-9.785432162730543837e+00
9.999942771687816645e+00,1.070718037062484175e-02,-9.808261583048670573e+00
1.000338658691620353e+01,-4.784592185003208446e-04,-9.783955102593502318e+00
9.991350715493439338e+00,3.244134321994151041e-04,-9.786728917777447023e+00
1.000392213196062841e+01,7.500284000244818779e-04,-9.801680148665758097e+00
1.000804792327961223e+01,-6.171528386049161298e-03,-9.799475615960973940e+00
9.995580711070950031e+00,-2.616092069043296671e-03,-9.803888723525650661e+00
9.991834815990255692e+00,-1.498602823462441168e-03,-9.795949004583835773e+00
1.000549128953794842e+01,3.616146994265999164e-03,-9.806840261042538032e+00
9.990987329368582692e+00,9.773310395766174937e-04,-9.804321362856931898e+00
1.000162505536465041e+01,-1.444790897094436026e-02,-9.788238485561885582e+00
1.000363177107014323e+01,-5.684438448592249275e-03,-9.805043166426859358e+00
9.998576040856953284e+00,1.151717735513676242e-03,-9.784367461662585086e+00
1.000146802648594679e+01,-2.182873728357457351e-03,-9.805240871025635130e+00
1.000152253597943464e+01,-5.634322732255260535e-03,-9.798359495280303477e+00
1.000207587846503365e+01,-6.420678483832074207e-03,-9.785587401073685854e+00
9.999787907226572514e+00,-2.767604234009904234e-03,-9.792769970641424848e+00
1.000312682183493074e+01,3.828743912982635143e-03,-9.796606207026020030e+00
9.995445389808992331e+00,-8.879493722066724576e-03,-9.808075576777357085e+00
1.000237140152316861e+01,4.187848135151855077e-03,-9.791096414860707142e+00
9.994280126144353460e+00,9.095024846127361048e-03,-9.804466609707942482e+00
1.000395119993542181e+01,-2.298901704251076622e-03,-9.796628120177748755e+00
1.000510403580404883e+01,-5.597034273075514321e-03,-9.787278511300218753e+00
1.000373902511462099e+01,-1.883819471984292046e-03,-9.784805392702660143e+00
1.000820435080017923e+01,5.456557357180654745e-03,-9.784586066154567163e+00
1.000284066496900337e+01,4.400917787156215059e-03,-9.785803041117723922e+00
1.000766015384726693e+01,2.062807272047060495e-03,-9.787203262364522871e+00
1.000085848446199854e+01,4.195679352164651509e-03,-9.796157411128211479e+00
1.000603816797769952e+01,-6.209312226044113800e-03,-9.787565089688772701e+00
9.994491104434541029e+00,-6.204498628044013519e-05,-9.800154400554470513e+00
1.001099034738561144e+01,-6.094130928715613647e-03,-9.787168648767760715e+00
9.993574532264384302e+00,-9.104703705834065472e-04,-9.795211868624457807e+00
9.999087872783444908e+00,-5.836058024106910132e-04,-9.804472892388005789e+00
9.996294220726259283e+00,4.263900616054363060e-03,-9.804825777839413448e+00
1.000143415329223551e+01,-8.064661184645730008e-03,-9.803610561984323013e+00
1.000045519895817492e+01,1.319513904486942181e-03,-9.802791807116436829e+00
9.995956096332273333e+00,-1.533330100672631539e-03,-9.790506102226492757e+00
1.000374120577251880e+01,1.083727747227826530e-03,-9.794458089807388745e+00
9.995232067232576512e+00,-4.546043483963066283e-03,-9.801782135660827677e+00
1.000146184458478160e+01,3.855264356281956476e-04,-9.797331983836890856e+00
9.998909758475164722e+00,3.411254253999611991e-03,-9.804382407372866481e+00
1.000028001856535909e+01,-8.004839459854435485e-03,-9.785403891078688687e+00
1.000404625873641784e+01,-8.721757830817909382e-03,-9.795234136828341320e+00
1.000554123490867653e+01,2.491544189846596393e-03,-9.795795105189746721e+00
9.996749172885314394e+00,-7.976725381708633933e-03,-9.801956016198335675e+00
9.994120070814682677e+00,1.043572185983672083e-05,-9.803242390649796079e+00
9.997649722001355599e+00,6.135959242129548040e-03,-9.792859688360955772e+00
1.000770666307698598e+01,4.004783370365471730e-04,-9.809635706734091798e+00
9.996767203501446986e+00,-6.693762345379096652e-03,-9.801381304826627172e+00
9.995325109148669895e+00,-5.942977759712686318e-03,-9.793854966053055833e+00
9.990517350001026031e+00,-8.019447026219489222e-05,-9.792352333891495064e+00
1.000184483241505262e+01,1.376344861388375499e-04,-9.800476654770024609e+00
9.992360997566555270e+00,7.327090128283616013e-03,-9.797988652763342188e+00
1.000416728893189777e+01,-3.262048252153496031e-03,-9.807320398087805202e+00
9.996703905453154348e+00,-1.075736157741822956e-02,-9.779465260327855347e+00
1.000085686150795183e+01,-9.948856616443860212e-03,-9.782999451131724200e+00
1.000380792731270674e+01,-1.929547781569510055e-03,-9.787818579085609372e+00
1.000519713538570343e+01,1.898885090055759837e-03,-9.779215435626362307e+00
1.000269863125403091e+01,3.515979116313486860e-03,-9.779563791838274511e+00
1.001101478477602846e+01,-8.205194045378107160e-04,-9.786628685961357377e+00
1.000615660625824432e+01,2.026744729765423032e-03,-9.794893608732197166e+00
1.000063438623249645e+01,6.642214790709703894e-03,-9.786523267960305361e+00
9.994539285360003689e+00,-4.417101101670838949e-03,-9.796495811500706807e+00
1.000662010525523549e+01,7.786827623411239803e-03,-9.786180304293772281e+00
1.000440950954503272e+01,2.604872666970336429e-03,-9.789678517931104551e+00
9.999970044440662065e+00,9.110963606612046753e-03,-9.800472510890269717e+00
1.000105635216319833e+01,6.194159807590561128e-04,-9.805280388384353785e+00
9.995504791047546078e+00,-6.335674871661202759e-03,-9.793715102771322734e+00
1.001096837653546068e+01,-3.370158194543052942e-03,-9.784325569389588750e+00
1.000211105708894443e+01,9.194664444723797680e-03,-9.794428285837867065e+00
1.000079123330777264e+01,8.714075897990595024e-03,-9.798910401546697457e+00
1.000764166997765514e+01,-3.338863693459845610e-03,-9.789457261270211319e+00
9.993284863693030928e+00,1.740846424857609050e-03,-9.793456821060754436e+00
9.997085780168314173e+00,-2.197801091273125437e-03,-9.789000854549115616e+00
1.000205616900820438e+01,-7.822209254033563389e-03,-9.783468255267068869e+00
9.997967935027100239e+00,7.587898480009631907e-03,-9.798461169765630530e+00
1.000744584291239825e+01,1.012960251907226448e-03,-9.791118075185625713e+00
9.996146365673512335e+00,9.316322233993351099e-04,-9.815796344448980193e+00
1.000395440341797659e+01,4.989312208695687555e-03,-9.798775889546515572e+00
1.000841189655553265e+01,3.669306739333839159e-03,-9.801530112693615848e+00
1.000597389266179604e+01,7.709640939832073520e-03,-9.800372954270573089e+00
9.995420896798492549e+00,2.385830809253098044e-04,-9.786966116484688172e+00
1.000271325637690190e+01,3.913852791448735324e-03,-9.791280177538348894e+00
1.000236652759808109e+01,4.967798848103633161e-03,-9.802696150188367596e+00
9.993144863389311183e+00,6.629120326341177670e-03,-9.801449371955428091e+00
9.999364779531340730e+00,-9.154441901663668349e-03,-9.798437813638731342e+00
1.000104983893427502e+01,-5.735593434724582489e-03,-9.798029248692687432e+00
1.000024171364914238e+01,-3.841616385597529989e-03,-9.802637361265185589e+00
9.999052038356158079e+00,-1.562733117480950926e-03,-9.803987085838016924e+00
9.998704602279838483e+00,-3.847525269722832796e-04,-9.782070921956202980e+00
1.001139443736537160e+01,-5.470786800494087734e-03,-9.797877426406810031e+00
1.000157765610867067e+01,-2.175836758151703746e-03,-9.800121145815710477e+00
9.998741420456635609e+00,4.710665963556496909e-03,-9.793488607289919656e+00
1.000053371539008396e+01,-2.336434152440955338e-03,-9.797262951581382495e+00
9.988142423507191836e+00,-2.538292729285026184e-03,-9.798064362206879707e+00
1.000397793459920415e+01,2.870324789092055639e-03,-9.790713383841097794e+00
9.999068998375403083e+00,-5.282485101445662593e-03,-9.788030978424680839e+00
1.000326331159777382e+01,5.246809312880980954e-04,-9.800196891799885179e+00
1.000101387334999536e+01,7.994218547789588847e-03,-9.823699158358200734e+00
9.996438315743477077e+00,1.334535196214851893e-02,-9.806164959701712647e+00
9.994952755699660685e+00,-3.581537974136498551e-03,-9.797876887343223373e+00
9.998990844191734340e+00,-1.325206631774230107e-02,-9.799809474416864674e+00
9.995601665041798256e+00,9.866103313645502998e-03,-9.805913964641071345e+00
1.000169314265904497e+01,6.720659267413443307e-03,-9.790639368078950966e+00
1.000510672378710630e+01,-1.495134796962756816e-03,-9.790560550038023280e+00
1.000217044256958587e+01,-1.227522396336114307e-03,-9.790569324616990698e+00
9.994316846159289724e+00,3.963535946975877723e-03,-9.788932103994889999e+00
9.988324490282685986e+00,4.168392088964321734e-04,-9.781297207863746124e+00
1.000614884001401350e+01,-1.865790555585981501e-03,-9.792902592244820070e+00
9.993975363228337017e+00,9.009099893895349681e-03,-9.794147812192042224e+00
9.994520277133846164e+00,2.590661969217940459e-03,-9.799478424785560193e+00
9.993363343235509788e+00,1.696455093913987839e-03,-9.793548887827132177e+00
9.990604925264452874e+00,-1.435648329644702032e-03,-9.792677975458536466e+00
1.000185509461696043e+01,8.312274400494094190e-03,-9.803959533800963300e+00
9.995358448917812666e+00,2.768739290901371664e-03,-9.804997224984767001e+00
1.000123809357234528e+01,3.146509300684294762e-03,-9.794079107704295240e+00
1.000227093388873456e+01,1.957188702290705955e-03,-9.796098702881126385e+00
9.993904092522214455e+00,1.710416541841168264e-03,-9.802185118750427861e+00
1.000277624004662869e+01,-7.775477034330698263e-03,-9.795026316252792853e+00
1.000225183681829932e+01,2.397037283032672685e-03,-9.790677683033981893e+00
9.993567113872785512e+00,-3.364844563399210179e-03,-9.794867542595735443e+00
9.995731745129942780e+00,-2.530440361102414583e-03,-9.792624493535814878e+00
1.001113995799150480e+01,-4.809593329823513147e-04,-9.796897339732483445e+00
9.996673872937570593e+00,-1.031252549745062704e-02,-9.802686415035703149e+00
9.999251923782853879e+00,6.022555947225831374e-03,-9.797559735657452862e+00
1.000228963470517130e+01,-5.433043265591828291e-03,-9.799499669500690402e+00
1.000456470787611529e+01,-7.582176703336193473e-03,-9.778984103725461452e+00
9.999451806815441657e+00,-2.895029039039556228e-03,-9.793290230468544522e+00
9.995426374689408533e+00,6.841316158970568544e-03,-9.787153487274469654e+00
9.997905696370178674e+00,-3.535069727797014987e-03,-9.800469428365538249e+00
9.996726499263601795e+00,-2.986199992732178725e-03,-9.794415676618610789e+00
1.000488940506735069e+01,-2.939801236749218886e-03,-9.810449774967652914e+00
1.000165692435732367e+01,-3.769966228603211476e-04,-9.799487205688025782e+00
9.999606980493890518e+00,5.570883891394773531e-03,-9.804587921237942538e+00
9.992692876208673525e+00,2.230127471327994580e-03,-9.804449808849902581e+00
1.000405842634616604e+01,-1.019377251386796926e-03,-9.792188586570979680e+00
1.000016356367792802e+01,2.175392175670789064e-03,-9.786899643442419361e+00
9.997586582899822716e+00,1.473476586671092041e-02,-9.803182189530732060e+00
1.000352118542426894e+01,5.086408952567162897e-03,-9.806380966669269839e+00
1.000394553957760913e+01,-7.977770120003136681e-04,-9.805305690295888610e+00
9.992981103760158135e+00,-6.239559115007665274e-03,-9.806014431461175462e+00
9.993113415507231423e+00,1.198999809031800652e-02,-9.807115911554502574e+00
1.000357158886509978e+01,-4.958494304398279942e-03,-9.810685207218583059e+00
1.000279718382120286e+01,-3.763996656554420128e-03,-9.797129801288663842e+00
9.997383502535830857e+00,-7.040909586770943175e-03,-9.805689020998302752e+00
1.000104353515870947e+01,-4.636475629656700405e-04,-9.793374832785099571e+00
1.000335305114833062e+01,3.058324065046702793e-04,-9.793626073522927911e+00
1.000424727221768784e+01,8.375858482390977772e-03,-9.785132347060757851e+00
9.994322026422510774e+00,3.332968713105284413e-03,-9.801114784820365244e+00
1.000342191539268910e+01,-6.937213235925856342e-03,-9.798927994714249579e+00
9.992972964727650620e+00,3.800919199762451198e-03,-9.787166373346870785e+00
9.998844170297365608e+00,3.498634452765040335e-03,-9.787272416213825821e+00
1.000018769329443558e+01,3.373320626287345733e-03,-9.806926239665889611e+00
1.000346308105969051e+01,-2.999057675919292610e-03,-9.804900996755002041e+00
9.998089680415624514e+00,-2.353548103494757643e-04,-9.793437858534046470e+00
1.000056603657609067e+01,-2.420522250589219552e-03,-9.807959556840275539e+00
9.997450178275654409e+00,7.693497050813639417e-03,-9.793781187790237652e+00
9.996183009975466049e+00,2.327904282097736661e-03,-9.800396787852969638e+00
9.998913367430505517e+00,-5.792813817704166486e-03,-9.798190052756028834e+00
1.000070591556816701e+01,-4.988130195218625461e-03,-9.792487434614619346e+00
9.990586860258668267e+00,-4.760171469439974088e-04,-9.791699647865142353e+00
9.994475427547916624e+00,3.398203258887997225e-03,-9.798316162017206565e+00
9.999773006777973094e+00,-4.405605390106289224e-03,-9.788571290314234119e+00
9.997112747127054888e+00,2.002649610532810081e-03,-9.794301861957457334e+00
1.000735961661425577e+01,6.583991933992993165e-03,-9.802397701828907017e+00
9.998954471280576684e+00,-3.980833643578856468e-03,-9.794373228336107573e+00
9.991350792942839121e+00,2.325915611605982453e-03,-9.804834797594926599e+00
9.998782415203629981e+00,-1.517224710550378912e-03,-9.794811158303922127e+00
1.001025846134457886e+01,4.439204492299293758e-03,-9.791231642326746254e+00
9.995874766088805430e+00,7.527555762881558282e-03,-9.806497358319415270e+00
1.000185862531387215e+01,-7.621595974562645967e-03,-9.801958635124570662e+00
1.000327086997452319e+01,-3.143623162830695011e-03,-9.794691656723431450e+00
9.992551660925689916e+00,-1.284414543299264083e-03,-9.800115236143577491e+00
1.000067383270708454e+01,-3.297252567348088297e-03,-9.798908844851949240e+00
1.000171104043189985e+01,-1.471398760581728088e-03,-9.783321617456792296e+00
1.000917892636417506e+01,-6.404593919877660246e-03,-9.798729182122423609e+00
1.000040576796659586e+01,1.938972037501318201e-03,-9.787535891787923603e+00
9.995920463922860932e+00,5.282543115985598517e-03,-9.795357798455111009e+00
9.996197186931251366e+00,-7.064691844438199600e-04,-9.801682433109860426e+00
1.000032798834979708e+01,2.149303996371171581e-04,-9.795251628217219064e+00
9.999314517590237372e+00,3.915736742745746374e-03,-9.781929041379862966e+00
1.000026133125677497e+01,3.601070833251841276e-03,-9.797020889172070923e+00
1.000407692660344772e+01,-3.314474917032373628e-03,-9.807231120777959887e+00
1.000302323474391564e+01,9.191536129353554060e-03,-9.796737738215286484e+00
1.000879737901752442e+01,-7.626561115799330645e-03,-9.790108974014330556e+00
1.001062224266029510e+01,8.927574054871377160e-03,-9.792090632153820806e+00
9.999801063185332239e+00,-2.808428152944062329e-03,-9.789862577288110046e+00
1.000576385705661409e+01,-1.628393638525663231e-03,-9.795803614032511319e+00
9.998841406295538192e+00,-6.885258871931715201e-03,-9.792824080646539642e+00
9.992595694204490897e+00,-5.071761349526038472e-03,-9.778977692238866481e+00
9.998110890655340199e+00,-2.128772356721062107e-03,-9.806074232803842605e+00
9.991819364430504891e+00,-6.109509483284470549e-03,-9.811582134025879753e+00
1.000105935122121181e+01,9.347926018300910700e-05,-9.808391900728169688e+00
1.000303697356881649e+01,3.019601700906859366e-04,-9.803405158889622939e+00
1.000883571471651834e+01,-2.471732074635256231e-03,-9.786225868138009432e+00
1.000111419428499637e+01,6.339199192649215379e-03,-9.800032446294261845e+00
1.000424240236366735e+01,5.993749970102156197e-03,-9.796663628326914619e+00
1.000011388143541780e+01,-6.137627608266994599e-03,-9.796772744590320769e+00
1.000204395923283762e+01,3.156593010157178122e-03,-9.806417811473629342e+00
1.000640380473329216e+01,5.938219830570645903e-03,-9.797709683699141081e+00
9.997514011036795267e+00,8.964155435357659338e-03,-9.791374372651384661e+00
9.996671492154300509e+00,-5.924587815262131497e-03,-9.798513515991466249e+00
1.000396526381260465e+01,-3.190678388936852954e-03,-9.794293331070832664e+00
9.994676786274009572e+00,8.522215707245034758e-03,-9.787758748303490464e+00
9.994014087304186944e+00,-1.685416405559775344e-03,-9.800061951663501247e+00
1.000468349168924043e+01,1.570119139316077366e-03,-9.791858911206151816e+00
9.999169254179802735e+00,5.116103307894658003e-03,-9.797602672963828141e+00
9.997820797052538566e+00,-2.935458088656292975e-03,-9.802179876165672212e+00
9.991471458470210010e+00,-1.273833999818603600e-03,-9.809974670254391071e+00
1.000422198676968399e+01,5.886466282889306519e-03,-9.783757272225420465e+00
1.001181038735977324e+01,-3.336335801623110074e-03,-9.786004169956372678e+00
1.000140202420291757e+01,-3.889450202578838712e-03,-9.788482859434276762e+00
1.000989480153648437e+01,7.250000524314041336e-03,-9.803729533575134880e+00
1.000378231085624314e+01,7.290822918535833953e-03,-9.804385872553115888e+00
9.994019889158620273e+00,1.317484801335613810e-03,-9.796214239313949079e+00
1.000383067636566281e+01,-7.637191819838595221e-03,-9.800702025464552491e+00
1.000061215643249213e+01,-1.223825424148227824e-04,-9.785573208309617854e+00
9.992583093109367098e+00,-3.786050512381937665e-03,-9.795769130929908641e+00
1.000295402312279336e+01,2.716257945623637687e-03,-9.801103110184723022e+00
1.000683317676263329e+01,5.726118932211505782e-04,-9.792481409932548786e+00
1.000268957963884198e+01,5.729454305066288347e-03,-9.801863262810986299e+00
1.000172695184517480e+01,-2.170845515727661337e-03,-9.777108373035551026e+00
9.990832345515785917e+00,9.293316532481513126e-03,-9.800678041312561817e+00
9.998332837988295196e+00,1.335503009287082208e-03,-9.791659875551935954e+00
9.989999106494432013e+00,2.782133895084513454e-03,-9.802536805940111009e+00
1.000044211895137281e+01,-6.345699114163039049e-03,-9.783561579696572252e+00
1.000490100182326891e+01,5.413106242118976771e-03,-9.798233182931715746e+00
1.000005830389752681e+01,-7.289526510429992926e-04,-9.797097782835331614e+00
1.000351810017587262e+01,3.546026972600257359e-04,-9.798783498970335515e+00
9.992571306408517984e+00,8.132462288162686445e-03,-9.797832740140535179e+00
1.001292055055868424e+01,9.813763983368601479e-03,-9.792413375725477209e+00
9.990455696467030577e+00,-2.024512435033372186e-03,-9.795679947999088810e+00
1.000139092869883051e+01,-4.078151198962325259e-03,-9.802245243981815292e+00
9.993737866605874487e+00,-7.699069087251835322e-03,-9.790616958423676408e+00
1.000663107162614374e+01,-7.147631712560676906e-03,-9.797989514526216581e+00
9.999025506796437313e+00,-3.029192006187262504e-03,-9.787979931490957242e+00
1.000802829616072565e+01,3.072227728528395454e-03,-9.791239863531959742e+00
9.998343242827134603e+00,2.519135267818281045e-03,-9.802161517969787852e+00
1.000092373710992710e+01,-7.641871510020121355e-03,-9.799886308109595490e+00
1.000328839595058206e+01,-2.571438588840943399e-05,-9.807599610067338602e+00
9.990935583977563539e+00,2.759682625250894309e-03,-9.780501160360341117e+00
9.996693476075018125e+00,-5.912180126602026992e-03,-9.818286057822378510e+00
9.999707294082027076e+00,9.631108954625260121e-03,-9.794290988170189394e+00
1.000155217371469085e+01,6.058604648307282410e-03,-9.796354707645280158e+00
9.993993974030006555e+00,1.876181170197787707e-03,-9.803008623065412763e+00
1.001021785768830163e+01,-3.652381040980398445e-03,-9.792664566040091501e+00
9.995778380011431707e+00,-5.898273636521168123e-03,-9.796857621240629754e+00
9.997015886625336023e+00,1.405752559873587075e-03,-9.796631084263415445e+00
1.000022095451869752e+01,1.215145740435613587e-03,-9.805078862552107921e+00
9.996080470132060469e+00,-6.333765250167607865e-03,-9.804340545199236701e+00
9.993880193600382711e+00,-2.221169988885337166e-03,-9.792516703923109134e+00
9.994138005044820972e+00,-8.384379254734581483e-03,-9.786563214647747699e+00
9.996363354041566396e+00,6.699626372629541131e-03,-9.786196580278492263e+00
1.000580050722551384e+01,5.538981820148820498e-03,-9.788071031492076912e+00
9.998018740606573473e+00,2.855820679983380166e-03,-9.810006885339051408e+00
1.000369385720926374e+01,-5.317588829458838465e-04,-9.799030321739579108e+00
1.000215736739457917e+01,7.127548907367948832e-04,-9.791028024014822861e+00
1.000173910161137059e+01,3.646282227706915211e-03,-9.785244487120319690e+00
1.000530816041625393e+01,7.467262195465683905e-04,-9.809573454152880956e+00
1.000063981762204790e+01,-6.713747030034470514e-03,-9.792631591956160619e+00
1.000181439207870504e+01,-1.579386941690009072e-03,-9.793715323432120812e+00
9.996761999449391922e+00,-3.928803316991331430e-03,-9.797504953404189365e+00
1.000996594349158464e+01,-1.186168031360090684e-02,-9.802280796125105056e+00
1.000085016727341802e+01,-5.949404426676979489e-03,-9.794775883240946612e+00
9.995880911146247882e+00,2.049566671880534831e-04,-9.810433674910960633e+00
1.000303725532518406e+01,-1.937742318948010474e-03,-9.795618652694834338e+00
1.000037292498276464e+01,-4.157408962891944587e-03,-9.786071412780177781e+00
9.995753350856343644e+00,-5.829429430193171571e-03,-9.794582081143749619e+00
9.998163493066790863e+00,-6.836888343075905742e-04,-9.796808299519071284e+00
1.000435764760651125e+01,1.956249841906040725e-03,-9.805562262449431188e+00
1.000089642304423876e+01,-8.501933264265505025e-03,-9.797147206249409379e+00
9.989567114432439610e+00,-4.164218795049130610e-03,-9.799592258804551648e+00
9.990578411323314256e+00,-4.564193017161248360e-03,-9.796296622815784616e+00
1.000709792437856649e+01,-3.220782571647272646e-03,-9.813512535399368630e+00
9.995132078960001110e+00,2.369967006482284928e-03,-9.787187940878768089e+00
9.994156061729256635e+00,6.932479089694886139e-03,-9.807459510603251829e+00
1.000746410146916965e+01,1.042142016679481302e-02,-9.798639040004953671e+00
9.997315772132884248e+00,-1.619557956113706855e-03,-9.811478259870053620e+00
1.000253603378543410e+01,-9.346771778760072300e-03,-9.792374720822822454e+00
1.000949138772936386e+01,4.181866572738550392e-03,-9.785406417454165506e+00
9.996791477857300379e+00,-8.889939585059894109e-03,-9.781496541524390409e+00
1.000538425365813389e+01,-7.922466725178218443e-04,-9.796236312635636878e+00
1.000584672678923148e+01,6.111107741469412082e-03,-9.795238084625086827e+00
1.000109355770576158e+01,-4.266853344462457828e-03,-9.802064217552812764e+00
1.000690085816437325e+01,1.059550738228881572e-02,-9.799718431387946183e+00
9.995583823845368698e+00,3.471753168215575315e-03,-9.796333893056281994e+00
9.997648159808328217e+00,-2.104624331329593787e-03,-9.798646000112395171e+00
1.000473349384481736e+01,-1.367428726038195236e-04,-9.804965494934936743e+00
1.000794321384465313e+01,4.096148438675024234e-03,-9.786717921138320619e+00
9.994776135846338505e+00,5.772287078489410361e-03,-9.788652749724718660e+00
1.000361761640255942e+01,-3.704879801927647882e-03,-9.781517951550428691e+00
9.998076362993204569e+00,-7.488983363336310095e-03,-9.791619234836888452e+00
9.997849985571081177e+00,-2.643744878018094817e-03,-9.792996260888800819e+00
1.000604789715994158e+01,5.860941904364619370e-03,-9.792751985339879894e+00
9.994603193511249373e+00,6.041641067352456450e-03,-9.787865471664987993e+00
1.000288534014189423e+01,1.403729653694380138e-02,-9.790557976024022224e+00
1.000296240354423993e+01,9.788004129297098958e-04,-9.803888133303315655e+00
9.998257042044397025e+00,-4.370381446614493223e-03,-9.806530541436487169e+00
9.999247215838817482e+00,4.920049435119429326e-03,-9.798111828546012703e+00
1.000279205741104427e+01,6.715456673592229593e-03,-9.791028606628609410e+00
9.998377650341742751e+00,-1.207239490790456594e-03,-9.801651993875754698e+00
1.000075326961447608e+01,1.122711734162648188e-03,-9.782015013830738681e+00
9.999995155993497420e+00,-5.562341481447375183e-03,-9.788732241009066470e+00
1.000584027330729242e+01,-9.325909114723115404e-04,-9.778161379168784251e+00
9.990514624714311509e+00,-9.777640084750311138e-04,-9.793708005838595909e+00
9.996705900516547061e+00,-1.007416423314631522e-03,-9.786182356599312016e+00
1.001021721567472689e+01,-4.270551274696028111e-03,-9.787060958504435249e+00
1.000662309877761302e+01,4.831441155746049425e-03,-9.800042565170018705e+00
9.994100310822332744e+00,2.132347380673684997e-03,-9.792119361289657320e+00
1.000476344811960772e+01,-8.577956780067228773e-04,-9.796270923403591624e+00
1.000148182555314769e+01,-8.372104884028864005e-04,-9.789649220139979846e+00
9.999845212841764308e+00,-5.061285556421786687e-03,-9.797675996679418020e+00
1.000349191640002111e+01,-4.905603356146178221e-04,-9.788915158045238485e+00
9.998790261469274299e+00,-1.338460196414828713e-03,-9.778848250237240691e+00
9.995935393178045913e+00,4.964734486876262124e-04,-9.784429906165151181e+00
1.000054225925673634e+01,-2.835977170415555308e-03,-9.794327722785357793e+00
9.998989135114641158e+00,2.448305958771888717e-03,-9.792802672544723919e+00
9.996179054135689412e+00,6.996508743088393142e-03,-9.801420286755739397e+00
9.992296975572266149e+00,-4.471414235059287950e-03,-9.798592896910959027e+00
9.998811777742051987e+00,-4.055907233682790221e-03,-9.790163241451786291e+00
1.000546272816046312e+01,-6.704135705542338917e-03,-9.788793933607598419e+00
1.000265382709594952e+01,-4.388794706473766322e-03,-9.799802608326288578e+00
1.000239208741934505e+01,4.701309633179230271e-03,-9.801124400383372404e+00
9.993421525631580593e+00,-7.681356231750525315e-03,-9.772986004026074980e+00
1.000049986142555269e+01,4.699480846420288696e-03,-9.794148412644183566e+00
1.000524822758506716e+01,8.346958327540549667e-05,-9.794381259572102039e+00
1.000255870703361261e+01,9.609187417053440114e-04,-9.787426419445626635e+00
1.000113227890386014e+01,-3.306970403306486194e-04,-9.805498882117653636e+00
9.997671004673790662e+00,2.760083713217168465e-03,-9.782550384063499749e+00
1.000192279624495129e+01,7.812267455034585008e-03,-9.789125445087986321e+00
1.000423566507133089e+01,7.259096070873364941e-03,-9.801247833285435362e+00
9.998105580522796743e+00,-5.055034911064460118e-04,-9.801741505405097143e+00
9.997951571409302574e+00,-4.155844947439770419e-03,-9.793827040438536358e+00
9.994220916479765293e+00,-9.593821374339145608e-04,-9.792736424579047139e+00
1.000811304805394641e+01,2.111908668650617528e-03,-9.792773432095545516e+00
9.996623927197466841e+00,-9.551796619707790927e-04,-9.789607994308141770e+00
9.996295740305207289e+00,-1.555845172396869874e-04,-9.784562323175759246e+00
1.000566145016811959e+01,-1.081911924968159862e-02,-9.801756563926229404e+00
1.000274715076301035e+01,3.216128130555647845e-03,-9.802319721258948348e+00
1.000161290643241330e+01,1.311355474753423582e-03,-9.787933404348194699e+00
1.000483685689571800e+01,9.209522077384447308e-03,-9.790486760154189838e+00
1.001066553214074872e+01,9.787952693203243876e-03,-9.796084764430933234e+00
9.994928431291826953e+00,-9.421587958139181424e-04,-9.780765204385385658e+00
9.997658084806179346e+00,-7.538101237769595855e-03,-9.790995146407418304e+00
9.995079310995002686e+00,8.300246417055995535e-06,-9.801130631472474874e+00
1.000148128527889213e+01,3.565844955242114880e-03,-9.800245005449585989e+00
1.000415974320779355e+01,-7.590436202791071146e-03,-9.792169869298604112e+00
1.000080350770309678e+01,-2.033472044082411043e-03,-9.792743691607268985e+00
9.996740963054048024e+00,2.246137687520932593e-03,-9.798088784591303835e+00
1.000416509714512081e+01,-1.207394143048091603e-02,-9.792384618380074457e+00
9.996286004731778974e+00,3.887092975617921931e-03,-9.806281044878589981e+00
1.000068902339937438e+01,-2.696096982669001657e-04,-9.799238532187386497e+00
9.998840677564247770e+00,-2.533170119209062279e-03,-9.786925518941846036e+00
9.999599464077485678e+00,4.873172435552597728e-03,-9.806510703409582419e+00
9.997652058493438076e+00,-3.004075509135573259e-03,-9.795487925070252899e+00
9.995703771249468517e+00,7.228823402109396017e-04,-9.800156043285255691e+00
9.996069623870713627e+00,3.932782679453738182e-03,-9.790100610025016081e+00
1.000397218212360073e+01,5.021805169244721598e-04,-9.800540802396749740e+00
9.991824035508280133e+00,1.021664018865212770e-02,-9.799653949046083667e+00
9.992228014630191169e+00,-9.128311695520065217e-03,-9.795769848717473138e+00
9.998562591385107723e+00,6.318943209213207998e-04,-9.798292043535884233e+00
9.999027901683810171e+00,-2.971368241666308332e-03,-9.801284417200813337e+00
1.000038747587440113e+01,-3.592094649809926890e-03,-9.802338260227202227e+00
1.000950983393502192e+01,-1.423214555046251268e-03,-9.803466661889297384e+00
1.000443586617790359e+01,6.539496036357201648e-03,-9.802657129916182654e+00
9.993974813690451597e+00,-1.917811023642660914e-03,-9.796323338061315056e+00
9.999484561898272617e+00,-1.355912950494000263e-03,-9.798262183106288603e+00
9.996352378746045986e+00,-2.111363517381796909e-03,-9.805882457612208114e+00
1.000128935545165021e+01,-3.270346708098651259e-03,-9.808223303531683257e+00
9.996895431370717233e+00,-4.461145308511754899e-03,-9.791091435537177645e+00
1.000556389205254249e+01,1.143882724067361335e-02,-9.783927610347989301e+00
1.001102986548811380e+01,5.421887775994030335e-04,-9.805285217188231428e+00
1.000304914512413212e+01,-6.528287658783880551e-03,-9.810043969235568539e+00
9.989356739554626330e+00,-3.725681654304075874e-04,-9.794108815244346289e+00
1.000137575625964992e+01,7.345376870000802985e-03,-9.788970581738492882e+00
9.999520219918167641e+00,-4.164174285246089423e-03,-9.794999375694594335e+00
1.000253277523509610e+01,-4.628086629957202185e-04,-9.794678729161693909e+00
9.999781406540634521e+00,6.594712032131243816e-03,-9.804180957227996984e+00
1.000274310805892419e+01,1.025538781793848553e-02,-9.801925204322284202e+00
9.993975602497856769e+00,-8.173084975539921361e-04,-9.792849762822118720e+00
9.996362021193510472e+00,1.432812345633164078e-02,-9.794524145728001230e+00
1.000021549584768543e+01,-3.319750306766508247e-03,-9.787197285307151162e+00
1.000590936912814755e+01,-7.014402317475803336e-04,-9.779377323289823565e+00
1.000138478767946637e+01,-5.444639863860309924e-03,-9.785062124006548956e+00
1.000651572977949755e+01,1.484202745292228891e-02,-9.783162477404793833e+00
9.997005587246112768e+00,-6.061728117810275809e-04,-9.801558490140497071e+00
1.000156635193518539e+01,8.037957269581881212e-03,-9.802113369417531530e+00
9.993073625487083333e+00,-1.194839027213747372e-02,-9.785648396747943067e+00
9.999953082972348639e+00,-1.769897788241091199e-03,-9.790181414172099750e+00
9.994541420540368648e+00,-5.189915379447766064e-05,-9.790865693750271603e+00
1.000026733559589154e+01,1.169299213701201733e-02,-9.783745587679415934e+00
1.000463115791673552e+01,1.053716026124546217e-03,-9.794099478047261442e+00
9.999011799181735327e+00,-8.278218999748302971e-04,-9.788717573751558376e+00
1.000472023754601736e+01,1.507748393321575557e-03,-9.798049993836077221e+00
1.000060740668273596e+01,-1.443744929485226043e-03,-9.789017135134798764e+00
9.997855075501151489e+00,-3.714092485319308613e-03,-9.792902821534887892e+00
1.001165615400668507e+01,-7.976784050156114289e-03,-9.784632390127027790e+00
9.996679605315616612e+00,2.587839830675901093e-03,-9.801238765001336617e+00
1.000103464444520007e+01,-1.972790182584436159e-03,-9.806122324401444601e+00
9.999995643151274649e+00,3.839151052803775957e-03,-9.792444450833226455e+00
9.994423650830002614e+00,-5.840484449657424096e-03,-9.796375888146334532e+00
9.992348702842409836e+00,1.449094013800447060e-03,-9.774906767296974053e+00
1.000513531600229733e+01,4.784776176476771697e-03,-9.799212674300923354e+00
9.993695956415129089e+00,8.100200837287494654e-03,-9.808742333792240586e+00
1.000309403998512536e+01,-6.705688482926391164e-03,-9.783762718872239361e+00
9.996716977895363954e+00,-7.261431366023917279e-05,-9.786699164349446534e+00
9.997234604218029119e+00,-3.847754563891161300e-03,-9.793654012689584576e+00
1.000116385339254599e+01,-1.871644883989940925e-03,-9.795388429366424177e+00
1.000657134056553943e+01,-4.773638635400303740e-03,-9.787737153414319380e+00
1.000675835601689023e+01,2.985244002237755299e-03,-9.797323526592249365e+00
1.000762926968104871e+01,-1.034722909296976676e-02,-9.794525505120217801e+00
9.997588041106729051e+00,4.439066299109058894e-03,-9.783223645590698681e+00
1.000394357107717092e+01,1.902849192760528319e-03,-9.791317898239197959e+00
1.000900422837350234e+01,1.545019862710478049e-03,-9.781423114345763281e+00
1.000858369255998781e+01,1.175224103829949560e-02,-9.801243804421282846e+00
1.000571110831121580e+01,3.569119996664018180e-03,-9.795638237732431364e+00
1.000095958830342191e+01,-1.769278479376207563e-03,-9.782633864412234814e+00
1.000152407499860097e+01,-8.562107653785790487e-03,-9.794900792550441437e+00
9.993860499665917274e+00,3.337455964244693662e-04,-9.787115166742735184e+00
9.992957916749128700e+00,-6.220857514937626169e-03,-9.793407495075161506e+00
9.994017903020358418e+00,2.791415629080724360e-03,-9.806680621644373375e+00
1.000924761470479396e+01,-1.029312979029103729e-02,-9.796505058449900716e+00
1.000815709389159558e+01,6.916005369441840210e-03,-9.783213420938649207e+00
1.000139023142424755e+01,-1.854738202328236503e-03,-9.789440513569545033e+00
1.000294736520093508e+01,-8.001047154920256158e-03,-9.786991567452613339e+00
9.991163536572651438e+00,-1.147844693910262445e-03,-9.793866561222067446e+00
1.000269061815110483e+01,-5.524676245470606147e-04,-9.787306257665493447e+00
1.000417295357747349e+01,-2.547706474820120564e-03,-9.796693088471348787e+00
9.994971709173469776e+00,3.089907657007355990e-04,-9.789952301878098950e+00
9.997880333900285521e+00,-2.458497958228120141e-03,-9.812394471439549903e+00
1.000102543680305622e+01,-2.710493632209452341e-03,-9.790467891517947052e+00
9.995127486352691548e+00,-4.502425003454258584e-03,-9.802607000286752026e+00
1.000044877124738107e+01,8.485799963870816962e-03,-9.798494489720154021e+00
1.000037399243731784e+01,6.740303234308248157e-04,-9.799040019059390261e+00
1.000413683614213056e+01,-9.412518143510862842e-03,-9.801310848020669653e+00
1.000435867372707577e+01,-1.254143668134644930e-04,-9.807918695881914672e+00
1.000248675113481056e+01,-2.999956431030694013e-03,-9.789783634072660945e+00
1.000147838640777032e+01,-1.963648055247382319e-03,-9.789201389210630211e+00
9.993081249452453463e+00,1.053600203924046422e-02,-9.794338973841025364e+00
1.000160626742952807e+01,-4.858521686404371903e-03,-9.810724324122947593e+00
9.993997998882582223e+00,-6.419671569305833436e-03,-9.777821419163069905e+00
9.999314501579432246e+00,5.006195890089808025e-03,-9.807123046352009155e+00
1.001611986869776061e+01,-4.204731747549387590e-03,-9.797699014033430132e+00
1.000107640663533992e+01,-9.445011172301898128e-03,-9.795566603888843815e+00
9.998937685376443341e+00,4.863478924450615956e-03,-9.788618415095440284e+00
1.000382900544242837e+01,1.006639265724134855e-02,-9.795773245130629192e+00
1.000390710498198032e+01,1.279771901632983195e-03,-9.797136968176623384e+00
9.995847356179531573e+00,4.722373868304414568e-04,-9.786071532327095923e+00
1.000391283632228578e+01,-6.363479344062996854e-03,-9.785020965313350416e+00
1.001185560214592485e+01,7.306533528325126091e-04,-9.794078969898345477e+00
9.998313846839655739e+00,-4.432459455697410934e-03,-9.804376807872348110e+00
9.993004223504952321e+00,-7.733306586453370796e-03,-9.791363345555557984e+00
9.992252065329550348e+00,2.171889816878976877e-04,-9.796591071168453624e+00
1.000643289548071735e+01,-6.990476085483253096e-03,-9.802521609002061709e+00
1.000068733133714360e+01,6.993140563485511843e-03,-9.781545232553938263e+00
9.997985010635421332e+00,2.801761241094250735e-03,-9.791882432734198005e+00
1.000574074979083328e+01,-1.638146019443900009e-02,-9.794897319882675646e+00
1.000205362298670053e+01,-1.228381274944406179e-03,-9.789847903255459727e+00
1.000488257812887483e+01,1.758393834597631262e-03,-9.797080064059599636e+00
9.994011071847110017e+00,1.749041554858779589e-03,-9.793654220643322361e+00
9.999697230978629392e+00,3.897787459482491765e-03,-9.804603411341481944e+00
9.991317965358561537e+00,-9.279217351839079767e-03,-9.796460876823484654e+00
9.998372407525772942e+00,-7.144171790182860492e-04,-9.790997005051815805e+00
9.995652617074348711e+00,-4.706669144562697880e-03,-9.804920201800802815e+00
9.998180837014512434e+00,-1.960501737765176986e-03,-9.805761635304447665e+00
1.000360529130007414e+01,-3.188180440866961955e-03,-9.789729448120699118e+00
1.000512284348263137e+01,7.355032390755839207e-03,-9.792111549231814038e+00
9.998275236210742989e+00,-4.294071577611101309e-03,-9.803649759013003617e+00
9.992637885165951417e+00,-8.539550374523856941e-04,-9.792623332315312012e+00
9.999378232418761669e+00,-4.352925860965170361e-03,-9.796766775258024751e+00
9.998356683223748931e+00,8.637361771569153704e-03,-9.805943735220886026e+00
1.000592799710726055e+01,9.235702354301519043e-04,-9.804623290517518797e+00
9.996826462469169172e+00,-2.012732643491877554e-03,-9.791533189412870541e+00
9.996101408517375830e+00,4.273408131836131663e-03,-9.801246317518097939e+00
9.990785161414137860e+00,3.588491984178212961e-03,-9.804116389758272376e+00
9.994206297741428102e+00,-6.755002482115485957e-03,-9.781533609886889025e+00
1.000165173585161149e+01,-4.444743864971260547e-03,-9.794610482165131415e+00
1.000042600861990749e+01,6.950656113712882361e-03,-9.797189266331512769e+00
9.996109503519944539e+00,-1.722151605662212547e-03,-9.807838599361001997e+00
9.992255858835429549e+00,-2.593474642093768906e-03,-9.773346335064335477e+00
1.000503116438056850e+01,-3.661063550010946934e-03,-9.802942328805613670e+00
1.000936731757351872e+01,-1.966309661481428946e-03,-9.800518245351051760e+00
1.000264958601538545e+01,6.541828588076081233e-05,-9.812013197005475362e+00
1.001121556148326874e+01,1.429771301519839298e-02,-9.789648267903567458e+00
9.999714971793411067e+00,-4.670758954600311673e-03,-9.780861873741420354e+00
1.000413738918630813e+01,-1.994758380847101373e-03,-9.789248387943429108e+00
9.995797907691340356e+00,-3.867285527324669753e-04,-9.783250285478951369e+00
9.996187531014584238e+00,7.203844033778179085e-03,-9.805323111885256182e+00
9.998267751336584297e+00,1.741693389383636549e-03,-9.782648109862728703e+00
1.000248180185400493e+01,-4.222671364551978772e-04,-9.791747577039275896e+00
1.000532794821776861e+01,-3.029458038332309613e-03,-9.785577394247257033e+00
1.000159234580968715e+01,-3.121808968665101911e-03,-9.799489795121235858e+00
1.000470999566821284e+01,-2.887862887389127612e-03,-9.797032982940507395e+00
1.000033370766244545e+01,5.661955758930067861e-03,-9.797696891240367023e+00
1.000303601379089891e+01,-5.277207280113250208e-03,-9.787658637210165935e+00
9.999442825329468931e+00,4.336941169760630439e-04,-9.788873346003773790e+00
1.000409591347126437e+01,3.103308720987636282e-03,-9.802729247068038276e+00
1.000298640437649134e+01,-6.907500328441699630e-03,-9.791885232930470195e+00
1.000452008158470107e+01,-5.487107976970998641e-03,-9.797193170616708358e+00
1.000081071695160340e+01,4.276499535586745539e-03,-9.800427459644422967e+00
1.000309182860485890e+01,-2.238097125025591966e-03,-9.793156851475538716e+00
1.000244548820442425e+01,2.232242429150609313e-03,-9.790396384693599074e+00
1.000159388576997443e+01,2.451255350251104002e-03,-9.801614124020330721e+00
9.999241478540403349e+00,5.443584482275229744e-03,-9.793581993590775525e+00
1.001007329496796494e+01,-1.323906577887550007e-03,-9.803123659022737968e+00
1.000206437137181226e+01,-4.775843322919158529e-03,-9.794520013518519974e+00
1.000182833881197553e+01,6.209056285109263579e-03,-9.791648415528335647e+00
1.000183199880573603e+01,-5.139485240238451155e-04,-9.798922464578106784e+00
9.998318942599340176e+00,-5.569527971018836850e-03,-9.778697915871758184e+00
1.000349747705913117e+01,2.069864538465193693e-03,-9.803660039083789357e+00
1.000363998274300670e+01,1.955485147531188083e-03,-9.790624868520545476e+00
9.999923442280728381e+00,8.350136868627292680e-03,-9.786584100223592486e+00
9.995392593234841527e+00,-8.256924508290934203e-03,-9.803923241303230895e+00
1.000140796252468256e+01,4.349049748482517949e-03,-9.809679403477170823e+00
1.000296605796190441e+01,-3.049243471796026384e-03,-9.801091424955819420e+00
1.000673900808421202e+01,4.588923251948616444e-03,-9.793478334021394005e+00
1.000331997552436292e+01,-3.570844521056849678e-03,-9.789865327959439867e+00
9.996204496297814046e+00,2.334017052095304062e-03,-9.797414560125739413e+00
9.988468457988110671e+00,-1.401111428924212664e-02,-9.797669239202999591e+00
1.000642188936511445e+01,2.205157191261902707e-03,-9.791759992666749568e+00
9.997001376291171582e+00,-6.526742080426808749e-03,-9.792960507333697606e+00
9.997310442596393898e+00,-3.631639479882211533e-03,-9.794121926867211059e+00
1.000039235790702641e+01,7.854339536563056251e-03,-9.809654266622763075e+00
9.996931970780646992e+00,-7.829154655108208627e-03,-9.793389046716741930e+00
9.991606221360736839e+00,5.299494808366519635e-03,-9.789318739625718635e+00
1.000996263642471718e+01,1.158578619531900559e-03,-9.801137506216393902e+00
9.992298249541923028e+00,3.112319615261816431e-03,-9.789209147013577805e+00
1.000503565006953011e+01,-3.597895030680567287e-03,-9.800298597212826479e+00
1.000234742622783557e+01,2.604474973875624527e-03,-9.787874002269218110e+00
9.988632828403632757e+00,3.530776263490826607e-03,-9.797747601447790444e+00
9.996536033460268200e+00,-2.717791754001628712e-03,-9.806184876719598265e+00
1.000273469170064722e+01,8.607438116938077519e-03,-9.799539271991520195e+00
1.000396293810977255e+01,-5.524843698042855925e-03,-9.784144262967204853e+00
1.001486921163589194e+01,-4.937357279984289950e-03,-9.792359318922491340e+00
9.995066051183611577e+00,5.720587390156632980e-04,-9.806439549974111713e+00
9.999654553739343754e+00,-3.779871039794683034e-04,-9.798978562370953327e+00
9.994759477819600946e+00,5.826440635047246130e-03,-9.798667493666171069e+00
9.990582275039145088e+00,9.831175090130577637e-04,-9.799297598704205470e+00
9.998429996640672002e+00,2.328884703283052270e-03,-9.779291289928012887e+00
1.000439884107600363e+01,-9.621145336433451628e-03,-9.804057093249992860e+00
1.000297100391196992e+01,3.448390367383651241e-03,-9.787475945065347460e+00
1.000322997648754075e+01,-3.305802792182135040e-03,-9.798753167185806134e+00
9.999123416168275824e+00,-1.746216626070733538e-03,-9.789636253215258321e+00
1.001072754788135555e+01,7.774307119830065407e-03,-9.798568035919144492e+00
9.996454863123586776e+00,-9.915036156283760574e-03,-9.798392511109565106e+00
1.000933545498999955e+01,2.164708890030327213e-03,-9.806366883397556578e+00
9.997067118698142352e+00,6.463545189958317966e-04,-9.784180195957821624e+00
9.994381915010700723e+00,1.237328511499835972e-03,-9.787047484131285557e+00
1.000879854443381589e+01,3.195982729152889099e-03,-9.788957062980804480e+00
1.000006189308972004e+01,1.890798889176001666e-03,-9.785924302063792268e+00
9.991164206619165711e+00,-2.228873591414606934e-04,-9.778122257623403257e+00
9.999511443050637993e+00,1.015480229507415878e-02,-9.797067353308808180e+00
9.994803113393309957e+00,-1.581071331292814445e-03,-9.777173317191421020e+00
1.000080485661957397e+01,-6.089578859450518354e-04,-9.800772495907727588e+00
9.994323794411991813e+00,-9.866744823160350855e-04,-9.798988402396533459e+00
1.000000260961735599e+01,-5.800674466902876192e-03,-9.784341506557710844e+00
9.994027072339621398e+00,2.619842933187658922e-03,-9.805372066137399756e+00
9.996329711603982204e+00,-2.069648352758636045e-04,-9.798415138623969511e+00
9.999897625006825663e+00,-4.987359743600014265e-03,-9.799117274891534279e+00
1.000014125569879297e+01,-6.399833534266857922e-03,-9.800943768605938189e+00
1.000447497262462093e+01,3.105514787316714944e-04,-9.804853445747783169e+00
9.997846511669065350e+00,-9.254295775352172279e-03,-9.795672828760285000e+00
1.000296640138361148e+01,6.518951113139540531e-03,-9.800558365217277412e+00
9.999181273992705954e+00,4.105673801485651940e-03,-9.794376230201258693e+00
1.000195304749615843e+01,7.003082497931259259e-04,-9.795722633331664042e+00
1.000014599017865002e+01,-1.216003802131021604e-04,-9.788999994731261367e+00
9.998434227898448157e+00,-3.204318390710829412e-03,-9.801057160598704243e+00
9.997654774464296068e+00,8.387591078040169176e-05,-9.797595449557686464e+00
1.000878393527725052e+01,-4.318259752298439329e-03,-9.814188680516569008e+00
9.996911720533002921e+00,1.304523160732731779e-02,-9.799956894995146328e+00
1.000473198429591370e+01,7.659043741376454946e-03,-9.803101684579383246e+00
9.997426597851996277e+00,2.925494746769722286e-03,-9.786637414334329321e+00
9.993089251808244811e+00,5.134351346823066466e-03,-9.779445705848209158e+00
1.000540880401305266e+01,1.564242340227769545e-03,-9.789716401814969160e+00
9.996675849218805254e+00,-4.831336946627965562e-03,-9.774858553310050269e+00
9.996799362822542889e+00,-1.269780446659208271e-02,-9.794382672933151568e+00
9.999640826944951044e+00,-4.561562375592615078e-03,-9.780120275359484694e+00
9.993766522748536829e+00,1.221264977530066125e-02,-9.797822062485199268e+00
1.000187997290890429e+01,-5.435840727239197624e-03,-9.792072613787109248e+00
9.992631054918573952e+00,-4.867731230244993351e-03,-9.793628620505085536e+00
1.000159696184000246e+01,9.992134437622755046e-04,-9.784330567962507885e+00
1.000177031959090712e+01,4.713394154124547417e-03,-9.803114863356739761e+00
9.992326149782291722e+00,2.408222654736151373e-03,-9.791052791326903204e+00
1.000374202541607183e+01,-1.488793756695298192e-03,-9.799052167402713565e+00
9.997063766056660583e+00,4.758942501412405466e-04,-9.793539318925338577e+00
1.000355569908614406e+01,1.524810524047329760e-03,-9.799628693901532017e+00
9.997545400137839877e+00,-2.187974530291774116e-03,-9.806499475816389477e+00
9.996014371084459782e+00,4.674611949305461020e-03,-9.791595906931103599e+00
9.999732504677648848e+00,-3.834845462277146604e-03,-9.779868557320972045e+00
9.999467118741492300e+00,-2.753384167746077984e-04,-9.790415127782560845e+00
1.000646150087856157e+01,2.330669058919748911e-03,-9.788936640913885157e+00
1.000372054091485552e+01,1.944909363774448806e-03,-9.794993489693068156e+00
1.000122287409554822e+01,1.628606944547810083e-03,-9.798966353903560744e+00
9.994052574177560544e+00,-3.402514269020725547e-03,-9.793458871491145246e+00
1.000547894878025446e+01,7.110334556835829021e-04,-9.800642258026286413e+00
9.996345915133769466e+00,2.121915996351792996e-03,-9.798232641769789808e+00
1.000062830035893668e+01,1.093118827246584513e-03,-9.806327323545149355e+00
9.988591314163766555e+00,2.424092540334925328e-03,-9.799861830301304977e+00
9.999938508142101057e+00,-4.585090128269654446e-03,-9.808577153807281235e+00
9.992340030526765560e+00,3.183052344817555168e-03,-9.796613595768663529e+00
1.000026556680919754e+01,4.269937079217470707e-05,-9.784227163326237431e+00
1.000347446086327174e+01,2.824871889004368451e-03,-9.804257191709000452e+00
1.000531203263424374e+01,-2.225042900741716449e-03,-9.788698386784412619e+00
9.995404125023231501e+00,-4.557178326406108142e-03,-9.783377537668670243e+00
9.999697957157716033e+00,-1.327354283379238511e-02,-9.795619114489586110e+00
1.000145777127259983e+01,8.596552947790499222e-03,-9.782979565270643718e+00
9.994048657361577881e+00,-6.047770008634604805e-04,-9.792775727174147349e+00
9.997370404131471489e+00,1.140716898490668277e-02,-9.795897911607125863e+00
9.996066179291917209e+00,-4.289635794298417813e-03,-9.810803522059782011e+00
1.000368043881605473e+01,-6.476035458237643788e-03,-9.785267416537770657e+00
9.991053265095040103e+00,-2.709155873289212629e-03,-9.787737563850805955e+00
9.998753121948066536e+00,4.700645282761320258e-03,-9.790174816106233635e+00
9.996604411524401712e+00,1.597695327991041333e-03,-9.780251090630626365e+00
1.000240766435708650e+01,-2.598814320952263536e-03,-9.786648056827631947e+00
9.998529279997550034e+00,3.386726071910148034e-03,-9.800562042467337420e+00
9.993771118038520029e+00,1.445160852253024684e-03,-9.790128729927284112e+00
9.998673298343257798e+00,1.778418723584217209e-03,-9.792732992698654826e+00
1.000456483224960991e+01,-7.390310606705916170e-03,-9.793871032552960543e+00
9.998631432542760322e+00,9.361846978167446404e-03,-9.784080310595623331e+00
1.000371083276950834e+01,3.179009971561198248e-03,-9.795348787115290889e+00
9.994204047416078041e+00,8.879248270686567303e-04,-9.791150701022836245e+00
1.000602324267915222e+01,5.915585656519617837e-05,-9.781014590393233732e+00
9.997121518705949228e+00,5.416744432516945248e-03,-9.804907218139222280e+00
9.997993918438494276e+00,1.899145533403167642e-03,-9.797521668426373509e+00
9.993736593780862876e+00,-6.336907495012381909e-03,-9.792868421600370965e+00
9.998973038910365929e+00,-2.702146084754754752e-03,-9.798129812784852177e+00
1.000648436846667444e+01,-5.846379729082791608e-04,-9.778784952511298201e+00
1.000007216238952878e+01,1.667336400120902938e-03,-9.791650590901099349e+00
1.000704750847115854e+01,-3.090073694900395945e-03,-9.799589191854785497e+00
1.000706431843142319e+01,7.656436862852277446e-03,-9.809103627085077548e+00
1.000147538009239234e+01,-5.948268528010476099e-03,-9.777756620132768361e+00
1.000643596002515956e+01,-2.860178233386012885e-03,-9.786760972492674071e+00
1.000347273583864904e+01,8.459220955466778546e-03,-9.789079426268031625e+00
9.998011462500789648e+00,7.351099667456624520e-03,-9.789746256687484660e+00
1.000145165833908045e+01,-1.404945296727570358e-03,-9.786320381523676559e+00
9.991461258852904592e+00,7.986753488254660091e-04,-9.806469047130509153e+00
9.994701210304349104e+00,4.493878324035167383e-03,-9.806975827428043857e+00
1.000766490589457547e+01,5.278896946460848215e-04,-9.809400419100192892e+00
9.999386006003120997e+00,6.185118131359826528e-03,-9.790467845507736300e+00
1.000448631850927050e+01,-2.647347848924666222e-03,-9.796694607845726210e+00
9.994348262295924101e+00,2.690820832019765168e-03,-9.786803723115971465e+00
9.993366922580642964e+00,-4.054775142378219503e-03,-9.792484246108845269e+00
9.994120291537019085e+00,1.624628969186327687e-03,-9.796635786871334517e+00
9.998973179989603111e+00,-5.884900663406427215e-03,-9.796865092277197817e+00
1.000844722005404464e+01,8.876144439696831770e-04,-9.788456436470150734e+00
9.992878466608551946e+00,1.818236281048227427e-03,-9.797513341766128647e+00
9.992593281791382509e+00,-5.450713565424802724e-03,-9.791774524089520426e+00
1.000057899336562706e+01,1.079015419141675369e-02,-9.786573619699680648e+00
9.997323843297142076e+00,-4.447017190876082892e-04,-9.790014894429601711e+00
9.987806986920325869e+00,-2.676497047625643459e-04,-9.799983307602227356e+00
9.999265888561469140e+00,4.365321928911551977e-03,-9.792803697608004398e+00
1.000273494054418499e+01,-2.237832490259887737e-03,-9.796881011363643310e+00
1.000225875306856871e+01,6.631455181929498018e-03,-9.779892765803039012e+00
1.000281079108797933e+01,-5.932068557488185366e-03,-9.793446088436317254e+00
1.000034169183540911e+01,4.529835726790274950e-03,-9.805951530713526765e+00
9.997308806797111203e+00,-8.687658220459693048e-03,-9.799362342958101380e+00
9.999542780730143576e+00,-4.117049733667735301e-03,-9.776403387552479174e+00
1.000035599950722798e+01,-2.808014557497021373e-03,-9.796406109939789886e+00
1.000051874910962013e+01,6.450626691568462322e-03,-9.776481976081077718e+00
9.998979780835638209e+00,1.789286211691402863e-03,-9.802498716353497343e+00
1.000296090786280168e+01,2.436694384623009756e-03,-9.796143673995857171e+00
1.000250513609674385e+01,-1.385262784518709279e-03,-9.791428492194718558e+00
1.000016535806399709e+01,-5.861035604249035039e-03,-9.796038936443887124e+00
1.000070543532390488e+01,-4.520524201854583986e-03,-9.793452135494300492e+00
1.000823203947811457e+01,-4.215474550307175133e-03,-9.802292832054719796e+00
1.000383660998398838e+01,1.074044736875105251e-04,-9.810712400792885646e+00
9.995024375076084766e+00,1.031402555720399572e-02,-9.801147086835271693e+00
9.990266039488126637e+00,-2.953681065612044111e-03,-9.795955216422985501e+00
1.000272496166469871e+01,6.358422026314899771e-03,-9.790256302596784366e+00
1.001059419395904015e+01,-2.866684568162108059e-03,-9.796940911190860746e+00
9.997472060758092027e+00,-2.044960917297433071e-03,-9.785665285269564251e+00
9.999880887441252142e+00,6.090414968372117460e-03,-9.793103212279520520e+00
1.001002449469532429e+01,-8.300137615221690399e-03,-9.788616008354750875e+00
9.995216293905633265e+00,1.327389785744914228e-03,-9.789863750991887770e+00
1.000787476320282643e+01,-4.656246235159404272e-03,-9.791101375741348534e+00
1.000765312627042292e+01,3.724566458516262186e-03,-9.801795722764074625e+00
9.998310356843118640e+00,1.673707933619073517e-03,-9.792458594495847990e+00
9.992736598374271750e+00,4.831249287240471993e-03,-9.789223563714907428e+00
9.993489080716395634e+00,-5.610783498182340262e-03,-9.803396448272419406e+00
1.000014510105814125e+01,-7.718776068737947735e-03,-9.799143961879259734e+00
1.000187740718130769e+01,2.117745171898239437e-03,-9.792510824840958250e+00
9.998989837833516248e+00,-3.190642846818676423e-03,-9.783039126676312591e+00
1.000999892514552236e+01,-5.727792414873865944e-03,-9.794923882508788537e+00
1.000022074597476873e+01,2.613367978668923799e-03,-9.789730651729898980e+00
1.000055302499465526e+01,-4.279279508100658318e-03,-9.790019057266148295e+00
9.994239757840441385e+00,-5.057649537334034037e-03,-9.788179924510144403e+00
1.000305124548199842e+01,-1.173976670867389951e-02,-9.787185390733693424e+00
9.999790886234537268e+00,-8.668558485028926563e-05,-9.802225650994371264e+00
9.999504518391846730e+00,2.456352457059903134e-03,-9.793511093844129434e+00
1.000330393881584179e+01,-1.194323196318614749e-03,-9.795821953551461903e+00
1.001233481893234867e+01,-7.519727486897451532e-03,-9.786436689957829671e+00
9.999487068214394370e+00,-2.068588079852248188e-04,-9.800191131203158434e+00
9.995517113485044902e+00,5.140177332902813936e-03,-9.783843652423284354e+00
9.991040442199935256e+00,1.413993886634239009e-03,-9.779525041066868596e+00
9.996648495601311524e+00,-5.640998082580811479e-03,-9.805767674178044402e+00
1.000414497898981203e+01,-9.005511172228936739e-03,-9.784233914987236602e+00
1.000257402325459033e+01,-9.542723195601237381e-04,-9.778699711542941486e+00
1.000261978113128158e+01,9.758618794414858485e-04,-9.801621779765234521e+00
9.998026431964593286e+00,3.677214945922760957e-04,-9.805701282134194230e+00
1.000356552153571421e+01,-2.114668034959286003e-03,-9.778662057683643383e+00
1.000046353269987165e+01,-1.235423259916793200e-03,-9.793204187826303198e+00
9.998132561057666123e+00,-4.897964549530543776e-03,-9.793967807027408767e+00
1.000114227547748946e+01,1.359640684743513260e-03,-9.787048901539842305e+00
1.000907008601798687e+01,-1.157780752070980759e-03,-9.784650376632971103e+00
1.000438760557080364e+01,4.244835072186324380e-03,-9.807673207306200069e+00
9.985395005907275134e+00,3.547032955167596043e-04,-9.797138620978508072e+00
9.996495301720257132e+00,4.524677490912672878e-03,-9.791276575974388052e+00
