gyro_x (deg/s),gyro_y (deg/s),gyro_z (deg/s)
-1.700490252593485699e-02,-2.690860527232055363e-02,-1.187154574359764250e-02
-4.871326743898286848e-02,6.906309574355013435e-03,-5.416918842354839780e-02
-2.805887158189954156e-02,5.641617504338680006e-02,-1.772060710270595765e-02
-3.249408373164055369e-02,1.030385478447319869e-01,2.985229212974565768e-02
-3.786716957271892003e-02,-4.611526818028465619e-03,2.063457695554849272e-03
-3.058586153863906976e-02,-2.688630556934934815e-02,-5.608488023028185276e-02
-4.588485295186636032e-02,-5.364590904969097906e-02,4.525970922754075920e-02
-5.916373991698612583e-02,-3.317623640038418198e-02,-2.309719523135856864e-02
-1.656462179121370173e-04,-2.716387253659341069e-02,7.472049962547132329e-02
3.253289692802265737e-02,2.894019717550475046e-02,-5.075549819097980447e-02
6.983393068368394518e-02,-4.028997367149280556e-02,-1.019223870884481895e-02
6.530358212118812788e-02,5.304969752741156563e-02,7.351861187124651698e-02
-8.644035352428956764e-02,4.867873169288650798e-02,6.148716638030924525e-02
1.357310349114601578e-02,4.079560942434817122e-02,-7.740803359352541047e-02
6.957879105715137312e-03,-4.757040222907599897e-02,7.052223587045387820e-02
-8.508473149887689491e-02,4.574033532815571096e-02,-4.564540999051075465e-02
-3.451291377539580235e-02,6.077889991899027011e-02,-2.103725212691530053e-02
1.123401091088679048e-02,8.109025917251141968e-02,3.295024237470933065e-02
3.089739050147343943e-03,-4.151548124713241167e-02,2.201777099663730294e-02
-1.118137139087035242e-02,-3.473119126170826770e-02,4.059091311333257179e-02
2.809336466255463877e-02,9.081349302437462245e-02,5.423502055734078647e-02
-1.735636514494344473e-02,4.476417946977648277e-02,9.855956021633893380e-03
2.926777838512648403e-03,1.177729794272831983e-02,-2.732928164549751696e-02
2.414442480030400129e-02,1.971041137603773627e-03,-2.996467519833647883e-02
3.540691317520737458e-02,4.737681297240733946e-02,4.576294129863674176e-02
-4.812181465335574337e-02,-8.671924072186908486e-03,2.898908064244409832e-02
3.772769226445114865e-02,2.473981249687706024e-02,3.571205750363205811e-02
-2.123646148006062134e-02,-2.833537834400682784e-02,-2.915074189520002260e-02
-8.424888987432568171e-03,-5.730907332026609347e-02,-2.723887610412088073e-02
3.602969161723203195e-02,2.070941721430948762e-02,-6.120096584322598336e-03
2.021989386803376906e-02,-4.978440478725050522e-02,-5.975441367057715558e-02
-6.746234284328041231e-02,4.705003616890983398e-02,1.417991423904687957e-02
2.707303094849159222e-02,-1.106938133930340622e-02,-3.822788313413683775e-02
4.806920531771766494e-03,-4.993160761163374650e-02,6.133192810901555436e-02
6.606904283356951867e-03,3.189137527816535145e-02,2.291592681877023530e-02
-2.156820744512319074e-02,4.739245510209146028e-02,-1.437150554866381200e-02
2.382797411042487934e-02,-7.123447600507617355e-03,3.252068255697985327e-02
-7.652608429646456413e-03,3.826311414760078054e-03,-2.574351629115732842e-02
8.074673404637812066e-03,1.425249917942678080e-02,-4.710785388140703578e-02
-5.300723615017779999e-03,6.797005344691027517e-02,6.019659160213465532e-02
4.703658006813367896e-03,1.622650308267239213e-03,-2.604628750020058364e-02
-8.434367359612247872e-02,2.121984463575976240e-02,-1.720773572296890527e-02
6.339252448814608476e-02,3.511488564405504387e-02,-1.671370400048203739e-02
-5.266856074131713583e-02,-1.091970397154493413e-02,1.741631969582100453e-02
4.557606785277896339e-02,4.426561894726267071e-02,-2.044329123129275116e-02
-2.412256216806771270e-02,-1.675481647385460016e-02,-1.824861022765965216e-03
-3.872008979039243907e-03,-6.187574548293894167e-02,3.030559666586448223e-02
1.689806214557265651e-02,7.283031850510560123e-02,2.357527227882651177e-02
4.572987279640124830e-02,9.132118692505753962e-03,-5.096786919509486286e-02
1.178220208266321338e-02,8.761180980977266441e-02,5.031485714865582826e-02
8.779839522179747058e-02,-2.971139317356039089e-02,3.876011974354980332e-03
4.992780088461150345e-02,3.557933856995023486e-02,-3.563276987627508191e-02
2.576179494351203692e-02,7.540024294897612611e-02,-4.130736774015304758e-02
2.811757458237426621e-02,-5.543371029674638850e-02,2.833813541437495490e-02
-1.160231821506979566e-02,-2.805343361210748190e-02,-1.585172909154080115e-02
1.293679463407228399e-02,1.771692562399910034e-02,8.695725391701808471e-02
-6.042549332237968224e-02,1.986057524325408191e-02,-2.024439047197064759e-02
2.634894006134053113e-02,6.129583088526732899e-03,3.571591213309363577e-02
-3.779353692807358583e-02,-4.397332280400579468e-02,3.298890751206312588e-02
-5.396066681102829055e-02,-5.129512577527244044e-03,3.424452625794022903e-02
-7.532467407159959549e-03,1.127026638835845231e-02,5.046566822698154292e-02
3.409255812743489100e-02,1.096834087555427842e-02,2.307677955986476431e-02
-3.215753698552389992e-03,-3.957605732076392019e-03,-9.013121213045827314e-04
3.674410103118372350e-02,-2.559663309437777354e-02,7.228883717277145848e-02
1.233800194344951244e-02,-1.299590360183144021e-02,2.466802838119951102e-02
3.865655123516935354e-02,1.108052487054953829e-02,-9.255216929910587906e-03
-2.973397100620765038e-02,4.535952540221264984e-02,9.963685649482474649e-03
-4.850372934155466192e-02,-1.628322031643627057e-02,-3.629400966154130298e-03
2.179562431487697821e-02,3.207605805278871541e-02,-5.374983447720146391e-03
-2.422311961740727243e-02,-4.525801492158731953e-02,-5.758040698527518847e-02
-8.272396090539122643e-03,-5.008752207082146912e-02,-4.437733699775763679e-02
-3.706033015483916476e-02,-2.645495356357011399e-02,1.676632033907544950e-02
4.386725609767969797e-02,-3.579202772725376819e-02,2.834631757899465712e-02
-2.634667355440197326e-02,5.861649089551928399e-02,2.309979783778959034e-03
-2.823371351997968834e-02,-3.500887138796315162e-02,-1.010194064419017018e-02
-5.359380718419055195e-02,2.940182035585078152e-02,-3.337798276378817208e-02
-1.838387475114633754e-02,2.084329733706083085e-02,6.977759427539094450e-03
-4.918272991367579183e-04,-3.947513681087367471e-02,-5.479129528055846216e-02
1.594169180299835967e-02,-7.110186870931618774e-02,4.300406498494839524e-02
-1.414491579240214660e-02,-9.188996203061783428e-05,4.726900476105689447e-02
5.663416052378361654e-02,-2.499746572358078553e-02,1.899212413842478811e-02
-2.207683340096476890e-02,4.433605831925663526e-04,-3.945978251817887361e-02
6.546388343431826587e-03,4.162175625653567745e-03,-3.219937386215471209e-02
4.062056115190859976e-03,-2.967057579689849622e-02,-5.321327412736226448e-02
-3.556200971803812419e-05,4.533677504028632566e-02,-2.485811153634479020e-02
-1.438333146059220420e-02,4.229817670167409713e-03,4.313875478230869143e-02
-3.700461398660898505e-03,2.661239428554750333e-02,5.209252363918261824e-02
7.456176431873803336e-03,-2.102031303517570490e-02,-1.428862376722854488e-02
4.188929752550900332e-02,-2.915818636904515815e-02,-1.783747542478232237e-02
4.789850657972326980e-02,1.563954327700221164e-02,-1.117076542409147118e-02
4.927395698075086317e-02,5.873141645892756071e-03,1.390499194280101804e-02
-1.724282083251807776e-02,7.664691335168401232e-02,6.191402246530625791e-02
-3.110151764414200229e-02,-4.602399793632167002e-02,1.121976324133830416e-02
-4.031464814436753336e-02,-1.146133718892406762e-02,-3.659345893404647443e-02
-9.586407048437529943e-03,-9.844533855281041232e-03,8.517670436958345304e-02
2.788849188041743823e-02,6.633602739932560610e-02,5.818430026839797875e-02
3.093269489206368697e-02,-6.821800274255813978e-02,-5.185094647679721475e-02
-5.753753470775967160e-02,-6.219497268269306989e-03,-1.710194657865720530e-02
-6.014400577353228028e-02,-5.246151684824864464e-03,-1.281994551473182413e-02
-3.810850689868448132e-02,7.295351099763876246e-02,5.389665978165948668e-02
-1.075103092338067223e-02,-7.795770608757903071e-03,1.517869888415930915e-03
1.245537809532227258e-01,-4.400776555767327985e-02,-2.746230849620308681e-02
-7.494699696622593443e-02,8.965329956284229240e-02,2.770253573796501931e-02
4.566164117199356803e-02,4.647247722029383687e-02,1.190317178987567413e-02
-4.187647299912048565e-02,-1.251076292644089649e-01,3.505682668367871013e-02
4.700048356769662150e-02,7.957384627477372130e-02,3.263179344716462399e-02
4.191475034825885293e-02,-1.564258844907940454e-02,-3.172875972244153936e-02
1.944252705078739624e-02,-9.769697347575058421e-02,-1.804888614484957687e-02
4.315781867481771616e-02,2.402588666673348416e-02,-1.032354731649947656e-02
-2.769639709475867073e-02,-4.684992372850199649e-02,-3.374451547476671476e-02
-1.282054446617614425e-02,-1.861851007141573575e-02,-1.590135785904073923e-02
-7.806619755904416202e-02,1.036351693085948641e-02,9.427855069723172290e-03
-3.833011650596378911e-02,-5.168168203690858692e-02,-6.429232997084688428e-02
1.199512573930502316e-03,1.953436114068225760e-02,3.038090733312197311e-02
-2.487938913057955587e-02,5.842067920764093709e-03,-8.358055632085562361e-03
5.892958733743060978e-02,1.039633261341449660e-03,-9.704575061962472660e-02
3.096936918965866384e-02,-2.887910044227392950e-04,-3.814652141435587174e-02
6.844659772035905157e-03,1.032402797494759959e-02,2.917390193788865077e-02
1.116267529379098844e-01,3.816395223839873924e-02,-6.154121811893096400e-02
-7.178585154786313455e-03,4.207077320201675109e-03,-6.671301021523892705e-02
3.215675116032995495e-02,2.238268354782683642e-02,-2.392911385964190119e-02
1.224021966596386957e-01,1.585423745987848965e-02,-2.291856909390186867e-02
-4.258819931954063720e-02,-3.009555641505652288e-02,-2.566502324479087022e-02
1.445784880358046143e-02,-6.422536326995622810e-03,-5.466691673294812870e-02
-9.254466711136341908e-03,3.989692017932404411e-02,-7.927128404272764869e-03
-6.280549734696912190e-02,2.591668772567756046e-02,2.832775819144323776e-02
-3.019539833622225666e-02,-1.612295236271927418e-02,1.292981204892744082e-02
3.290568537986746089e-02,-5.917386749038554272e-02,2.769335161622302546e-02
3.304909138713056638e-02,-3.934641073150211416e-02,1.116844038647406001e-01
9.168445124961144624e-03,-6.290873826490343823e-02,-7.520049045930995990e-02
-3.010207274259771651e-02,-2.960616725658157811e-02,-1.323181837921804695e-02
-1.392050001506994240e-02,-6.145265494016920876e-02,3.069262642072010175e-02
3.987909567715119952e-02,6.092659408558451228e-03,-5.790105242147549486e-02
3.730085498017758627e-02,1.358640277912781047e-03,-3.929474089580786700e-02
-2.571182181242230840e-03,9.913199923613592868e-03,-1.401658978956920112e-02
3.696775947321816885e-02,6.878391523497413840e-02,-3.313675671999675998e-02
-6.707963345973042696e-03,6.817102773346142347e-04,-7.819759443180507308e-02
2.650299328626191248e-02,1.611876045500768365e-02,1.022834739279537657e-02
1.727474338404559259e-02,6.567707140901685170e-03,-3.427818546542601985e-02
-3.406216514335237699e-02,-1.604931414684264424e-02,2.014396887639243253e-02
5.494045081285288401e-02,-3.318525966107598035e-02,-7.657598788947439505e-02
-1.018949538956406657e-02,-6.980702062287710841e-02,-4.158154487076817091e-02
-2.434887104539143823e-02,-4.216938165534307725e-02,3.641687501671283383e-02
-2.754777532963154085e-02,-3.754789635000107401e-02,-2.874572515131399580e-02
3.419773073993738477e-02,5.122399843679831255e-02,1.603701940555473174e-02
-1.428311403978311384e-02,-1.608823156571832780e-02,2.753974766428227139e-02
-9.497676402137374000e-04,-3.353283169307711559e-02,-1.386148511341302658e-03
3.581910372805342802e-02,-1.918080399801319960e-02,5.191023757995851667e-02
-2.859793431514617151e-02,-1.428159859753656662e-02,3.827556747397996978e-02
-1.089807364410042218e-03,3.807109117094938794e-02,3.614459139746893646e-02
-5.465253920377662056e-02,-3.694663753427384657e-03,-1.638884845504615106e-02
-7.151976658584373661e-03,8.169575404446795253e-02,1.697052907739524802e-02
-3.971017408603184223e-02,-5.221780588615753532e-02,-3.021802613890380365e-02
1.574037140783959496e-02,-2.323220585728025603e-02,6.546736445310504665e-03
-1.816151216625827222e-02,-4.979704109079939600e-02,2.837470313462237860e-03
-4.147611853582612194e-04,-1.051374859256642980e-02,-1.331770028102832390e-02
3.816799080707922176e-02,1.114097127707317121e-02,-7.400158004305250337e-02
-1.066679338993087173e-01,-3.038628482795666542e-03,-3.153114760505893767e-03
1.981910924598820605e-03,-1.598900016600255172e-02,-4.890673587781897008e-02
2.663412759780398389e-02,-1.296250403076332040e-02,6.978861287376784961e-02
4.949844270012059011e-02,1.545695434086171230e-02,-2.042884867107961841e-02
4.278086577737629653e-02,4.863919821978019559e-02,-1.363561069142206657e-02
5.188973726338563103e-02,3.223667859003641334e-02,8.300883126486967301e-02
-9.503281805893441792e-02,8.871090848246927438e-03,-7.287780083500391970e-02
-2.832106300634814819e-02,-5.512964783571586147e-02,-5.901823869806449574e-03
-3.045157110461287845e-03,-1.120715228357377878e-02,-4.845323892554453948e-02
-2.734327747636239314e-02,-6.916280856890198725e-02,-2.522609225056650015e-02
-8.247751456075888554e-02,-5.776331786737399360e-02,3.075204838444451846e-02
4.130375167916294082e-03,-2.746057335788936599e-02,4.798502476258354604e-02
-3.714315075581585412e-02,-2.203069118569131284e-03,-3.903934644533256504e-02
3.372243410921039325e-02,-8.691678298765855362e-03,-4.188262472271100934e-02
-8.147041883938199378e-03,-4.231772202884137406e-03,8.610925837169648017e-03
1.187044291251788779e-02,6.492322654984220530e-03,2.384036526841125034e-02
7.511757871945876595e-03,-9.311761883388959549e-02,-2.398459019669462941e-02
-3.190879966454287370e-02,-5.829290051406686192e-03,3.775498963579929784e-02
9.763964893077438367e-03,-6.029819199718355199e-03,1.510308931915090719e-02
9.488824843958194866e-03,-5.395490600783117881e-03,-2.899363688223168325e-02
-3.611225772002210621e-02,5.148220496602951002e-02,6.753873197020394958e-02
7.224972555563417180e-04,-4.817597140536563488e-02,3.575134743117518166e-02
1.332630921036559966e-02,3.538852875706211681e-02,2.735936625312588785e-02
1.613248854825072298e-02,6.796941037253148403e-03,1.041484423702757067e-02
-2.721958518734155300e-02,-4.919391870387901378e-02,-7.889663676359841282e-02
2.087192262550002092e-02,7.644335875364977051e-02,-5.065542367489760806e-02
3.319937230872350444e-04,4.945935589366895827e-03,-7.365430068714900157e-03
-1.906104614297377681e-02,-1.879406582421249902e-02,-6.389403969899944136e-02
-3.489183505384026163e-02,-4.853276289721338184e-03,-3.644005755296346460e-02
-1.557600599950611023e-02,5.694205530625501797e-03,-2.856395752091022908e-02
-6.228343590891997211e-02,-5.514339042985987732e-02,3.868749283478578604e-02
9.844855035205414551e-03,2.646546544918433608e-02,-5.185607780452290705e-02
6.240305264599043528e-02,2.788706184021482251e-02,-1.874072287265789172e-02
7.913731824895691921e-03,-2.689690819811008451e-02,1.352103585686661481e-02
-3.756982950887464978e-02,4.853294788960516720e-02,-6.304154688285221186e-02
-1.305047524118952557e-02,-1.607125228145696652e-02,-1.232371040221706855e-02
3.540582253745630861e-03,-2.601214598175726964e-02,5.872220366348870554e-04
-6.215707498197112907e-02,1.673784437580130846e-02,2.593352947579388723e-02
3.750406172666432419e-02,-1.293797178108050706e-02,2.838258173803577186e-02
-7.813164486827037930e-03,3.734556520391044132e-02,-7.474977072381862320e-02
-8.152514259440671665e-03,7.092158638629177114e-02,5.268794076930532512e-03
9.828841738595604435e-03,1.456847302388499833e-02,-4.682377469301682305e-02
-2.100335897251234818e-02,7.266446991007226297e-02,-2.608382515349191161e-02
3.198365236768348219e-02,3.908484832048259028e-02,-4.649691075758067421e-02
-6.382668441674373139e-02,1.571121411648162061e-02,6.446466278961919538e-02
-3.255206365470853652e-02,-8.688523204274810341e-02,9.762533776632990878e-03
-7.347110210719290380e-02,-4.405161433413699174e-02,-9.984381759607783430e-03
-3.961287512119922305e-02,-5.891429506310395803e-02,1.576927614650721482e-02
3.100824363291306007e-02,6.031356260890840919e-03,-1.184012486242081233e-02
8.167678763157781158e-03,4.369591437519433630e-02,3.150818196209494160e-02
1.673546394156024200e-02,-6.329659765359438306e-02,3.782194865589982857e-02
2.706434604935487390e-02,2.327884737879880317e-02,-1.269969491156641532e-02
-2.487976484134506172e-03,4.191950391999332837e-02,-6.122144420110277319e-02
7.589545150780670213e-02,4.081998900954507403e-02,-7.375178522547572169e-02
3.029291687550033155e-02,-2.726473302234605836e-02,-2.843718525390730167e-02
-4.436278741711320583e-02,1.545343631975358914e-02,2.316628694213396927e-02
-1.738659096822828438e-03,7.039152800405513999e-02,-5.119538724256748191e-03
-6.516217350809042075e-02,-2.163348547920923223e-02,-4.026658980645269476e-02
-3.032129677567487261e-02,4.574824992522647654e-02,-4.764507388019158240e-02
-9.750543200619274375e-02,1.214731229643832219e-02,-1.804039614149836532e-02
1.506306325336922937e-04,-1.713275222655296498e-02,4.403010621600908503e-02
5.446790817307993471e-02,5.685438329600907281e-02,-6.446425800766512546e-03
-1.176932238589945001e-02,-4.617268516405065998e-02,-5.948659204857897898e-02
-5.454047314694882714e-02,8.037208106472929978e-03,2.030862966727819963e-02
-4.669234587498981986e-02,-1.376028912640536034e-02,-1.026279736224026268e-02
-5.285462583834561051e-02,2.133670204958676778e-02,-4.282096463738497422e-02
-1.274504172910638673e-02,7.929350277326658106e-03,1.628177651464395026e-02
-6.238508942487518832e-02,1.802052671840810583e-02,-7.203473281850297609e-03
-2.380375469414018619e-02,1.658901065495397772e-02,-5.177470389683987845e-02
-7.155658902383928502e-03,-3.615334168704668200e-02,-5.757554092899156567e-02
-6.190365781169920173e-02,-7.267272528289503430e-02,-4.284182261731411118e-02
9.645427054509445389e-03,-7.811192331095288821e-02,-6.051026092095566911e-02
-5.936800304729729361e-02,7.398002082397939043e-03,2.164476346917973415e-02
-5.008395565034888530e-02,-3.416947490576236618e-02,-2.714261990284627668e-02
1.989920447598049480e-02,-4.691339308286346203e-03,1.860448538245677158e-02
4.779780933265357495e-02,4.797758066267905283e-04,2.728182576139074819e-02
-5.500320369288293210e-02,3.926092088471175995e-02,-1.215132165247443004e-02
-7.638168930611478891e-02,-5.540939581727259700e-02,7.699914340905006371e-02
2.259193457610102554e-02,-7.311546592388176724e-02,4.000376339301741149e-03
-2.874294876027312651e-02,-7.345721146228315068e-02,5.442665290835693032e-02
-3.224233303430004693e-02,3.172088567113118956e-02,2.595962611379237783e-02
8.584858004736132392e-03,5.004996643157108571e-02,-9.267428754827850695e-03
4.890402623400948862e-02,-4.885839086527095365e-02,-8.874410226791536183e-03
2.177731243146294182e-02,-1.082115053307294156e-02,-7.129474839475704456e-03
5.443113816446749909e-02,-1.492963663222981845e-02,6.451694117041534282e-02
-8.340964045200434385e-02,-1.189179249571925556e-02,2.626313686835011693e-02
-1.275662740265888773e-01,1.596536191621596504e-02,-3.327694946924445070e-03
-2.137117799689887757e-02,-7.688636234723737750e-02,-5.935749979006663124e-02
-1.351786646170373765e-02,-2.564651048385906129e-02,6.740792612596050067e-03
3.910747470375241369e-02,-2.800124846050500854e-02,-2.766580215475052465e-02
-6.921448121064163739e-02,-8.633949600583840089e-02,6.056412666090134345e-02
1.150816536167295900e-01,-3.782778088035204656e-02,7.620038088698140311e-02
-2.114726294392170296e-03,-1.241362084644786340e-02,1.123584703518838712e-02
1.940599614995941469e-02,7.168683599173615584e-02,4.391334734718934513e-02
1.311139271939043734e-02,-5.351445224907469544e-02,-1.474537669308742527e-02
-2.301843188269396545e-02,-2.735338841331674126e-02,-3.867352752590268866e-02
2.978718505378288167e-02,7.660182410054653182e-03,4.288158467742499147e-02
-2.658139506916897682e-02,3.366694390185079929e-03,-1.046479847441564304e-02
7.530693090255444200e-02,3.090023700771807325e-02,-4.296211833405162717e-02
-5.874428954822026594e-02,-5.006431325697584950e-02,4.734572355735469640e-02
1.032741353348252088e-02,-4.839621836351494684e-03,9.864785084909587221e-03
6.149750658784475937e-02,-1.166868343707168354e-01,1.103438072602004692e-03
-3.222713484049609389e-02,4.903392450748734338e-02,7.606719233075398545e-02
-4.057848492968916740e-03,-9.268482764765773041e-02,-7.054325445389660054e-02
3.594566897230995484e-02,7.287115668297342030e-02,6.917588919611977749e-02
7.888669990567198642e-02,2.373081914502758044e-02,6.380395265009031203e-02
4.060343153097415066e-03,-2.601225147605561519e-02,-8.253690728864346640e-03
-3.523533130380557266e-02,6.449804924538382611e-02,-1.630600806906234643e-02
4.918073312590533208e-02,2.118395953805844029e-02,1.073182869494994016e-02
-1.548042602653185162e-02,-1.618620486671780781e-02,-2.872688116250619872e-02
4.318269141592271342e-03,3.172161342312689730e-02,-6.170766515966736622e-03
-4.371774648470159313e-02,-1.918487086789125856e-02,-2.817737214229545407e-03
2.054483286167359951e-02,6.455182626867373395e-03,-5.089236500591676204e-02
-5.596560262264019259e-02,2.309720132809241558e-02,5.415280467114428481e-02
-3.268913125716259999e-02,1.683596207394353478e-02,-8.521208194560210558e-03
-1.021961482508858786e-02,-1.258394727735369888e-02,-4.926845514617891886e-02
-1.619943233827454004e-02,4.372339322921081628e-02,2.906336640491874457e-02
8.074776103202284394e-02,-8.379598721631451030e-02,-5.069489104388655992e-02
1.095903309689928579e-01,6.620629646997766397e-03,5.322371334062842019e-02
2.756570318419241522e-02,3.919412654230062208e-03,1.712374930176600038e-03
1.559051681626923841e-02,-2.001062165347342742e-02,7.000938861797405093e-03
2.264586416703681659e-02,3.176247034082075454e-02,7.233817307345843245e-03
-3.335144246159492398e-02,3.837826701983088756e-02,3.181470808416675400e-02
2.620128430445013007e-02,-6.180700721243511525e-02,-1.666413425523566739e-03
2.323386706954635658e-02,-1.367610523835967665e-02,3.217387631843729445e-02
-2.783378273993680416e-02,6.215362497370931216e-02,-4.803929090719966793e-02
4.450712512245180025e-02,-1.525469517651642905e-03,9.362730187015846917e-03
-1.621828090304214959e-02,-3.093111963277079060e-02,-4.726677078994580977e-02
-3.618948928194245379e-02,-5.292115610293537942e-02,-3.433733453151141535e-02
-5.170597147239786029e-02,6.125557188133690101e-02,-6.573210433986420576e-02
-7.403837759640785610e-02,3.290261774176735793e-02,-4.261757734008769088e-02
-1.905490949069835226e-03,4.493345362094180312e-04,-1.233931625447985854e-02
2.474134765773431115e-04,3.855505091707875365e-02,8.812420894129674442e-03
-2.409637269808814763e-02,7.742310320507037047e-02,-3.006077572849647633e-02
-9.044809463925244930e-02,4.201620749318305675e-02,1.859157508083592036e-02
-1.762210273702274205e-02,-2.713072139660855156e-02,-8.525258284171684242e-02
-5.417258339948305412e-02,-1.283352821242007835e-02,-5.303500861929223362e-03
1.267981723933739617e-03,-7.631921398698446324e-02,-1.351835770427887735e-03
-5.820585585900965586e-02,-3.144759904555524677e-02,1.836879042544923429e-02
3.288772145097766664e-02,-2.413809090808008428e-02,2.596243189681191402e-02
8.029535608802940150e-02,5.874541390533751656e-03,-1.973836534583254046e-02
2.211268274279255472e-02,-5.110925723676413429e-02,-1.844954558308084178e-02
1.168233137785621052e-02,1.744580656191514409e-02,-2.522406109522305415e-02
-1.324021162813691400e-02,-1.779615632442860251e-02,2.179499360661316804e-02
3.752029285693606747e-02,4.839169011320072072e-02,-6.348539275569539675e-02
4.055446294786091421e-02,7.140798271485383764e-02,5.016671942971039078e-02
-2.836457993324541585e-02,-2.589590175637108277e-02,-1.849614002395577952e-02
-1.837627541536901790e-02,4.169253028821025275e-02,5.526897429358586461e-04
-1.636099458452580646e-02,9.522362602708790355e-03,-1.944398725378276849e-02
-2.272265234680584736e-02,-2.925231318304143124e-02,4.543499191303809054e-02
-1.410487041515024603e-02,1.141182306424532583e-02,4.874666527896925894e-02
2.032863043573601702e-02,-5.129245522607234903e-02,-6.086152751781814807e-02
-4.564311196031915763e-02,-4.946093395203367271e-02,1.512953068811874295e-02
-6.010797381953291059e-03,2.178901361961445293e-02,-4.337110449717594685e-02
-3.313619837050664485e-02,-7.892531604561636369e-03,3.359321845524716743e-02
-3.781973759521350953e-02,8.792294061024671925e-02,1.455241108141606086e-02
-2.752892335592085904e-02,7.906396153279886610e-03,-5.218272509283417016e-02
1.452141307615927197e-02,-5.236511245254613089e-02,-4.738162987438196416e-02
4.460788844366143230e-02,-9.636757737582748919e-04,1.649979675893639003e-02
1.035361089146787615e-02,9.437050256432153936e-03,1.440141477536917465e-02
-3.351890066575086147e-02,-5.010420874728957474e-02,-8.470837650626740489e-02
-6.953484397930702332e-02,2.338252566883465002e-04,2.481727627633234859e-02
-3.669271653837963580e-04,-2.549210809220585697e-02,5.377930535493206238e-02
7.912875115005763016e-02,3.338001597605611687e-02,1.273635377015984796e-02
-1.786094284582978283e-03,4.727510841988324941e-02,-1.791240283236094494e-02
-1.483909936618692076e-02,-1.098678442484081301e-02,-5.622270935530561398e-02
4.327354426258206432e-02,6.620552875840886309e-02,-6.336845266798346588e-02
5.702760261050558027e-02,-1.413160782140916380e-02,1.754398313434600218e-02
5.071579178644577968e-03,-2.331982356876198190e-02,2.511474217609522760e-02
-1.797208100521155427e-02,1.488739243517882282e-02,-5.624403628759458429e-02
9.960699616243314999e-03,-2.433542741185211206e-03,-2.339159556367719286e-02
-3.065000860986815193e-02,-2.550237806648424435e-02,-4.514719638875556995e-02
3.688503451029737090e-02,3.578210921120641985e-02,-6.209826278169601824e-03
2.571461938862582702e-02,1.573060946899104348e-02,-5.013980741809032776e-02
3.210769084964380186e-03,1.567097266570807029e-02,1.592857115701234311e-02
5.076442814981402957e-02,-2.170792199017167537e-02,1.809959029405351638e-02
-6.067722291751105612e-02,-2.422255789887488211e-03,-2.316323982886020483e-02
1.550239706844485504e-02,-2.615628202100154717e-02,3.725084368460246376e-02
3.987960302231738363e-02,3.830667982472785865e-02,4.700552860883306511e-02
-2.310960983254079296e-02,-9.260290381932776219e-03,4.521164293078348134e-02
-6.018039295280664704e-03,9.501195582529076145e-02,8.872445588834985616e-03
1.426979971976552941e-03,6.041439506186329494e-02,-2.534865643471971228e-02
-1.824265487653024820e-02,1.864883340372909537e-02,2.338462559592041634e-02
-3.768799780852708642e-02,-1.060359357198673372e-02,-1.887010303205515979e-02
1.440698166403267880e-02,7.784001101856927174e-02,1.090069995946677927e-03
3.021794239097192608e-02,-6.596194937061537191e-04,3.604775058659753784e-02
-7.853842827885232358e-02,-5.306860834234939511e-02,-9.565004763942955984e-03
-8.233592094441863699e-03,7.094053549940331459e-03,-1.823861356164811764e-02
-7.947117488643491712e-02,-1.423912369494825282e-02,-1.213310853163650400e-02
3.628509852314222572e-02,3.054429901378017884e-02,4.091861065721886376e-02
-3.427590200769185802e-02,-5.977100953488960478e-02,3.290401212138650833e-02
-3.619521589357721503e-02,-1.878786738423643063e-02,-1.444710268105549311e-02
2.372756919591667915e-02,-7.834363963172950862e-02,2.880892783763494558e-02
-1.294897767993035027e-02,1.545900681738620296e-02,-1.899641144684196745e-02
2.420253316606910121e-02,-4.802639146794432379e-02,-3.531370150220013854e-02
3.766103095824033936e-02,-4.965506863428523904e-02,-5.579121113140680238e-03
-3.396707897621160672e-03,-1.544470465976511761e-02,-6.069633044521464266e-02
5.275014797755845503e-03,5.398021051849682256e-02,-1.702072730674235963e-03
5.728508047087205873e-03,9.216857089134016315e-03,6.851444773989508186e-02
-3.633859264470356426e-02,-5.096520615062647558e-02,-3.667121489118429362e-02
-2.624192239751141700e-02,2.032863797504939202e-02,-5.416147459942191600e-02
-4.754239660593936596e-04,1.498052759170603529e-02,7.479140993065831397e-03
-4.569029425959787033e-02,6.828445131160863768e-02,3.514260081969938082e-02
4.847145528730201214e-02,-2.286093831598507570e-02,1.042700415914844629e-02
2.073268826848552113e-02,-2.885158369358632735e-02,2.081994041632632964e-02
-8.266660650974649513e-03,-3.592642371036022797e-02,-8.033497996050042479e-04
9.112618910917500564e-03,-7.038543258295973382e-02,7.133914940313523800e-02
-9.498917424838222712e-02,-2.759471567687641833e-02,3.921615095713685065e-03
1.432011971873364473e-02,-1.068588885625839334e-02,1.139105363298306521e-02
-1.006534746886832837e-01,-1.881850184744984897e-04,-2.052349318692134328e-02
-1.187157180514831524e-02,6.756555464717849124e-02,-2.155392446912681934e-02
9.321567077919378635e-03,-5.448520835274203028e-02,1.815499306018665895e-02
-3.674798967237619812e-02,8.380435112551540278e-02,2.845022024685932294e-02
1.644544489446828420e-02,1.339125777874117153e-03,-2.267567023271693100e-02
2.855897061032324283e-02,7.859375614708878632e-02,3.165931568786253120e-02
5.546581686343370760e-02,-6.240861969292930966e-02,-1.798944857442178608e-02
-2.421938120521696311e-02,9.988898361005065646e-03,1.405117428104623971e-02
5.755997543635044122e-02,-3.456139786123002544e-02,-4.686321368602357207e-02
1.637486046062865130e-02,3.389664486124265713e-02,2.989611521742684521e-04
2.639102435793153675e-03,6.933165082161765053e-03,1.818480983429831763e-02
-1.214922480750596501e-02,-2.666503334137379500e-02,4.557799657684739880e-02
-3.241093046675712352e-02,1.465769193842881776e-02,-1.054535473837936166e-01
1.047390234503656897e-01,6.504630998904705440e-03,4.968473898987258580e-02
2.325600972960205175e-03,7.917156116701820623e-02,-4.000324290233223806e-02
-2.615431702672472991e-02,-3.686978182721758340e-02,-7.476867304590059660e-02
-1.783877984245919868e-02,-1.862470037777864962e-02,1.468209698477482977e-02
2.265460276180775168e-02,1.031520472729869353e-01,2.595991244949608090e-02
-3.425736122405360212e-02,-1.896883692600086907e-02,-2.970995965636153910e-02
-2.803335705850489717e-02,-9.986094497690469612e-03,-7.303377665288213194e-02
1.713023865666755616e-02,1.949299062057863879e-02,-4.809495318405506564e-02
3.048071728690654111e-03,4.116267465299434242e-02,4.139193681404403774e-02
-1.880664357263835476e-02,2.068564112868784624e-02,-4.178590478001012465e-02
-5.154457697942512254e-03,1.103953304511489514e-02,8.233035933921772909e-03
1.101100292043297874e-02,-1.391523994844450982e-02,9.762152642336758071e-03
1.268910084197036325e-02,3.639171210176499194e-02,3.111575449847147137e-02
-3.432175708449219237e-02,3.544031250194450144e-02,-7.927393281991603272e-03
-5.771674074931434223e-02,5.128865991985686462e-02,5.166639672798434280e-02
2.151463353268283710e-02,3.298240332366481065e-02,4.305827852496410535e-02
-4.069875377811906642e-02,1.560085968775996607e-04,4.529332218358649020e-02
-9.820868137705455938e-04,6.485937290104269726e-02,-1.027126032524643823e-02
4.480597851078468169e-02,-4.634347699269090320e-02,-2.859141680460356230e-02
-7.501135569532815794e-02,-3.531271781538441318e-02,-1.932663086768280844e-02
7.958566360273519602e-03,-9.216425724149228740e-03,7.258209711801354158e-02
-3.939896257584311889e-02,1.025408004150235933e-02,-2.641813440456934614e-02
-7.608843058267904247e-02,1.588627378077372629e-02,-4.542121764367738901e-02
-5.131940347990268658e-02,8.259620990183952349e-02,-1.653224046210214140e-02
2.538266247254377522e-02,-1.382440158433447149e-02,6.066890354488910578e-03
7.840225971701128560e-02,-6.869560178154451857e-02,8.794961265356367186e-02
9.821142266620177044e-03,2.821706932487999878e-02,-1.680716597141290042e-02
-6.841611829365036590e-02,4.960344866761739850e-03,-3.473144165001774974e-02
-2.368513191918041050e-02,1.341474403876785149e-03,2.488094979435513665e-02
2.457976262813306445e-02,-6.588180711302534139e-03,1.163723363125483690e-02
-2.671206148066729985e-02,-1.348116972408376982e-02,1.023701542058311556e-03
4.179444019728090903e-02,-2.337211593112320518e-02,6.522884315118034071e-02
-2.335933258016258812e-02,1.369120232657401910e-02,3.264674416331914825e-02
-9.309977388323936731e-02,-2.018324883708642534e-02,-6.961189545967438885e-02
1.915700883770015545e-02,-2.442578384052752211e-02,1.139110448005893339e-01
5.379838474178543287e-03,-4.899122508605845139e-02,1.156671374107578615e-01
4.786438247534138130e-02,1.650811502197536973e-02,-2.495601603409510968e-02
-1.452347956666142671e-02,4.557550911848866348e-02,-5.509277212895454662e-02
-6.541538926004539234e-02,-2.793294335075937468e-02,-7.507581664858330173e-02
-1.796573032503367279e-02,-2.710935455768337388e-02,6.659055368797359153e-02
-3.429385532872430975e-02,2.799061823692156059e-02,-1.343457121515788215e-02
-4.247266252293162292e-02,2.139487705697520198e-03,1.551902184665948474e-02
1.091810067105283485e-02,-2.679767858570338002e-02,4.435608699734840815e-02
3.523269660341285525e-02,-1.436987668672856482e-02,4.418483592830758921e-02
1.814534691095910646e-02,-1.584096380723366143e-02,3.486375052482299647e-02
5.197714444953595303e-02,-6.607771302138304437e-02,3.271131616660999386e-02
2.249246816816909481e-02,2.056559394800701671e-02,1.215553674511671463e-02
-1.711429711014463353e-02,2.557405868630224614e-03,-6.098399008727899834e-02
7.246268849022720338e-03,1.536265299184748356e-02,5.355529454018863322e-02
-3.411382106901297839e-02,1.035126907851448112e-02,7.310293724178225372e-02
-2.111114133017162955e-02,1.597164503816413811e-02,5.704920574366222769e-02
-5.699200814772566182e-02,-1.987791115392289684e-02,-1.926362408525838024e-02
6.418334738198906708e-02,1.692368355265828211e-02,-3.671886826201319374e-05
3.924198849720125261e-03,1.557510861309460183e-02,-2.532770695168283515e-02
1.358720166082440749e-02,-9.641325229923908974e-03,-7.263431035784657236e-03
3.393115088251238282e-02,2.134697982042427569e-02,-1.878696294472514093e-03
-3.154728775876292773e-02,-2.754934518009857780e-02,-8.277892593250904540e-02
-6.713817666056381972e-02,7.022158293792936379e-02,-1.130835703557693181e-02
1.589601788264012605e-02,8.471144314007325246e-03,4.875589485965450137e-02
-4.722466363433348163e-02,-6.569307785908100675e-03,2.712125615740114057e-02
4.231019690461038096e-02,4.100440397547038159e-03,-3.265651794130449564e-02
-6.404351114191726702e-02,3.986273132351821763e-02,-8.937181475594585187e-05
-9.097514641144827108e-02,1.761200778672012551e-02,7.795178240824849475e-03
6.998867789819197827e-02,8.537667041028504031e-03,3.457779485572511774e-02
-6.216701853594826244e-02,-5.286929061037680400e-02,-3.600827867441014872e-03
3.942682459215802321e-02,4.091746442784474636e-02,-2.211959387926966045e-02
5.583828188130043196e-02,-3.125914958989624293e-02,-4.599490556143851806e-03
3.626649162780771346e-02,-2.199002942226771788e-04,-3.375246560274316326e-02
3.631120926513989322e-02,-4.704652958523732422e-04,-4.454914459660527792e-02
8.860786953630840623e-02,-9.740939303636871396e-03,-2.921203770951734391e-02
-1.918533240250248212e-02,-4.547027390222475179e-02,-1.973310483940797846e-02
-8.285924675123719496e-02,8.203238885794685714e-03,1.476381535612482192e-02
-4.859536764830289617e-03,-6.489565234538452465e-02,-2.734020310732518735e-02
-1.531114213527203470e-02,2.746964428527342086e-02,-1.478414320009272551e-04
1.501970922406517701e-02,-6.990705617385981063e-02,1.106661507995657795e-02
-9.418153505844508279e-04,-1.056421882444857387e-02,-5.127939550808291447e-02
-3.028322957345134722e-02,-2.491400463993350203e-02,8.063322245210029215e-02
-2.633651500740952917e-02,6.302498090332837866e-02,-2.146684963529152043e-02
-7.649589747987958939e-03,-2.478523455584042551e-03,1.149107551138418490e-02
-4.353248796059775577e-02,-3.375032477701694900e-02,-2.336897365511703822e-02
-1.324084104821693884e-02,1.994497339995996571e-02,5.742759527150993748e-02
6.067342799960863398e-02,4.905515436509008675e-02,-8.958240130220590514e-03
-4.150019045895587261e-03,7.564311026970038827e-03,9.757854454464151908e-03
1.797487281199640135e-03,-6.280236019570071063e-03,-9.680784049711479988e-02
9.415613833439956393e-02,1.377871257040771437e-02,2.471263925686149540e-02
-2.322603244925425248e-02,-2.398226857560096723e-02,-8.965645418850244630e-02
6.852084493008735178e-02,-1.039563392773673774e-02,1.379559710335055700e-02
5.363040438043213676e-02,-1.601220629838905063e-02,-4.887273095752854568e-03
2.310326275465229492e-02,-9.540242955184569454e-03,-6.133878499516952354e-02
4.168955882329556870e-03,-5.752877117459131995e-02,1.119019562027883524e-02
1.693128296976110494e-03,6.355937375337435136e-02,-4.731719166919373665e-02
1.618544139801775250e-02,-2.472913232022135727e-02,-1.280286295563417241e-02
8.022398275444446794e-03,-1.012148910285313834e-02,-5.191000844508942419e-02
2.360799543483314139e-02,-3.027618476333787667e-03,-1.031310203590677377e-01
-1.467591425854991756e-02,4.743112097384939718e-02,3.255589412350807371e-02
3.918681988420807255e-02,-2.362185448764804810e-02,5.816287562838725472e-02
2.556830804428414892e-03,6.655388195305143861e-02,4.916204814921930344e-02
5.397527800359568778e-02,-6.563373816448357656e-03,-4.824936568170554163e-03
2.760992760808992155e-02,-4.662761364862978014e-02,-1.164889318976232609e-02
-5.482203298896642409e-03,-6.958402051064734029e-02,-5.101687474918836090e-02
-5.731351010245342749e-03,-4.790826998336671083e-02,8.078030376815156788e-02
-4.533350843927180102e-02,2.694029184743743869e-03,-6.789414966741866286e-02
-5.298874026055694353e-02,-3.299599289516463169e-02,2.389675499891806554e-02
-2.074582022611677450e-03,4.860528488086635762e-02,1.373056802641269697e-02
-4.986562829395258661e-02,-3.474694720703833811e-02,1.052889682641861696e-02
-6.352968602104182988e-03,4.205079405425164035e-02,5.911060752640957816e-02
-2.921194188247426896e-02,2.247648387339156589e-02,-6.882183800743126023e-02
1.809946417665581411e-02,-5.240369635741397303e-02,3.045883102772257295e-02
-4.872553034741532868e-02,3.479419127596213024e-02,1.830131118676218624e-02
-1.699633536921116989e-02,5.165005033172079263e-02,-6.329500642985964876e-02
2.677686945967150053e-02,-4.551624935953307860e-02,2.657536568891373518e-03
4.250346837049641391e-02,-6.351073146055963813e-03,-3.853717914974087808e-03
-9.884663135051635630e-02,-1.770111092661902016e-02,-2.525033565248980746e-02
2.980511576619893424e-02,3.037642589936822082e-02,2.153545195857849235e-03
1.748376498263652613e-03,5.280528057618660842e-02,5.011981898735975299e-02
7.789543744084630184e-02,-2.482286808598917205e-02,-4.422443137680160535e-02
4.169334597925138802e-02,1.305260074359402243e-02,7.036271616442742183e-02
-6.346870187156086751e-03,3.138303986000600537e-02,1.629063920978453955e-02
1.616778620761333832e-05,-5.017784831302095350e-02,4.064786948315034058e-03
-2.132933079171729553e-03,6.255933802134447386e-02,-6.467519633151262715e-02
-4.713685963404513901e-02,-3.973260891398453475e-03,-6.174567113902767329e-02
2.370016906101301071e-02,-3.007559476306720728e-02,2.698941424179280082e-02
-3.336702165459813803e-03,1.402273393754657066e-02,-5.588649787590233703e-03
3.626431947431349445e-02,2.285804066386389055e-02,2.640246339172890727e-02
2.349752500564540603e-02,-3.485954989895859168e-02,-5.099128675836645669e-02
2.692996735311197366e-03,-5.858551874019322925e-02,-1.002664561321529035e-01
1.442072371822449711e-02,1.038451911424589404e-02,-1.125595184995597381e-02
1.154493185481886633e-02,4.587431465999524532e-02,3.615454750711384613e-02
-1.962223708677636111e-02,4.827696065405842618e-02,-3.450898871527823680e-02
-5.900773401709677457e-02,-5.575103818241598091e-02,-2.606461010002262407e-02
-9.623195923388788361e-03,6.751406378521365020e-03,2.388934099938309907e-02
-5.671128059261290426e-04,2.250960873761126760e-02,2.699142223115493303e-02
2.594390727525084164e-02,-3.330989949726771010e-02,-2.161637519039047786e-02
-4.231848163420684483e-02,-1.217833655722044550e-01,-3.045326228066166582e-02
8.627361447003120687e-02,-4.042579845708817177e-02,-3.822975105048383171e-02
4.689279094436023948e-02,-6.918275287927116990e-02,5.377751530793596635e-02
1.787634039703272365e-02,-4.456434029955578385e-02,-1.850663118233693239e-03
5.288673873604202852e-02,-1.196060162509232118e-02,-2.285904499824025285e-02
-2.054144181843187492e-02,1.674551467427613793e-02,1.551483601502180731e-02
-6.666090277036404617e-03,-2.202738456749842033e-02,-3.661856840546705988e-02
-7.611680718301631898e-02,-1.153684618649107457e-01,6.429159918801978513e-02
-3.449749247955891107e-02,-6.054863219015213516e-02,-6.941577264604979758e-02
-3.041746958243414425e-03,1.105396374735828219e-01,-6.765784512851230614e-02
5.826019435921261751e-03,-7.477183645833378840e-04,5.386076877061104357e-02
3.179998062597864245e-02,-1.963318318147315097e-02,3.614686907748702882e-02
-4.013495588416202131e-02,6.240267207051083259e-02,8.025019615703839898e-03
-9.803815498032350181e-03,1.343881225124554379e-01,3.969987251565287867e-02
-1.184750932123559801e-02,-8.172741657462755105e-02,-7.034150976406011724e-02
1.708039847204849849e-03,-6.058393480335656778e-02,-1.041998868535427489e-02
7.264639978841561097e-02,-1.632278913853258198e-02,-2.308094729714446278e-02
-2.715368370661466399e-02,2.033477062802088731e-02,6.807160977298430671e-02
-2.922080649447694398e-02,-6.576867229310763216e-03,-1.002275084563864806e-02
2.372913877076117048e-02,1.868068545216911621e-03,-3.632949917774456333e-02
2.256771048829549643e-03,8.101901136074292353e-02,-2.467245161158700129e-02
3.939439043654077710e-02,6.423245223035339846e-02,2.086777460829503106e-02
3.032303915158094179e-02,3.973231131950333977e-02,3.716022950286870102e-02
2.574599190530166629e-02,2.742335686434436634e-02,4.716817624459276187e-02
1.879981843994956846e-04,-1.169927742207307365e-02,9.681508809284313085e-04
-1.657212311827897105e-02,3.323946950510856674e-02,-6.172137323606628062e-02
1.729904576621480936e-02,-7.990529408046483442e-03,3.160470132930814913e-02
1.606817531344997829e-02,3.864005967262037350e-02,-5.098533444008536419e-02
2.619478671312068171e-02,-7.051938273251388833e-02,1.843207461995275201e-02
-2.043796472919410297e-03,3.775640685417347431e-02,2.106146711544079619e-02
-3.934740973297590205e-02,3.320610810573563360e-02,2.356351947295124566e-02
-2.700281538407053872e-02,-6.167912856751366080e-02,4.479342440789866459e-02
3.472266753003742240e-02,-3.773294356425069968e-02,-7.844489307878202422e-02
5.436626163437922876e-02,-5.778380576864233786e-02,-2.490464295336139097e-02
-9.029300122047353994e-02,1.067802434849009913e-01,1.697156827342088947e-02
1.762218003507792785e-02,-1.437952557128731974e-03,1.036912366970320874e-02
3.150063387724009317e-02,-2.004748558620082777e-02,-6.410583448329862030e-03
3.961286015465816102e-02,-2.655167883916691521e-04,-5.461482789162606932e-03
-3.975574668719162458e-02,-2.226299299358706213e-02,7.652218445516942476e-03
-3.400697905333358029e-02,-4.248887468792583028e-02,-4.680019551831141739e-02
9.275078359693333246e-03,1.418920591449463614e-02,-3.951091880658040741e-03
-2.897435468710479051e-02,3.228010339659268067e-03,1.180044064396947972e-04
1.387530660567006316e-02,4.421857032990985509e-02,-2.934197562241336668e-02
5.398175796969460760e-02,5.299136774254478016e-02,-1.763553772674510481e-02
-2.499124404931942975e-02,2.110852354618229787e-02,-1.631350156264422136e-03
-1.989626604272626623e-02,1.033256661813530958e-01,-1.766093699344540788e-02
-2.802828147058869512e-02,3.015442134997677742e-02,2.240280474942627637e-02
6.602838430714205731e-02,8.300750901928920233e-02,4.845762316530941027e-02
1.918829920220326002e-02,2.499042798283013581e-02,-3.438781252210564715e-02
1.257147965348886544e-02,-8.451586177760891938e-02,1.799956404884483704e-02
-2.559896424233433845e-02,-6.083513284862629433e-02,3.495203563381292684e-03
2.058712192772423066e-02,-1.973589560635296072e-02,2.347617979551002224e-02
-3.579606391113410863e-02,1.839719981197692616e-02,-1.250745863035146628e-02
1.294547549684105237e-01,3.499936846535087187e-02,-1.496073626835671931e-02
-1.352539723142707866e-02,-9.140445160608530462e-02,-3.270832640170323602e-02
-4.195940570143931458e-02,-6.178286216122984981e-02,-1.139787786772216739e-02
-2.916578763406717928e-02,-3.311757639414469184e-02,-7.668704496952566917e-03
6.039821448034306955e-02,5.722929626007074860e-02,-1.046359107940701971e-01
1.660903986457880344e-02,-1.085101701778401137e-02,4.007700549109292215e-02
-9.139733305907797936e-03,-9.903988319774872234e-03,6.910378208390834977e-03
4.678802550982593018e-03,-4.296582921169358332e-02,3.770662256270155416e-02
1.264439928405550195e-02,6.733058650280632218e-02,7.305177701141163382e-02
3.287425724078096162e-02,2.066793375191806198e-02,-1.307100828152349924e-02
1.903759129100951811e-03,-8.915558344069743693e-03,-6.112129703923324144e-03
-8.138627066454252532e-03,-4.432936235637386507e-02,-3.774895008165054383e-02
8.638245276516907933e-02,-2.204041018457053233e-02,4.933952310028257709e-02
9.309190298485129147e-03,-2.040560877136978618e-02,-7.087055752444213798e-03
1.981577498611655861e-03,-1.726842761766591780e-02,-1.516841396585288416e-02
-2.538029439284104211e-02,-5.138524369208068848e-03,3.136782838232947401e-02
5.868556136319112715e-02,-7.473221902071854224e-03,4.043214364000274896e-02
-6.043383434673529203e-03,1.086218115352214145e-02,2.178815013861774494e-02
-2.041844352611240157e-02,-6.321873485732976139e-02,5.416959878997210098e-02
-3.117579892482902348e-02,2.826777133256412264e-02,6.577879609161077501e-02
-8.205875206973096275e-03,8.658392762890479086e-03,1.426810922093746554e-03
-7.009597723088443512e-03,-1.272162283744344632e-02,-3.630115409455152153e-02
-4.756148469530608464e-02,-6.627103645014523203e-02,-2.113806570952199079e-02
-3.117681112936204063e-02,-2.533364209462668146e-02,-8.012143751788751433e-02
-2.473332790535934245e-02,-3.346559042009732837e-02,2.582111474321861083e-02
1.006890090236826074e-01,-8.192473641486563984e-03,5.840406474330077369e-02
-4.958972365505410346e-02,5.211927067872636210e-02,4.325908347885126792e-03
3.895480778237931339e-03,-1.424692970962142952e-02,-9.324861793254117168e-03
-1.039072762079995688e-01,-4.621213617328742002e-02,9.684988747894041072e-02
9.693805834155105883e-02,1.604071910712818625e-03,-3.892155329365383498e-03
7.871927111876722213e-03,4.684099337808305535e-02,-8.731422747097037848e-03
8.095303600627812984e-03,-1.871808909076594016e-02,-4.927099014175399111e-02
6.125779340052243949e-02,-1.534997499972118491e-02,-1.888106323239841650e-02
-1.852027715412712591e-02,2.538954239400684210e-02,1.520380613474167641e-02
-1.847713306817356724e-02,3.498132831690999034e-02,-4.373491021569658049e-02
6.308216631474294900e-02,2.587758430703818863e-02,7.415490828705943727e-02
8.521771881197798271e-02,2.245020164058588938e-02,2.243913744507536681e-02
1.801322973103976904e-02,-6.912765906402777022e-03,4.122591725290909032e-02
9.325219768698595271e-03,3.205807824636434239e-02,-7.100292920208492453e-02
7.128579027119802403e-02,1.097918113050340948e-02,2.586169565353728383e-02
-3.171036625684484599e-03,7.624167221122060169e-03,-1.986404567764708112e-02
-3.955632513435031888e-02,1.378117517715277823e-02,-1.214493816420464910e-02
3.541004875741256969e-02,1.151024238160857846e-02,1.583901291074215137e-02
3.827856602933440988e-02,2.595309097955445995e-02,2.696092175976471869e-02
-2.080393842100006566e-02,-3.053566828766346442e-02,-2.098877579461486120e-02
-6.224070429877165411e-02,-1.421902241025528070e-02,2.490917204930342965e-02
-2.331133895941110354e-02,-6.085163413016195233e-02,-6.652228345543895194e-02
8.262992814471216418e-02,7.072645917571578067e-02,3.389465836189640285e-02
4.202475117679459887e-02,9.335234127655991226e-03,5.461428480805194385e-02
1.861003082602603886e-02,-3.329735924241961943e-03,-8.177299046630381874e-02
-1.714641269236081081e-02,1.819052797972055963e-02,-8.021039406651577636e-03
-3.981698104565000590e-02,-3.614841246143882247e-02,1.033849902416285500e-02
7.224112344916995554e-04,-3.434924153077954095e-02,-7.581015130773153567e-03
-5.765283651756016731e-02,-6.523252135156974718e-02,4.491373249937085504e-02
-3.908340195853074461e-02,-4.347663267667484233e-02,5.428502283843243681e-02
3.889233327357974335e-02,-1.451680969160867515e-02,-2.854299380895282141e-03
-4.646230852909635778e-02,1.597731957031030270e-02,5.653168246121807045e-02
5.292969941091378583e-02,3.115678636773971596e-02,2.314610200157804498e-02
-6.736890152893369559e-03,-3.573037164058934928e-02,6.094567029170151490e-04
-4.040247669591613688e-02,-3.756985393880402091e-02,-3.346275016689544829e-02
1.131758485668159057e-02,-3.051734810633334113e-02,-3.033788449682498639e-02
5.425557629306620305e-02,7.123544270705006037e-03,-2.511782441439834590e-02
4.154016421119664099e-02,3.159906386923941324e-02,-8.234587028729896396e-02
3.831855080768385713e-02,-8.418243042678966864e-03,-6.829493853455925745e-02
-5.286076650220843109e-03,9.703762726123983315e-03,-1.237591244463288886e-02
5.704939007742518969e-02,8.382747345610683243e-02,1.739659679123864780e-02
3.928358867868878002e-02,-4.875042983253922296e-02,-9.469861242027338699e-02
1.834244694474539139e-02,-3.485971019420373157e-02,-1.705257392813364775e-02
-5.523272390909191032e-02,-3.538401568124337117e-03,9.124597551175299762e-03
7.687874688234956622e-02,3.700904675181688336e-02,-6.128766634702975842e-03
4.625197387487383488e-02,-4.407674802020294241e-02,-1.014967140507902488e-02
-7.044727453476855306e-02,-1.380923563018686753e-02,-5.137455546356862503e-03
-1.157306380571839453e-02,-4.311585905301180272e-02,-1.243959080102535452e-05
4.295272116379570543e-02,-2.905205435308120046e-02,4.819354051979154313e-02
8.273738863669619428e-03,-5.460684627707486360e-02,-2.012202241769623853e-02
-3.751424172532719179e-03,6.152571341892595219e-02,4.641060569170922523e-02
-5.033541869483073444e-02,-1.246329376587664711e-02,6.925975290806063445e-02
1.005734197148808184e-02,-1.074025879243766315e-02,-3.512746034878767160e-02
1.678525384681228694e-02,4.407577495091585112e-02,-1.599303879164922643e-02
2.217348143129725668e-02,2.062600758741935797e-02,-2.316616760728742314e-02
5.551208718283871107e-02,5.276586723848755017e-02,-4.747559916120194790e-02
-4.528129922102271804e-02,-4.503680166755171660e-02,7.127232637987851449e-02
-3.318106474217642071e-02,-1.849053221140825251e-02,2.179875985769349003e-02
-4.877518886817259341e-02,-5.715292185974815697e-02,2.193705105224438498e-02
1.919755496838904466e-02,-5.887128408480741398e-02,2.015702544676297239e-02
1.582425842744767351e-03,-1.004658978219203844e-02,1.661373176873087026e-02
4.632123545871978665e-02,-3.223850968785105936e-02,1.095315488604978460e-01
-4.314149315151728087e-02,-6.062134778550687733e-03,3.528995083380631875e-03
-4.037288828202722363e-02,1.287078054708948316e-02,-9.692302131320076203e-03
1.987476670724932365e-02,-3.090380459755082479e-02,8.477518031401683196e-03
-1.435550090881586999e-02,4.081981971707716178e-02,-1.477162119217012570e-02
2.684620206278600166e-02,1.020732117075121535e-02,-7.813762034361097786e-02
3.855614061034366019e-02,-2.010043476722109257e-02,2.145246299215098143e-02
-4.010308239857887647e-02,3.954908691305599605e-02,-1.523548131565580395e-02
5.062325750177509159e-02,5.264309640831046216e-02,-2.029697237380138561e-02
-3.863109228182087101e-02,-6.389596944505771328e-03,8.888624782277804171e-02
-1.213453435678572313e-02,3.536231930396024903e-02,8.057187873403110628e-03
-9.910921272288088224e-02,-6.197268915753008714e-03,1.690309433556083370e-04
-2.850899522716097891e-03,4.626724951619534676e-02,7.977298395564165479e-02
-3.613487092463885803e-02,-7.598027854570546524e-02,-4.404136209850242206e-02
-4.198999239634571695e-02,-6.217843042822223526e-02,-4.179090369476658358e-03
-4.982674194306727262e-03,3.898508484416439435e-02,1.151998216930931289e-02
-4.025119052528142866e-02,-1.775437743154390392e-03,-3.498841986910024553e-03
-3.891419795765062306e-02,-3.463166894592989431e-02,3.710827962313739681e-02
3.325999401735917765e-02,-2.829752505707372121e-02,-5.312705003679755317e-02
4.836891463592843388e-02,-1.173470043769995509e-02,4.673245440847642596e-02
-1.383378311343048603e-02,-5.329271256963040437e-02,8.663055866406007069e-03
-1.834723454049396255e-02,-2.490633914302587543e-02,1.279130088561144032e-02
7.756625609227871254e-02,-1.145303538999453696e-02,9.837808036405217005e-02
1.987945281361201775e-03,1.292810545693904613e-02,-5.122245579682878358e-02
2.608765781902443182e-02,-3.760349506345372905e-02,-3.036720850475018232e-02
-1.114933241935796987e-02,-3.862124236468015420e-02,-2.374375704899192238e-02
5.217525833637666477e-02,6.094653298182948348e-02,-2.354990229139376084e-02
-9.822822014845711269e-02,1.969163166423977367e-03,-2.888678435414521878e-02
2.847974101178987749e-02,2.206220685208286000e-02,-2.477362904903257501e-02
-2.023684119000459733e-02,-9.808675650546034783e-03,-4.799903642752242905e-02
-1.362263167757125047e-02,4.369266299892377546e-03,8.628663196917882999e-03
-3.109856169352425911e-02,2.257817035588984694e-02,3.181769174142679707e-02
-3.174404942032788696e-02,-6.009715663488883475e-02,6.888069672948544248e-03
4.069539105415701657e-02,-3.851374604283244046e-02,-7.905367652379856336e-02
-3.247807620322761685e-02,6.073874004366295242e-04,-8.035789085564847001e-02
-5.551744149064685892e-03,9.063367483842005301e-02,7.334872210991506825e-02
3.825316311035127648e-02,2.272314195523403649e-02,-2.896002640332910258e-02
-1.860294374068292150e-02,4.704495040197261002e-02,-2.964311015489710238e-02
1.959712942753455076e-02,-2.728095996737371284e-02,-1.131502065697522624e-02
-5.168867923162462873e-03,-1.175983011046464501e-02,-3.750732317838584295e-02
-7.125855602912658116e-04,1.384600462093178025e-02,-7.347417300091683978e-02
-9.982384374943319844e-03,-1.422818977106375584e-03,-6.091235349094134555e-02
-2.272843991553642404e-02,-4.831587147362556567e-02,6.540789299760844944e-02
3.731593715221716984e-02,5.622806779871858396e-02,3.251657169117817131e-02
7.237470453232094925e-02,3.753136730881253408e-02,8.482256392203613160e-02
1.177314619094668550e-02,3.850299523387355066e-02,1.673959660013589479e-02
-8.782508220702501048e-03,-6.827679881281566165e-02,2.198887566963965423e-02
-4.684038929733289752e-02,-5.933278794710894477e-03,-1.194146665344425484e-02
2.422272745880327954e-02,-1.756141050357451147e-02,-9.339818238177172161e-03
1.507336911550662996e-02,-2.009838807344688227e-02,-4.709533401080292364e-02
3.662121931599177788e-02,2.222728272502163052e-02,5.087768678331148348e-02
7.472609078066143676e-03,4.411945253784296805e-02,3.095466014117446638e-02
3.593157207616467369e-02,-2.598175331285621642e-02,-1.612693088275792691e-02
-3.240993797562036899e-02,5.529327752759076453e-02,-3.221981118862843330e-02
-8.898365778023149472e-03,-6.610695071676245260e-02,-1.920526676405602540e-02
3.431282515314316734e-03,8.324495705434252490e-02,6.091078038705061842e-02
-5.483429651980716024e-02,2.489620413258596511e-04,7.729203017549035604e-02
8.339098849990571327e-02,5.802620443695547664e-02,1.770452895555868836e-02
-1.252232894451477292e-02,-4.743888668691418481e-02,2.423145984345309242e-02
-1.555611218971979931e-02,-4.368003870022806046e-02,-9.647379935219721481e-02
-1.613705546329933377e-02,2.214741085003656476e-02,4.837401028954836646e-03
-2.899661438308964376e-02,2.517379385013146856e-02,4.188478804697018366e-04
2.153541033754708886e-02,9.150361665689535351e-02,-1.179397215960203797e-02
-6.999443149172442091e-02,4.828492677323965865e-02,-4.206420739935727571e-02
-2.385422387255940746e-03,-4.000861592243189213e-02,-6.015578409543985428e-02
1.755334891249773349e-02,-1.161636445282129559e-01,2.081034438401814166e-02
-3.927897739733695465e-02,-4.433758273737905403e-02,1.368398348493789001e-03
1.156977278413899232e-02,1.142061958471804820e-02,-3.001962187656425501e-02
-1.994682661939729471e-02,2.947135030389624183e-02,-2.099623759559783240e-03
1.016863960095491272e-02,-4.528008622757698849e-04,3.785058543677126408e-02
-2.478197042157525426e-02,-2.896699498436204612e-02,-2.379203191372215864e-02
8.573467247973846905e-02,4.475230366038226992e-02,-5.464892299901769925e-03
3.583196128008173803e-02,-4.868813299350690377e-02,5.852874304147553247e-02
-3.209141640078811558e-02,-3.145437349800089127e-02,-5.058937069859090890e-02
5.644830581227664595e-02,-3.860922721741764929e-02,-5.609366947618021904e-02
5.165471608460196068e-02,-3.563971586872946920e-03,4.327125432843840352e-02
4.296025979986096976e-02,-2.493807895690017956e-02,-2.585566450953464754e-02
3.359932972722570049e-02,5.123537922290442859e-02,-7.515670661463545732e-02
-6.124187862149275963e-02,-2.875994987970394504e-02,-5.897359694979699418e-02
-4.050418390807086072e-02,2.482186764295934642e-02,2.558098512779576061e-02
-3.350614352522630901e-02,2.280389627360360563e-02,-4.701130310152332181e-02
8.541880553140976384e-02,4.343374050868211572e-02,-2.141502523907469913e-03
-9.094611445249660767e-03,-8.297959234695996555e-02,-5.032835150047489797e-02
-5.627940395031102300e-02,1.799950399886902919e-02,7.620192121476390690e-02
4.769670901073513186e-02,-1.814677256137455300e-02,-5.260782960727781316e-02
3.756701291565369555e-02,-2.153615721199875210e-02,1.199944548556041574e-01
3.428160716583215483e-03,-2.320868134379855396e-02,-5.866937223271446317e-02
3.856795757537528901e-02,2.147478059458074462e-02,1.946825817269801084e-02
6.055333101596123424e-02,1.157809410007925449e-01,8.032664620438161041e-02
2.365289735085536471e-02,-6.821550667030423787e-02,-4.257929711363755802e-03
2.109036415280080359e-02,-8.792745895085814223e-02,-8.966721431466324888e-03
-5.172580766356069115e-02,-3.373951110057083619e-02,-4.056435468117603610e-02
-2.414698314133165158e-02,-5.193470369738283077e-02,1.577679105367579132e-02
-1.038737989253232380e-01,3.978879145864911565e-02,7.176095725959469318e-02
-5.870209328530482523e-02,4.039091887312668688e-02,1.064017793104476192e-03
-2.059840429790842781e-02,-3.703609391846668375e-02,-4.229601938087265700e-02
2.822001320445564898e-02,2.548325711318390197e-02,4.377806430102417629e-02
-5.737742136101544460e-02,-8.913541402809484204e-02,-3.097559169307304364e-02
-5.696788543465586968e-02,-6.848476419301288177e-03,-4.931884164092087408e-02
-3.989466706467910406e-02,1.286896330134134660e-02,1.664197257607573583e-03
-4.181053847197450934e-02,-2.177227840606040313e-02,-9.772490838019982917e-02
1.976443165591706963e-02,9.344777229095782567e-02,-7.851048827423059984e-03
3.896146002202806324e-02,9.900252735605681587e-02,3.923479104094319131e-02
1.602742219320083678e-02,-5.370892614677606064e-02,2.776839903753064789e-02
-3.762158544941069521e-02,2.462920012890562269e-02,-5.698086645185631433e-02
1.938096283429187328e-02,-3.070054280264200922e-02,1.846370922780301779e-02
-1.991501916951728211e-03,-1.745892661543325952e-02,-4.822212145925375976e-02
-2.532511851474887957e-02,7.930089399774648690e-03,3.156063387703282597e-02
-2.377167411268271344e-02,-7.183375898611259712e-03,-1.266990599883622247e-02
-1.074654160964074248e-02,3.132052591758789639e-02,3.985006638663730200e-02
5.550266279878802306e-03,1.959279812599416110e-02,-3.235245029872686057e-02
2.140750617636702144e-02,7.497044933604035677e-03,-6.045058977106416986e-02
3.440994319633132459e-02,-1.234436138492705018e-02,1.225913104386288158e-02
-2.046325355692617254e-02,-4.169549307075171019e-02,1.971599600121982584e-02
2.206265057476568606e-02,-9.837859348272443016e-02,1.556021837590760085e-02
1.549542651821367856e-01,-1.529499235379607434e-02,-8.022530244155230694e-02
-1.472980041349540928e-02,5.500755170223636109e-02,4.031404596057003298e-02
-2.736503963727152794e-02,2.299199291879684692e-02,2.695712012638312033e-02
-4.300289258478316723e-02,5.603842997546916449e-02,-3.661741991138240532e-02
-4.929474564892895316e-02,7.550340466389469929e-02,1.433507545802920231e-02
1.209931731553354553e-02,-6.309382619385538182e-02,-2.559566289735442507e-02
2.268430908148287919e-02,1.293225527658677793e-02,-7.156315203220017795e-02
2.554441734671210329e-03,-6.650184081946616810e-02,5.036113306784417015e-02
-3.020883701148555436e-02,4.204110300796409100e-02,-2.043076998682458179e-02
-1.807391101960415317e-02,2.616492723415889121e-02,-3.225540175068501714e-02
5.672635930852934320e-03,-2.878106122002218811e-02,4.437436135910094448e-02
4.270902644602830867e-02,-1.822544388410293412e-02,5.369766266301830016e-02
1.723395912601399446e-02,9.405795895709100421e-03,2.761780295966458423e-02
-2.233977845247265073e-02,-4.393197237848141951e-02,2.652679795223049711e-02
1.085893906091190964e-01,-2.494607663402264447e-02,1.104661429173254585e-02
1.169712765610933340e-02,-3.839169391839954842e-02,-2.781128858903729809e-02
1.193425626972131372e-02,1.987048019164576115e-02,1.424917316844165338e-02
7.259375537050194449e-03,-6.170366054060503298e-04,9.078493103527009167e-02
3.635507048731566326e-02,-2.807125513300849293e-02,2.532122497800222069e-02
3.946829229117956167e-02,4.974711294483238205e-02,-6.923448498027406917e-02
-1.986977695675305744e-02,-1.767212901282511767e-02,1.800270272598596122e-02
3.256749400647199200e-02,-3.943631942077420460e-02,3.643466746471336892e-02
2.318050742017406171e-02,-5.163781338613349786e-02,2.994471995931115640e-02
-5.448272672331293254e-02,-4.141929143327899299e-02,1.647001081215136026e-02
3.484332147725840989e-02,1.788890701464468380e-02,3.159754763047609161e-02
1.453279521466068445e-02,9.578679928585365211e-02,-4.104096125600962576e-03
1.551921613406319865e-02,3.830207138215750880e-03,9.157004870177955572e-03
-8.820798567283856528e-03,-3.556277416469279251e-02,-3.263613974155610189e-03
-3.437007201286208791e-02,9.126015056920259647e-03,-2.849258672116471852e-02
-1.864300765461374132e-02,-4.975118110289551004e-02,9.586542003930559330e-02
-4.060391536417399388e-02,9.000081988579057557e-02,-2.146811556649217204e-02
-2.227596820737726482e-02,4.586910339980064533e-02,-4.366037298635550706e-02
-4.029561893132653505e-02,-6.193141489241221070e-02,-5.534055569687360183e-03
4.381292637717486976e-02,6.941064452192514944e-02,8.920792477612179278e-03
4.515983445098183113e-02,5.667180709576604900e-03,2.510111094492776737e-02
-2.035232211699140176e-02,8.425143244153993419e-03,1.052566624960215302e-01
4.318234302207635961e-02,-2.761452812406928799e-03,2.270942846219792775e-03
-4.277448733546020121e-02,8.878524607514649315e-04,4.959334134786138985e-03
4.459034362014598768e-02,2.598311572430570676e-02,4.564599177320574630e-02
6.469879480856782772e-02,-2.532723838621615819e-02,1.776554690317821289e-02
-5.577005395501257595e-02,8.318752198054081559e-02,2.251917424023532066e-02
5.140869862406065305e-02,-4.189440728358570509e-02,3.210596415614723476e-02
-4.261907030830041493e-02,2.729062850176280572e-02,3.976315511428579058e-02
2.912865293690403146e-02,-3.979563618979239242e-02,-3.338228584953439187e-02
-4.999542933468337225e-02,3.596119388639909542e-02,4.105374766353443033e-02
-2.369218562098299521e-03,-2.823891419240083869e-02,6.541507659342365652e-03
9.421516309567060793e-03,-1.025468117442200622e-02,6.717846788356296450e-02
6.043771051558661372e-02,-9.393018677257374254e-04,-2.525795746474605169e-02
1.254727675831289295e-02,-2.416622730152531359e-02,-5.776414576602968004e-02
-7.836300386864690493e-03,7.541927357466324255e-02,3.420617062391152069e-02
-1.125618452526685846e-02,-2.556985388725620170e-03,-7.524259968164438706e-02
-3.081732555967812287e-02,4.187938994187293679e-03,-1.480163943997324719e-02
3.711868227473355802e-03,-5.561683863598148063e-04,-1.063930540444028502e-02
2.593251466306098138e-02,-1.035800637286537172e-02,-4.326375681752975613e-03
-5.119475177733928684e-02,7.138008678430916853e-02,2.047603749210181144e-03
-5.170547553434449994e-02,-5.496267516062058878e-02,1.077951118816848110e-02
-1.651372107861397154e-02,-1.505800756909227850e-02,2.553390519577361170e-03
1.165938707088291920e-01,-1.031461714613841549e-02,-6.704870546218305583e-02
-2.264373528919272002e-02,1.425057917451605198e-02,-6.817437746704799184e-02
-5.254587664289304960e-02,-2.133248515640785020e-02,3.388670319469234971e-02
-6.862948516321591697e-02,-1.515485730570387615e-02,3.527128116375375082e-03
3.329392480398223747e-02,-6.233895391312346129e-02,3.539995217570360980e-02
-2.336516313945610768e-02,7.339623209151265731e-03,-2.479437698843123261e-02
-1.295071793398308059e-03,2.260063880262783154e-02,1.044850841397097496e-01
-1.600837048144193239e-02,2.458508946860667871e-02,4.244250686389033043e-03
-6.496086310234783223e-02,-1.018347951410981771e-02,-5.524158764581903885e-02
-6.995653639505451313e-03,3.336458172960026641e-02,5.731659207252965543e-02
6.642805286180607227e-02,-6.445024137154102550e-02,-8.645619451443775638e-02
6.762974206139039934e-02,6.056245504101692712e-03,-1.521205193447307431e-02
2.293684556519510424e-03,-2.393896959661720794e-02,-1.600270466634346606e-02
2.086481498764320569e-02,7.557289399666297647e-02,-7.309924738849124873e-03
-2.473960500313686015e-02,3.204651255333340609e-02,-7.585813476177530844e-03
4.923175728134993392e-03,-5.881615849834333914e-02,3.651219981274098081e-02
2.704027596776676159e-02,9.642161370250940805e-03,-3.998214202177359511e-02
4.739844372199007727e-03,3.880635538447872734e-02,1.280407380679105325e-02
-2.994746885705229511e-02,2.530097750097489578e-02,2.382758019919321846e-02
-3.276137244191301007e-02,3.395986504494580976e-02,5.588877500092936240e-02
2.246810876807317850e-02,2.164386292032474506e-03,1.458625454674310901e-02
-3.211509534376012776e-02,-6.467580471141283482e-02,-1.447485040188999268e-02
4.790719859985015372e-02,-3.316751625788268154e-02,4.877331426582431212e-02
-9.215565646921435039e-03,-3.482921072592225220e-02,2.370289946361538863e-02
7.222341668982211818e-03,-3.027935107864776487e-02,3.364194560092551804e-03
1.591408079219781835e-02,1.183567877141494459e-02,-2.358258668338189534e-02
4.046206939143978665e-02,-8.435378728371110968e-02,-1.707905133358782537e-02
1.238611458749439183e-02,-5.358247865905284117e-03,3.204938918834452505e-02
-1.590155296702711052e-02,-2.004389799560153326e-02,2.892698040717053398e-03
-5.385223993566013584e-02,1.162406597351495485e-01,-5.870700640053797686e-02
-4.245294961286776893e-03,-6.751283152638661023e-02,-1.023049557919329319e-02
-5.486965663613311422e-02,1.839662463838474121e-02,3.541881437421519774e-03
-4.915475066652340297e-02,-4.008742494403067132e-03,-1.479501753018261281e-03
-4.439781110346365661e-02,-4.062546465350171804e-02,-5.995818295595902597e-02
-2.296407555900167180e-02,-6.274116193085764546e-04,-9.180465046030124657e-03
6.043141658283588541e-02,-2.364505783655553028e-02,-3.278300708682707620e-02
4.439522727314027667e-02,3.256908280464720223e-02,-8.613442823902056622e-02
6.855014503804134247e-03,1.991716647477997579e-02,-4.859693280072255317e-03
-4.929379415848712115e-02,-4.111218992348378981e-02,-3.232385647086663538e-02
2.174564561942891536e-02,5.117485565637095932e-03,4.898580512181848617e-03
-7.049080003750488044e-02,3.671871190498402632e-02,-1.666399852972380927e-02
1.079337046850841336e-01,5.148381022810823160e-02,-7.243680306463176621e-02
4.635499834039510936e-02,8.600140085533810111e-03,3.906065884546740946e-02
5.922315276948700996e-03,4.524942618721672360e-02,1.458142076142200476e-02
-1.112728574172183564e-02,2.061115945664376142e-02,-1.909028539338143357e-02
3.279025139902052438e-02,7.598861997164983728e-02,-2.485486819098518818e-02
3.916134347911200825e-02,-3.081474816457483237e-02,6.521650424432740012e-02
-1.367645102470800306e-03,4.785726701195636146e-02,4.996587894403871355e-02
-1.361488767397362777e-03,2.942592530587427591e-02,-6.899704970113794411e-02
1.991166189090689403e-02,1.451181197940899607e-02,7.175012330069645804e-03
1.565404794641413189e-02,-3.553897124438246125e-02,3.937191210626782983e-02
4.132127465261414660e-03,1.816213944458927587e-02,4.665259009940822543e-02
7.295323532209755475e-04,-6.773448310542637234e-03,-2.267309084705953701e-02
2.262991298531196599e-02,2.487900855811669629e-02,-7.679953737599619357e-02
-4.668331692091108598e-02,2.874498709361029188e-03,3.640783349179935180e-02
1.562409550998447409e-02,-1.209399878021330359e-02,3.709142111359464700e-02
-5.454198239805763820e-02,1.368797632706524915e-02,-2.994397450152118390e-02
2.933088411568165327e-02,3.223062689403136810e-02,-1.968692754626989033e-02
4.328667282778470016e-02,9.294659555838786710e-03,6.800559895337512928e-02
-8.739820561899470236e-03,5.296022314557414894e-03,-5.633433117824891700e-02
7.895079642744030901e-03,2.011581798053338130e-02,-1.351093959261596283e-02
2.035620995350802612e-02,-7.164882446939248306e-02,7.631322929289077392e-03
1.122035359387439819e-02,-2.123591414099051250e-03,-3.287844700457177860e-02
1.167699876416490416e-02,-6.794650030311244482e-02,4.665185295473658900e-02
2.321767063538455675e-02,2.617811606870609764e-02,5.124361416924821944e-02
-3.416437838141699306e-03,-7.434899895219164445e-02,3.426058361844062233e-02
1.720704792658886775e-02,1.602230140372246656e-03,-3.092594250101290618e-02
1.960499426034677251e-02,7.872983599416558120e-02,3.962945755200158321e-02
-1.108015213395282805e-01,2.230266617437288643e-02,-4.765387568805253687e-02
-5.496211952148582353e-02,5.085345970732308568e-02,3.702660078000234722e-02
-7.217196853499955114e-04,-4.833336433461911386e-02,3.342389616670056896e-03
-4.138752657088424353e-02,-2.068963447419901527e-02,-1.150423074218550473e-02
-8.583289101281628072e-03,7.575520683099670749e-02,4.577090281570893315e-02
-3.196062700544346352e-02,-6.170749578047514394e-02,-2.701379077956753832e-02
-4.786789776940859886e-02,-3.510509391781437699e-02,1.452387178433817497e-02
1.259671363136896927e-01,7.324103457492078806e-02,-3.021501117445517595e-02
-1.379761109690724394e-02,2.070850494719674896e-03,5.519883193241214431e-02
-1.402515796041570346e-02,-1.204667953763740862e-01,-1.780300178558098800e-02
-1.092332168473977572e-01,7.705131653180577467e-02,-1.738533744798985772e-02
2.877231305131639286e-02,6.875604940616436567e-02,-3.615510787125467140e-02
-3.960173699558819371e-02,4.459508713751070969e-02,-2.089506761960670950e-02
1.649456148993070845e-02,3.416513109826413430e-02,6.744548477146335153e-02
-1.784512945267648781e-02,-1.329572021626234356e-02,5.731183724124076090e-02
-2.583288003972949130e-03,1.618547239987217987e-02,6.367432365112203618e-02
2.292736678621273838e-02,-3.215028217691009299e-02,-3.012598269600942624e-02
7.923753240482864224e-02,6.997710733968295904e-02,-3.268431071407569555e-02
1.006206076653453317e-02,-2.277413761762427796e-02,-2.322507362574490527e-03
1.057774012054091620e-02,2.574350920307024934e-02,4.216157663562327546e-02
-7.802085177068777445e-03,8.565347682234972573e-03,-5.821975507346951323e-02
-5.096580564170669764e-02,-4.185031658835874913e-02,5.265153889816600458e-03
2.985455906697265932e-02,5.120965536831299098e-02,3.726644125521820505e-02
-8.969969583235383112e-03,8.252848192938071897e-03,1.941690968780443796e-02
-1.079628459519866093e-02,3.933488324157870947e-02,-1.977809672583789955e-03
1.831305090323677876e-03,-3.655483792307403362e-02,9.824059129927275105e-03
1.897984432875484892e-02,6.921942301428191113e-02,4.182310679225557937e-02
-3.102844721677315912e-02,-8.516778576512397739e-03,-7.488907217507118075e-02
8.547501982440036325e-03,-3.180741468390227422e-02,-3.395787726676590366e-03
1.210824049944979157e-02,-4.007497714161115804e-02,4.825579320050807884e-03
6.312673083468341162e-02,7.149876085282389979e-03,-6.282508464037997453e-02
1.680881698964601864e-02,3.080412879150177044e-02,-4.766890431645604866e-03
3.112782274885419684e-02,4.102591956954253216e-02,3.434399115281985132e-02
-9.333108192797275049e-02,-2.584229616074299948e-02,3.814591193090794558e-02
5.228929708674158461e-02,3.121341588307370227e-02,1.788819875141181917e-02
-1.592759909542007697e-03,1.388838145555931075e-02,2.279231586021556247e-02
-1.707633772702780084e-03,-7.666924802447420972e-02,3.048126156323578348e-02
1.462939493093146190e-04,8.317830089387127923e-02,-1.841899155523612011e-02
2.801307796692441895e-03,1.453533663799713022e-02,-5.691517796902814674e-02
8.287785746110333876e-03,3.171129152191638767e-02,-2.713264090884883600e-02
4.172707288250356722e-02,-4.037437826928415990e-02,-2.759039482434393759e-02
1.826008422246910672e-03,3.093899811246235421e-02,-4.173979279723041835e-02
6.723961455158605771e-02,-4.458469384129352953e-02,-8.797023052275357302e-02
-5.389926137153178143e-02,1.390931671770484143e-02,-2.982314124417692613e-02
8.636090812608983314e-02,2.379795080372019284e-02,3.697444468868811215e-03
4.347340386165993859e-02,-3.490034681886395457e-02,4.267813947941306169e-02
-2.367182860140687808e-02,-1.438983239040940269e-02,-5.015858257394926328e-02
-4.922161891101266978e-02,-4.351961529309127108e-02,-8.585895440649238958e-03
4.708085641348234984e-02,-4.399975467672466271e-03,5.584979365347678831e-02
5.969684444007397617e-02,-3.760074996844250256e-02,4.066178159924319774e-02
1.116534080065811722e-02,-4.624960512336153545e-03,-7.068503755610011478e-03
2.978443748549184505e-02,1.638870077600100908e-02,2.188548332398925628e-02
4.731289498215168407e-03,-5.371169545410350854e-02,9.689427755259442249e-03
-4.546538333072623617e-02,-5.260122479041493687e-02,-5.385935514796805212e-02
-2.573687951724309628e-02,-3.443527467850610035e-02,7.538941345045249709e-02
-2.968507413895291394e-02,2.376884356592489159e-03,-8.373825039841938447e-03
-3.416043275099003157e-03,1.717614469439312369e-02,-3.948184936387414551e-02
2.700290374771396537e-02,-7.093289203787351595e-03,5.378919396720557855e-02
-2.125409607075151586e-02,2.244611422769678816e-02,6.284227327293266663e-02
5.488306494190887952e-02,-1.874658229365892478e-02,7.591652275092260205e-02
3.367702312765943201e-02,2.384319012985694833e-02,1.018659996663713423e-02
-6.645494940600229702e-03,3.910597886250233995e-02,2.608834056965484913e-02
-1.684371605334672103e-02,8.298418295677973539e-03,8.154702375481505394e-02
2.959005227006030608e-02,-2.983115497259519744e-02,3.261025262954389548e-02
-1.477082725226318803e-02,-2.823634648250176668e-02,3.094090921387430276e-02
4.801583160139702607e-03,1.606682103688498661e-02,-1.825529819456594982e-02
5.805861989760684704e-03,6.078042796235932736e-03,4.774707822874400126e-02
-1.942260266088653708e-02,-6.835727330597713911e-03,-1.753602879241848971e-03
8.627010800995376857e-03,3.305651740413549644e-02,4.288626786309325534e-02
4.740390902239616060e-03,1.125203208126155374e-01,1.610662457677270593e-02
-1.489072163893073730e-02,2.281689682060141638e-02,-9.977966733382462837e-04
2.094541374120405773e-03,-3.571610230330117541e-02,-4.503279663996256899e-02
-3.567170007114254388e-02,-4.008203064733351778e-02,9.357820479001986713e-02
-6.643619668846642567e-02,2.671131458510721604e-02,-3.640749543686006007e-02
6.957779837603619844e-02,-5.003670433631363795e-02,-2.433062364149745499e-02
-3.225028394746405624e-02,3.702553975489399074e-02,-5.276762768138570925e-03
3.906740324540525222e-03,-4.733145092630072770e-02,9.598624153927136707e-03
2.902393818876342763e-02,-3.147496093916559053e-03,-8.920944199255625984e-03
3.889994148325075923e-02,6.875928558676899782e-03,2.743319132162202328e-02
-6.766594546499625495e-02,2.453857690587257778e-02,4.617566773270001534e-02
-5.671371094307519484e-02,-1.045560961979144499e-02,-4.072411830820024670e-02
-1.414453283840447738e-02,6.208406774447626335e-03,-5.960192102577667288e-03
3.174397212712167654e-02,4.437667211634249709e-02,-1.939296635231483809e-02
-2.093700934980443837e-02,-2.711529772142586003e-02,3.354871434597487059e-03
-1.162068056069422428e-01,2.652625209894207627e-04,-5.119673429535401971e-02
-5.233553768081410790e-02,-6.182258901659281464e-02,6.276504662015458536e-03
3.402213890205752628e-02,1.598112769683224590e-02,1.859246496701923504e-02
-1.632517496671487961e-02,-6.718083278730240838e-03,2.102678493441981211e-02
-3.386839632261289673e-02,8.949888487556539873e-03,-2.270424194002718804e-02
3.224413895599729553e-03,1.240847345174851679e-02,2.015609516625950157e-02
-1.255525329839535763e-02,4.850744930837665864e-02,3.128083705669607723e-02
5.300670709473990355e-02,1.598805629874373857e-02,5.536675459234337206e-04
1.426603763874363662e-02,-9.312639695610291099e-04,6.450116961159414741e-03
-2.856045952168649593e-02,-4.050578642221223935e-02,-8.587740961204512469e-02
-1.589078744494500095e-02,1.741267267154577442e-02,4.064291799319347080e-03
-2.508934436940832985e-02,-2.985508461026439506e-02,2.418150740052361219e-02
-3.960753003383296611e-02,1.382376676005777228e-03,-1.048667691636730355e-02
-4.901303475014680278e-02,-7.539591916167143019e-03,-5.805649058432976045e-02
1.248135056762626066e-02,-1.028400417880312445e-02,3.645707403472352170e-02
8.546180192219224314e-02,-1.362768121578432183e-02,2.165023327315146462e-02
8.080429703455087320e-02,1.200196580637366214e-02,-2.011234989110003563e-02
-7.756704280836787535e-03,-3.795559923750572127e-03,-1.517246951497495597e-02
1.185750996658111421e-02,4.309036461305812415e-02,2.444467615845918179e-02
-9.177531518417364476e-02,3.070417572639494441e-02,-3.560991572340516109e-02
-5.804119552314108976e-02,4.217065002403343893e-02,-8.955338017855132837e-02
1.319711917986312114e-02,8.393706599042037239e-03,3.119579548625103435e-02
5.099822877765724377e-02,-7.483970575305607569e-04,1.303405002682389222e-02
-1.612135468315185199e-02,2.010669648967384690e-02,-3.250426443421611244e-02
3.738338316516890553e-02,1.564752039581127074e-02,2.736828362237424261e-02
