accel_x (m/s^2),accel_y (m/s^2),accel_z (m/s^2)
9.979121155833172718e-01,1.424954802660879363e-03,-9.798712119847335700e+00
1.894144208852105216e+00,-4.172661601151997574e-04,-9.796701516634062301e+00
2.709271841770773737e+00,-3.565048267142990803e-03,-9.795387279862135088e+00
3.422025158534471423e+00,8.117421451369601082e-03,-9.798925136488989551e+00
4.095511763971070529e+00,4.273334209270699020e-03,-9.809126131357288614e+00
4.686478455515262098e+00,1.061996120009636073e-03,-9.787336958993424929e+00
5.207626285824104251e+00,-8.847641076631859985e-04,-9.796848018529498603e+00
5.700240377308873008e+00,-3.093034904413903725e-03,-9.793303214476555496e+00
6.121598385895452132e+00,8.843532502210652707e-04,-9.791372671527174276e+00
6.514958249376476829e+00,-1.315030311740459203e-03,-9.792281483906203121e+00
6.861092954951828915e+00,4.866246039493687253e-03,-9.809338775743587036e+00
7.172551215867569496e+00,-6.167868443276471914e-03,-9.808313279605052060e+00
7.456274014129821381e+00,-2.757023811633359852e-03,-9.807987587311995270e+00
7.712567662068470220e+00,-3.681792706955501764e-04,-9.800718271218693545e+00
7.945152650292163443e+00,8.106905379484050924e-04,-9.790772998597569554e+00
8.148352974188933118e+00,6.504332106749034781e-03,-9.788025211641736334e+00
8.327344313663470388e+00,1.283864755801913948e-02,-9.792205569728595904e+00
8.493803614486200360e+00,3.447150580748904215e-03,-9.810491508083762469e+00
8.642978687802495230e+00,8.051930174716431104e-03,-9.782689008089072047e+00
8.772179189477185446e+00,-5.024344745359907508e-04,-9.806967223974590198e+00
8.909963609400326945e+00,-3.518162611877497480e-03,-9.790677238165455876e+00
9.016625823931187611e+00,2.757265568220705360e-03,-9.806639907037464354e+00
9.114332202698848917e+00,-9.621821278999485643e-04,-9.800082880960804488e+00
9.192334316895177437e+00,2.748079751709178037e-03,-9.793249977896669733e+00
9.285881139185972799e+00,-2.487604663539597864e-03,-9.805597581314529521e+00
9.361763500913914626e+00,9.871204395053847017e-03,-9.797643021248346074e+00
9.424442377157108197e+00,1.849679480940777995e-03,-9.781674810324741287e+00
9.482622353595296261e+00,-3.573232286105810888e-03,-9.795990700250886363e+00
9.532352558943989251e+00,2.235035668156242807e-03,-9.802248960666277711e+00
9.578327360280374236e+00,2.658496961267142484e-03,-9.787193033557279875e+00
9.610119249267356167e+00,7.339334150634544210e-03,-9.787426653076567007e+00
9.653573539985332630e+00,3.588839783345866823e-03,-9.792636709978882692e+00
9.687661928006580325e+00,-2.652980204285591143e-03,-9.809991958389106870e+00
9.720600921904770431e+00,5.675560114617760228e-03,-9.803963054843782388e+00
9.755304251438698060e+00,-1.691089683514715751e-03,-9.786912782370240649e+00
9.776621734140219289e+00,1.980765061607826262e-03,-9.781345127723492183e+00
9.800069611776965672e+00,4.841501520284664968e-03,-9.794199081124967066e+00
9.817766404765183808e+00,3.281208019286782976e-03,-9.792383013072214482e+00
9.829177720650637440e+00,1.714941187544600284e-03,-9.786918295701816817e+00
9.854407751983593755e+00,1.415814177657037567e-04,-9.795816330589632415e+00
9.864372785758741102e+00,-8.209608239908558480e-03,-9.797045050481052897e+00
9.887168202527188754e+00,1.092452669693528763e-03,-9.786995218028652133e+00
9.892818763960567807e+00,8.035402616743755541e-03,-9.797947283326056578e+00
9.902999851359803429e+00,9.157897394910562497e-04,-9.787663855563073056e+00
9.904799129685214254e+00,-4.367808115128251484e-03,-9.795993887379349729e+00
9.924720940402153246e+00,-2.968014844329531794e-03,-9.781030172958178781e+00
9.919010765697844789e+00,3.155893563344673754e-04,-9.790698755198153691e+00
9.931099971279001792e+00,-1.579472269099514107e-03,-9.793476887179428658e+00
9.942155295239963664e+00,5.787459803996281883e-03,-9.790512746743326389e+00
9.953169726631786673e+00,-1.390346847420449771e-03,-9.790443047483217143e+00
9.949687919029004846e+00,9.651491340168278851e-03,-9.794288324135367318e+00
9.967150035790023566e+00,3.620689304359092902e-03,-9.798907073882956453e+00
9.971512481764062130e+00,5.362769904353065394e-03,-9.804660326943084314e+00
9.959713540785664065e+00,6.793074703196051809e-04,-9.787290817059826509e+00
9.972825719250927534e+00,4.326488169842316288e-03,-9.806916094883074919e+00
9.975835690334493577e+00,8.850120557225119727e-03,-9.788772677709559389e+00
9.967813879935219390e+00,-3.297617952226657850e-03,-9.790183837373714226e+00
9.969092490792565542e+00,5.792638501524172145e-03,-9.799483620239008985e+00
9.984979583153906546e+00,-9.442718070058152974e-03,-9.796207020647260677e+00
9.981949813639152680e+00,7.053851247887803037e-03,-9.785075982626693758e+00
9.984940067783115936e+00,2.763444804840908646e-04,-9.797219058644420997e+00
9.995202770023354333e+00,-8.205875825256926659e-03,-9.795658049803984468e+00
9.981941960236065725e+00,4.521256420986526428e-03,-9.791738657586241956e+00
9.987129084512492483e+00,-9.551980402619800192e-03,-9.808292208941491452e+00
9.998394346955521428e+00,2.738500416323835264e-03,-9.803004512637290446e+00
9.987132287482475945e+00,2.660135611629436438e-03,-9.805120685426247817e+00
9.993784349308208803e+00,-4.571479235936307529e-04,-9.787230814648081534e+00
9.994096620919949103e+00,7.649709001530502483e-03,-9.792862636980290247e+00
9.995042434375580598e+00,4.767570457587570754e-03,-9.803276446070494643e+00
9.995833450887174010e+00,5.723397652958621927e-03,-9.808347203382455248e+00
9.988543629209162944e+00,4.247677780480724370e-03,-9.801615030801931638e+00
9.995826148517791054e+00,3.218888873088767994e-03,-9.777856537475251741e+00
9.996796448493649123e+00,-1.052545368257320254e-03,-9.791610269612162298e+00
9.984935286602212301e+00,-4.548126545792255892e-04,-9.805541863758000076e+00
9.995198137329467158e+00,1.046393792010662845e-03,-9.781303057502336529e+00
9.999855633962940971e+00,1.181930967237091075e-02,-9.798259922754105844e+00
9.999651590714417893e+00,-4.718528718485094815e-03,-9.791484297029088069e+00
9.995637388400455237e+00,3.460220763198555748e-04,-9.798055053855017960e+00
9.998003264402250068e+00,-4.526831606420661340e-03,-9.789142513650283206e+00
9.988844958533441343e+00,-1.706761312701921213e-03,-9.775726258684182213e+00
9.994444755795797164e+00,-1.159037129700250281e-02,-9.779681155440062668e+00
9.998258637525710313e+00,5.735552155085541295e-03,-9.791209676362234049e+00
9.996704909664455130e+00,8.840256091756239871e-04,-9.789294448904390933e+00
1.001414546761598068e+01,-1.863126275379457190e-03,-9.805649953937120245e+00
1.000229761348491486e+01,-6.200119693478306493e-03,-9.792885757224327747e+00
9.999865522994060285e+00,-6.745251726621768681e-03,-9.791703934684999666e+00
1.000264619318392967e+01,-1.219488437850200883e-02,-9.782730955382080040e+00
9.995042637182921297e+00,-5.379765521841098656e-04,-9.798415462197263892e+00
9.988951447983934528e+00,-7.983607984054796186e-03,-9.795502409005440114e+00
9.992871019360281437e+00,2.975438423232432995e-03,-9.799936481879360173e+00
9.996164923816094117e+00,1.205379622407099990e-02,-9.790099960152266689e+00
9.996452351688798643e+00,-2.054273226000161851e-03,-9.804572909732451436e+00
9.997069559953132512e+00,-8.270474984524080198e-03,-9.783946038127977474e+00
1.000210954786341588e+01,2.037096215133030273e-03,-9.790759363626049705e+00
9.996597634972351543e+00,8.944270694897538425e-04,-9.791443419014411731e+00
9.994693648803801622e+00,3.575785602434210318e-03,-9.796663730798947256e+00
1.000036930176888283e+01,3.178578182792619628e-03,-9.790148890369426482e+00
9.995849200641458765e+00,-2.980147421068292477e-03,-9.790891329378769825e+00
9.998367541391960600e+00,2.363170152574027572e-04,-9.796006942890302938e+00
9.999764161643534877e+00,8.804881276120429118e-03,-9.814372425048320636e+00
9.998626774633217806e+00,-2.779926462045327184e-03,-9.801230342570210752e+00
9.997277535997930897e+00,4.456532313829360964e-03,-9.785272061369628460e+00
1.000028480560152389e+01,-3.682282848265697964e-03,-9.787127940899249978e+00
9.991061794280344799e+00,-4.785002688877352411e-04,-9.784252219182322463e+00
1.000413629834959117e+01,7.144434650284012256e-03,-9.786565427219406033e+00
9.996107005126486200e+00,-5.308817192219358883e-03,-9.788823668341509077e+00
1.000582895376145309e+01,2.396045000649294713e-03,-9.800897532465228323e+00
9.989587191597911087e+00,1.718588861944135267e-04,-9.813516595452130176e+00
1.000053297212847347e+01,-1.337168736033236436e-03,-9.800550260185616480e+00
1.000348595870586443e+01,-2.712825717901280395e-03,-9.792129020346225232e+00
9.997817186475765894e+00,-3.632612511166072485e-03,-9.791498288907202863e+00
1.000234011738679207e+01,5.948170035566259159e-03,-9.807902573013315362e+00
1.000070455667783520e+01,-3.865108766073279160e-04,-9.786417787959951653e+00
1.000269524141250521e+01,-2.833338116898320800e-03,-9.787271420530782251e+00
9.997024070898410386e+00,1.101622027653577189e-02,-9.803961605586632544e+00
1.000407861181767011e+01,5.240978529600005646e-03,-9.785591652437377164e+00
1.000080077317206850e+01,-8.553366534545227273e-03,-9.776528906973160460e+00
1.000234406038559065e+01,4.510146797292273468e-03,-9.791435985534590714e+00
1.000338961223875067e+01,8.898849406793743130e-03,-9.799404175666108330e+00
1.000380104754149002e+01,-3.684443158147147641e-03,-9.787020820175895253e+00
1.000448069917621829e+01,-7.862787203834322239e-03,-9.800040652203419356e+00
1.000464256363430593e+01,5.148199615142520259e-03,-9.794790069542694155e+00
1.000194392457876269e+01,1.433422075002413953e-03,-9.805427326206364924e+00
9.994289655252110549e+00,-1.343015844280153782e-02,-9.799878854427664265e+00
1.000598476717587637e+01,7.851518406816896181e-03,-9.791494316475995774e+00
1.000143428784119415e+01,4.288122456372842355e-05,-9.794904254227247975e+00
1.000116886945227357e+01,-1.255609445362780270e-03,-9.808098441682414403e+00
1.000556396901148837e+01,-8.722228018216314147e-03,-9.785466043785302048e+00
1.000303991953838789e+01,2.693470898719724400e-03,-9.800756989518083273e+00
1.000101639059483105e+01,-3.778039329853462216e-03,-9.799317539767709917e+00
1.000337160024208316e+01,2.547623019974664879e-03,-9.797221417410275635e+00
9.992962641656921718e+00,2.097517569627902270e-03,-9.795985909372673106e+00
9.999138858343039615e+00,2.634428921921795706e-03,-9.793767596610207349e+00
9.997460596943506417e+00,-7.316922844442246172e-04,-9.806362794466586763e+00
1.000322779752215752e+01,2.339355066490955964e-03,-9.795909493845554650e+00
9.998356582317088126e+00,-8.234295578656554079e-03,-9.799173372716559527e+00
1.000379397080088140e+01,7.238848359143604597e-04,-9.788348995556253485e+00
9.998829400987082394e+00,5.934908149341341400e-03,-9.800149132826584619e+00
1.000733639120464424e+01,2.622594308711699660e-03,-9.782846099123558403e+00
9.996291768064907046e+00,6.338206375336130106e-03,-9.788509751285817018e+00
9.987852146659843555e+00,-1.900023867882654881e-03,-9.803884572277977938e+00
1.000103983583901446e+01,5.785055084904226763e-03,-9.799753908204444031e+00
1.000082828655800071e+01,5.251608723528942112e-03,-9.802233298361354485e+00
1.000476182455411234e+01,5.554351887178955206e-03,-9.806173844598138345e+00
1.000079618988439201e+01,-5.285983832491307835e-03,-9.800316818206839642e+00
9.998625654069133617e+00,6.975775149092346139e-03,-9.791710639156026019e+00
9.995042605351747156e+00,2.094212542528495029e-03,-9.795451822211228787e+00
9.995682535174591266e+00,-7.279947979519502989e-03,-9.806186480041294118e+00
1.000187588718257636e+01,1.307210938283854401e-02,-9.798243411338592779e+00
9.999603274338699777e+00,9.485819242892625354e-06,-9.798263752939169180e+00
1.000153390126709141e+01,6.415843697772441456e-03,-9.791647315309976563e+00
9.999600718971908719e+00,-2.383736558457920547e-03,-9.792832711205182505e+00
9.999980389843889483e+00,2.357095080876390678e-03,-9.796988112509977142e+00
9.992529050183881267e+00,-7.283701802497656065e-03,-9.795922535745704707e+00
1.000153200058977454e+01,-2.055357777324939069e-03,-9.805602096566532921e+00
1.000491945729493182e+01,-2.812069256573485922e-03,-9.788750781534245604e+00
1.000132413733826020e+01,2.139622581280572599e-03,-9.798006943573618344e+00
9.995829081588913922e+00,6.455959329495846669e-04,-9.800171191196795917e+00
9.997498114104949707e+00,2.721824183583553165e-03,-9.801322750015582841e+00
1.000198690158939563e+01,7.387495638035870664e-03,-9.791425504477434316e+00
1.000493512020284470e+01,1.496116675251309537e-03,-9.798662829484907633e+00
9.998177526510360735e+00,5.750658700635136351e-03,-9.773578473434726632e+00
1.000467289212470057e+01,4.078061986671190943e-03,-9.790907556769937514e+00
1.000392615802864960e+01,-2.177032748955728785e-03,-9.793002992325970268e+00
1.000566270105513489e+01,6.363186257227717267e-03,-9.795670327426368118e+00
9.994843353003414421e+00,-5.022111643723213732e-03,-9.796016847875074873e+00
1.001143176651979516e+01,4.657967575980237300e-03,-9.790705647882994356e+00
1.000263977812652350e+01,4.643528615924253505e-03,-9.786364488726320587e+00
1.000618228818247424e+01,-7.106451280001535586e-03,-9.802249802143364832e+00
1.000585588926386471e+01,-3.527164164940864519e-03,-9.788557888131245832e+00
9.990296699095724264e+00,4.126380853687325496e-03,-9.788279962972504578e+00
9.997385155011595970e+00,4.740198543329209794e-04,-9.782045549918573002e+00
9.999020503989553887e+00,9.586182100111973999e-04,-9.783511902742304756e+00
1.000010987665085693e+01,-8.254466495657045806e-04,-9.784874281124595896e+00
9.999098091897465679e+00,-6.354929924933882569e-03,-9.791963182351743455e+00
9.989989403383813027e+00,1.102538204426813497e-03,-9.804418724970993537e+00
1.000277551738248150e+01,1.437766577163700123e-03,-9.793609759636002110e+00
9.994369044770504473e+00,9.730163623588901226e-04,-9.791487708574608817e+00
1.000121656681623428e+01,4.841264748744605884e-03,-9.788353057531287149e+00
9.997288239644390728e+00,-8.722344901222620767e-03,-9.797485542965565841e+00
1.000721153789074336e+01,2.051198381621875493e-04,-9.797188099115205162e+00
1.000342618283113261e+01,-4.499791742222927597e-03,-9.786159009374495454e+00
9.991941783288126544e+00,6.091295968919599978e-03,-9.793390842443431055e+00
1.000270961899931521e+01,-1.371301938596766615e-03,-9.798073664898007351e+00
1.000084277521046694e+01,-5.761932676365524343e-03,-9.780488284292282231e+00
1.000075333715100179e+01,1.433691350654488217e-02,-9.805883871109861261e+00
9.999996991654256817e+00,-2.496910674562037059e-03,-9.790516110381165760e+00
1.000863110610388418e+01,-6.643192086444542734e-04,-9.794081109538115726e+00
1.000850507654162769e+01,-3.659677105768486920e-03,-9.791225910282243206e+00
9.997213155477313151e+00,-2.423558003396918733e-03,-9.789895945649425002e+00
9.999053120169200781e+00,2.923933608377698133e-03,-9.788815653947521511e+00
1.000265381869887626e+01,9.024687140268797432e-04,-9.782685935590642146e+00
9.997626474796218687e+00,-9.752085504931732457e-03,-9.786754183439512644e+00
9.998283260072025058e+00,9.135993072599391364e-04,-9.786493187180310471e+00
1.000107870084377737e+01,1.645085424025525753e-03,-9.803435833858834769e+00
9.993391669447845516e+00,4.890813384337515737e-03,-9.798950842967926178e+00
9.998772968812053463e+00,9.398062575530331071e-04,-9.796771659791208009e+00
1.000366505983266485e+01,-6.418985760639845696e-03,-9.811841433808893953e+00
1.000503838104405574e+01,3.748704394413777084e-03,-9.789285511813828222e+00
9.994287380307669721e+00,9.122715601564975558e-04,-9.798352817945698234e+00
1.000595657636392133e+01,-3.254030056550974719e-04,-9.792612823484398987e+00
9.996546734445818316e+00,-1.334270263363425933e-03,-9.796791957624463976e+00
9.997575684465452639e+00,4.192213675244330258e-03,-9.781537092635652186e+00
9.999365796394739547e+00,1.461256967895039043e-03,-9.791240322621643344e+00
1.000599026552159643e+01,-2.783972084927132091e-06,-9.818240994360120766e+00
1.001103673424536566e+01,3.377920599604507072e-03,-9.795842005536121277e+00
1.000076337072376553e+01,7.987670494994374582e-04,-9.802758253417433565e+00
9.993568553538862531e+00,2.439672659802990824e-03,-9.799267518679140920e+00
9.995016809185813145e+00,-5.285698178991369818e-04,-9.794985352875148266e+00
9.992962878034841623e+00,-1.778192056850330487e-03,-9.798080426856344616e+00
1.000333004433028172e+01,5.149312753529145838e-03,-9.797181613840669101e+00
1.000255993904979412e+01,1.822271237786585001e-03,-9.784099021237425475e+00
1.000888645263786536e+01,-9.958579644615779547e-03,-9.792845856432000673e+00
9.998913573732405524e+00,-3.550287458346541337e-03,-9.797192855826780900e+00
9.996989331936546819e+00,-1.819738772680871324e-03,-9.794299981402367905e+00
9.999577244658864217e+00,-5.638355632135955836e-03,-9.784398364256869485e+00
9.999889768098654486e+00,3.215761552543961572e-04,-9.803216125398561687e+00
9.991479890446328227e+00,1.597519809083440209e-04,-9.792389956686688990e+00
9.995956987369272184e+00,-1.352112222328094235e-03,-9.796363993476738585e+00
1.000461431942615853e+01,1.229152645383115201e-02,-9.794084889421077023e+00
9.999527061844089459e+00,-4.419921552100719575e-03,-9.797852959845419818e+00
1.000183354228716226e+01,-5.517103478412103100e-03,-9.782212573357202956e+00
1.000106043577178028e+01,-1.983083114934530277e-03,-9.787404552816157732e+00
9.993794254752904394e+00,2.657875073096646222e-04,-9.796332722464358156e+00
1.000013394187242000e+01,-2.124971236213719233e-04,-9.793584398349501896e+00
1.000671979386718746e+01,4.331364065898171342e-03,-9.797193185854359498e+00
1.000255451963391451e+01,1.590273858500990849e-04,-9.806735554464333759e+00
1.000575563112848876e+01,2.181370905339324526e-03,-9.788131582358305494e+00
1.000572896163589576e+01,3.060629807400027085e-03,-9.786996617477857541e+00
9.991829572961988148e+00,-2.749045637683400749e-03,-9.804906216822464771e+00
1.000548730021030686e+01,-7.312622568497411757e-05,-9.787419687022516968e+00
9.997280027979121186e+00,-5.314992131565656960e-03,-9.794809531610468412e+00
1.000129519271621348e+01,3.208566503120326586e-03,-9.796319431292054958e+00
9.992076079202945493e+00,1.287156120675416945e-03,-9.803579118803952497e+00
1.000370665172024864e+01,9.461915957582570091e-03,-9.803091131280616821e+00
9.996006856728969936e+00,-5.604618747286046858e-03,-9.806904559530980947e+00
9.998420468558885332e+00,1.028891297609722810e-02,-9.813843113302045396e+00
9.995432585054464525e+00,-2.093712228819999584e-03,-9.787703721318910866e+00
1.000687857416595428e+01,3.787860796338378584e-03,-9.802171600926408601e+00
9.994290767280064713e+00,1.300335349211930109e-03,-9.787856030007386465e+00
9.998383411914026908e+00,-1.816130303620926579e-03,-9.799101420763099313e+00
1.000097809095341006e+01,-5.061996406205115581e-03,-9.800990433373561572e+00
9.998567322769174481e+00,-5.646087366960701563e-03,-9.802221484102865645e+00
9.993158886826002174e+00,-8.689613157026210722e-04,-9.793103000318865270e+00
9.999340605416296768e+00,1.865004968192598110e-03,-9.798187632764483013e+00
1.000181737045295982e+01,5.280094434114300864e-03,-9.798381706951085235e+00
9.994921852982503907e+00,1.024594832933442686e-03,-9.791253057837414175e+00
9.999085262794194406e+00,-7.400495906122126974e-03,-9.785321715794419006e+00
1.000205718837938917e+01,-4.050576399009624996e-03,-9.791174297756226608e+00
1.001164022224732619e+01,4.632386321714448973e-03,-9.783007121048020949e+00
9.993071222339516169e+00,5.748259515435026829e-04,-9.794449917861504318e+00
1.000143364756701381e+01,3.561186252847250121e-03,-9.794587230961923296e+00
1.000014354061296551e+01,6.584573241363782074e-04,-9.801604729522633619e+00
9.993913876230029913e+00,-8.430267644700395469e-03,-9.800884184401470023e+00
9.999405162170139860e+00,-3.132247667183847128e-03,-9.790658270629277737e+00
9.987728756933789143e+00,-3.314719647801913065e-03,-9.791942697039020871e+00
9.996357869626551818e+00,3.069389475146168129e-03,-9.803274330573227502e+00
1.000565044981461682e+01,-4.027577210856301236e-03,-9.788822362663410104e+00
9.997940015326509666e+00,2.450714711421692494e-03,-9.798446454949598206e+00
9.999434984214701672e+00,7.320608497444599551e-03,-9.786151735616130054e+00
1.000088488021175870e+01,5.221692702407514097e-03,-9.787390584723716813e+00
1.000409603455131702e+01,-6.793908722051813717e-03,-9.790681402476302253e+00
9.997343886225694476e+00,5.682908676610012345e-03,-9.795274538761457706e+00
9.994381149619364635e+00,-9.064777725797350597e-03,-9.795859958221765140e+00
9.996021320193596793e+00,4.615807257182696563e-03,-9.809989543083487362e+00
1.000267099180682173e+01,-1.025942089658908292e-03,-9.802632731050506365e+00
1.000252072330709296e+01,3.907088004255941487e-03,-9.790784523825404762e+00
9.999296570962117769e+00,8.584237405111964578e-03,-9.798557637154480915e+00
9.999575026666569499e+00,-1.096538989845601897e-04,-9.790459475223553198e+00
9.998509579303512140e+00,-3.380626553760587155e-03,-9.813362751716729449e+00
9.997261412401854841e+00,-1.781054800266915032e-03,-9.790578100752105328e+00
1.000609282657959831e+01,1.649083846180063057e-03,-9.816349639652505843e+00
1.000499894981516746e+01,7.299490406182724449e-04,-9.779736668237395847e+00
1.000971802150493239e+01,7.264644305778445756e-03,-9.790070417357682686e+00
9.998307771590427606e+00,-2.114692111228809630e-03,-9.799289265325528575e+00
9.999042175417322653e+00,1.861615122740582946e-03,-9.803175575052652135e+00
1.000675283969553675e+01,2.244874397972269724e-03,-9.786756802794799981e+00
1.000418145174181994e+01,-4.503359381305487366e-03,-9.792392244881938268e+00
1.000116639611145253e+01,-4.660275934303429075e-03,-9.803806164312648619e+00
9.996387894435827093e+00,-9.461817265677272470e-04,-9.805114513488149441e+00
1.000204797458241401e+01,-2.147358217475344409e-03,-9.810855133760648883e+00
1.000432998365078241e+01,-3.940130312825963939e-03,-9.787218742099319968e+00
1.000062666933100886e+01,-6.260047607525528503e-03,-9.786747434834140336e+00
9.999553624770092242e+00,3.446537226047306692e-03,-9.809196072698499691e+00
1.000176767774940600e+01,-1.338608821989994979e-03,-9.796520066235736124e+00
9.994515632706537644e+00,-2.178030228526999477e-03,-9.800564167811316452e+00
1.000050476838679892e+01,-1.412890129317869239e-02,-9.809842297850133619e+00
9.998791149326313743e+00,-5.524686101133537315e-03,-9.789459212181187198e+00
9.999299972946015913e+00,6.692345088354520466e-03,-9.787843014117784790e+00
1.000210986496679944e+01,-8.269172103435928206e-03,-9.788124180736538449e+00
9.993406669090104444e+00,-1.293781711596174616e-05,-9.811295930847780511e+00
9.994127547171453685e+00,-6.919985603360828338e-03,-9.796711044906954768e+00
9.996355553092246993e+00,-1.708563299172136465e-03,-9.786539718649940767e+00
9.991600982900791905e+00,-9.719542703845706830e-03,-9.783203732836726729e+00
1.001136805549550424e+01,-5.298847998230146739e-03,-9.801423962211254448e+00
1.000145739624441354e+01,-7.678552123399602983e-03,-9.807510973422056466e+00
9.997976085651488987e+00,-1.072702384564083039e-02,-9.797802326344587698e+00
1.000565852976624193e+01,-2.676097554122994779e-04,-9.788925460621138441e+00
1.000532782031528356e+01,6.227054426698743709e-04,-9.794186613629351612e+00
1.000505634134509592e+01,-2.234571710618778097e-03,-9.811565821740273918e+00
1.000330847283812652e+01,4.207070520249357737e-03,-9.791439151372063776e+00
1.000268207997151215e+01,-6.164215976670743211e-03,-9.791437995057762578e+00
9.994314088613341696e+00,6.960747670934882940e-03,-9.796652714019904451e+00
9.996459010777277499e+00,-3.847551210933620666e-03,-9.799678718022571289e+00
9.999917468830975764e+00,-5.299905856049239895e-03,-9.802211438432832935e+00
9.992867251074351032e+00,3.430850566372641974e-03,-9.788766070091481808e+00
1.000528652321846756e+01,4.937498239800728987e-03,-9.802414078368810735e+00
9.993183894963253877e+00,-6.588181097442192798e-04,-9.806544343767294336e+00
1.000822417492341110e+01,-1.722684357159631014e-03,-9.792394846109010231e+00
9.998543153769906766e+00,-1.260497004420216977e-02,-9.810233215064151580e+00
9.997106809787789317e+00,-2.229849047859385619e-03,-9.788912854896672400e+00
1.000551807516148983e+01,5.840453381070160460e-03,-9.785547442308240917e+00
9.996892120233079382e+00,-4.534571698133572915e-03,-9.798068022233096031e+00
1.000591165725317566e+01,9.184274243077229435e-03,-9.793643050799095917e+00
9.997896232609470246e+00,-2.056177329162267500e-03,-9.798365127727887369e+00
1.000130261605565529e+01,3.920576704987820994e-03,-9.792442036154623608e+00
9.996649828062212251e+00,-4.400110860114644050e-03,-9.798070259891566991e+00
1.000178023515634074e+01,3.249715684233572821e-03,-9.790456560100039951e+00
1.000405172534182086e+01,-7.721954736846801948e-03,-9.801042261312398196e+00
1.000233527761800012e+01,-2.402185372762269660e-03,-9.792942950016882975e+00
9.999336937568747530e+00,4.831793263810999980e-03,-9.792659654527609447e+00
1.000338387694716324e+01,-1.864583204355702668e-03,-9.806282278389003793e+00
1.000358983997466922e+01,7.517320298666892728e-04,-9.802159751721589487e+00
9.997779954424474980e+00,-2.177425782771493651e-03,-9.790125033161652723e+00
1.000088648444611827e+01,-9.536977150516768188e-05,-9.798240671939492330e+00
9.996013539032684747e+00,4.005086881479589557e-03,-9.808035955179979837e+00
1.000209982734783054e+01,-7.233036293722798667e-03,-9.805271441218144091e+00
9.997307484232676345e+00,1.839338368372974309e-03,-9.777521462906669569e+00
1.000134430487001858e+01,4.834090991693259717e-03,-9.791587802939748286e+00
9.996839929785258150e+00,-1.357003238196291756e-03,-9.789186283513060971e+00
1.000020219680338052e+01,-7.050353628973135382e-03,-9.809390022607487936e+00
9.995732714946006681e+00,5.854397260233242407e-04,-9.793787957561637114e+00
9.995156052582471418e+00,8.362459155160062788e-03,-9.793393348681240340e+00
1.000404996903000665e+01,-1.797296943734559777e-03,-9.788763384413906365e+00
9.995353468076524805e+00,-8.405784349550733323e-03,-9.804934204205109083e+00
9.996511429533958548e+00,-4.368664436512927768e-03,-9.806904154853008038e+00
9.997078941755868087e+00,-5.308073210381658233e-03,-9.798042855951726082e+00
1.000422982534195526e+01,-4.063213467889747327e-03,-9.805646622355210340e+00
9.996569126434868835e+00,-4.201975633461130059e-03,-9.786173434652891245e+00
9.994816064070221273e+00,2.919326819256042645e-03,-9.789864432779578962e+00
1.001267083289244475e+01,1.436967289327276695e-03,-9.780577575847546612e+00
1.000063134350842020e+01,-1.108366154811317146e-03,-9.795864012346477523e+00
9.993215607704417636e+00,-1.196807670039639259e-03,-9.806660979160341185e+00
1.000364558842916018e+01,-1.788328330582130679e-04,-9.795704142245835300e+00
9.995141056026357163e+00,5.538798251026866987e-03,-9.794151746282423687e+00
9.996545154237324482e+00,-1.874427871283875901e-03,-9.803381545082634929e+00
9.993531011388684604e+00,-7.242709666719855492e-03,-9.789267373463252042e+00
9.998972492730684891e+00,-3.164538934811176978e-03,-9.785192401155205388e+00
1.000221869570868272e+01,5.772149737605642003e-04,-9.803389977702064328e+00
1.000524147754014948e+01,-7.422287441537914264e-05,-9.807674229697344259e+00
1.000027546642950504e+01,-5.216320458493600709e-04,-9.780090541716345953e+00
1.000023135122824947e+01,-3.919888165458982406e-04,-9.787567463694864855e+00
9.994039051739182611e+00,1.817583296742545252e-03,-9.788482410041613235e+00
9.998183547010032868e+00,-1.243848787925462161e-03,-9.786352609454285201e+00
9.996267699026779141e+00,3.214295303615089493e-03,-9.785967678141632931e+00
1.000363983375599197e+01,-2.237527347721659631e-03,-9.797891724229707222e+00
9.995892059938833896e+00,-1.038018244527286540e-02,-9.790783454117184093e+00
1.000003612959894461e+01,-2.326017590505270651e-03,-9.794583209435193893e+00
9.998016549270786868e+00,-3.217741134306245903e-03,-9.800401134149886673e+00
9.998662243193143340e+00,4.600918228118747698e-03,-9.789720212918991749e+00
9.992989477389800257e+00,-7.125848777480871948e-03,-9.795922188244890805e+00
1.000032033026075062e+01,1.957352237182520462e-03,-9.791680768376108901e+00
9.989614792241935604e+00,-6.924190012142810617e-04,-9.788476884767263186e+00
9.993621404420760967e+00,1.520899312395674035e-03,-9.791478507560372080e+00
9.998296602385016385e+00,-5.654525844472856749e-03,-9.782662582254046058e+00
1.000066457860257074e+01,3.645987701041036692e-03,-9.807862097606134810e+00
1.000754828970229049e+01,-3.267100047756950083e-03,-9.794181500351974989e+00
1.000416135313869503e+01,5.381004900614978423e-03,-9.802769172418592802e+00
1.000027602680230210e+01,4.039705987670419614e-03,-9.786920397858022369e+00
9.996826524818430926e+00,7.180521150525654046e-03,-9.804694608967405856e+00
1.000256244284602936e+01,9.468866474530837629e-03,-9.792765908764994975e+00
1.000851118039848053e+01,-7.932884182294331395e-04,-9.791430021191738220e+00
1.000350506970260156e+01,-1.375029618235000788e-03,-9.803163605578859574e+00
1.000327408242473304e+01,4.917367979289837335e-04,-9.804154046311927218e+00
1.000051752271081895e+01,-2.825993639150942410e-03,-9.801436533131745676e+00
9.997434514608697143e+00,6.559222057941105116e-05,-9.789732029075988606e+00
9.995669437663984525e+00,-6.220564819390928847e-03,-9.804156945031296644e+00
9.998040304403660983e+00,1.424637896214310095e-03,-9.794843857991180514e+00
9.995324090390887761e+00,1.317281922259911460e-03,-9.796523866832867355e+00
1.000004164846521704e+01,2.466701041939540779e-03,-9.804194208432807756e+00
9.999910632868836302e+00,4.927505047020707199e-03,-9.798680568418729919e+00
9.997484921095788124e+00,3.133350039235364547e-03,-9.781913533868650035e+00
1.000943557149988017e+01,2.736611335723207819e-03,-9.799615202977401296e+00
9.988536297195185654e+00,-6.139338007144225576e-03,-9.786451786555385723e+00
1.000639814493851709e+01,-2.351077024822845630e-03,-9.799297938298870747e+00
1.000243127524253595e+01,-6.733709244481540963e-03,-9.776847784755526405e+00
9.998876503827476725e+00,-9.100328031780612406e-04,-9.789338234806784556e+00
9.991565402707019317e+00,-3.048639134726313996e-03,-9.790666657183745514e+00
9.999447638320202003e+00,-6.286368870937242108e-03,-9.793066542501227545e+00
9.999200521557064292e+00,-3.211560973344271524e-03,-9.793014784945688334e+00
1.000340703512674345e+01,-2.087403727443067308e-04,-9.793059420114339275e+00
9.995438942016367179e+00,-8.778656401353850461e-04,-9.793810518618773386e+00
9.991374017658028350e+00,-1.400741137921693302e-02,-9.790361698421905956e+00
1.000630034756743569e+01,7.994971561899710810e-03,-9.803601322127606821e+00
9.995280335602487298e+00,2.281832492017839796e-03,-9.791505075871739905e+00
1.000221140742773329e+01,-3.866749516794595887e-03,-9.808565340005861444e+00
1.000920168742738880e+01,-2.043874395312512537e-03,-9.802516855947954966e+00
9.998424336261566125e+00,1.335022255249639078e-03,-9.782200711004540139e+00
9.995325680991960837e+00,-4.091961303249807939e-03,-9.809862635569009726e+00
9.998679616859758923e+00,4.730892569930656918e-03,-9.803108785773407163e+00
9.999938360415066896e+00,4.994616222530065888e-03,-9.797196070551430935e+00
9.988754891733702124e+00,2.000328775931879948e-03,-9.793905011794924675e+00
9.995020287443926676e+00,1.500090373633352053e-03,-9.799970309561091497e+00
9.996184122151587914e+00,4.610355077403890597e-03,-9.770675353022635790e+00
1.000072147980766069e+01,-4.610548821368343902e-03,-9.798365525500553730e+00
9.993914069474238104e+00,4.036165010544543949e-03,-9.809302744083858272e+00
1.001224435903268351e+01,-4.462365976357382351e-03,-9.802126642741228579e+00
9.994986096927545915e+00,1.371801741665719257e-03,-9.797885475710300440e+00
9.987630502669894383e+00,1.126847153596059097e-04,-9.789355272853173418e+00
9.994205262053798222e+00,-3.656273355826200784e-03,-9.798436224446692933e+00
1.000561698878718886e+01,-3.062667359242017898e-03,-9.798893181320151413e+00
1.000263317787155337e+01,7.810877086355806111e-03,-9.786773282645274463e+00
1.000083378605815732e+01,-3.569410922085949553e-03,-9.797834601385840614e+00
9.999159719468710961e+00,-8.377012684505498810e-03,-9.790331426521333924e+00
9.997962997967581700e+00,1.144009745374223149e-03,-9.806688653126117927e+00
1.000137460655281352e+01,4.426392030791787870e-03,-9.799299072924787524e+00
1.000092283732365139e+01,2.541792540480855133e-03,-9.806116015110459827e+00
1.000126514898015628e+01,3.873363743818744663e-04,-9.797991559222030133e+00
9.990442459982347145e+00,1.393681766457789944e-03,-9.799545983609421640e+00
9.999991678756547486e+00,-5.294676006086237313e-03,-9.791601532187346635e+00
1.000292884793418047e+01,8.851524819994197046e-03,-9.788109638186714534e+00
9.999128372596329584e+00,-7.376388138334862010e-03,-9.793897197264429977e+00
1.000151105862488876e+01,1.040212075472970142e-02,-9.801052514245169434e+00
9.993694185566223354e+00,-8.319426365091607545e-03,-9.787551705184663220e+00
9.993702636924099991e+00,3.499383428309652509e-03,-9.796749769215079340e+00
9.997006904846010400e+00,-6.811933628531511610e-03,-9.786146975740297904e+00
9.999936662159525369e+00,2.487545910971186366e-03,-9.793314328328388996e+00
1.000371978293171082e+01,4.117508470078457689e-03,-9.800485536972752598e+00
9.996161284197679464e+00,-2.432822478296703308e-03,-9.799927977908016175e+00
1.000230927239792500e+01,2.773764751250060168e-03,-9.795142710638543804e+00
1.000154801718187159e+01,-6.545266581723844330e-04,-9.794113390919156004e+00
1.000173605105156227e+01,-1.379338982515155632e-04,-9.800975164593856093e+00
9.999467213063672588e+00,2.637779791131690792e-03,-9.809705178813720394e+00
1.000467347884086244e+01,-2.632051817339330600e-03,-9.798691848960004336e+00
1.000173765638832712e+01,-1.214160719127723451e-03,-9.795210011391951355e+00
1.001013059555980256e+01,-5.206274248956413962e-03,-9.778259657531517490e+00
1.000730955363340691e+01,-1.934863504964875677e-03,-9.786045777049283245e+00
1.001170642873141148e+01,-4.992555993684407410e-03,-9.793490855759499070e+00
9.994023260054293090e+00,-1.295038240146871448e-03,-9.807210591817886680e+00
1.000005650461805651e+01,-5.728666587517064826e-03,-9.782169145147134870e+00
1.001052732106314558e+01,6.022299406194390244e-04,-9.790149343837908802e+00
1.000116288951554111e+01,-1.371360384694695006e-03,-9.791529582367546780e+00
9.997250775117642263e+00,2.511571395772879949e-03,-9.809134404876715507e+00
1.000046893953626004e+01,-1.930863967492291470e-03,-9.793108193507151782e+00
1.000437251390347093e+01,-7.010547426301756702e-03,-9.783099238636660644e+00
9.999505172849113777e+00,2.130300306007238981e-03,-9.793370942814920710e+00
9.994263136106493306e+00,5.277896371395295397e-03,-9.784840640369893094e+00
1.000281948450054337e+01,-6.436453906850017788e-03,-9.813968431295771566e+00
1.000449072440480158e+01,-4.312433456535248039e-03,-9.805064789669140524e+00
1.000284285392954864e+01,-1.598772742895506870e-03,-9.794891100388554150e+00
1.000196364932252457e+01,-5.355183702314712801e-03,-9.787218913454653446e+00
9.999223894432295978e+00,-4.482677389519401125e-03,-9.791955011410816923e+00
9.991019808671262936e+00,-5.623282672568671176e-03,-9.814408337218070599e+00
1.000812047711649022e+01,-5.737226863280199714e-03,-9.795283884697028043e+00
9.992046535948588826e+00,-6.065191103662042650e-03,-9.793380688057236938e+00
9.996534090896780356e+00,-8.285133682922296919e-03,-9.802938244188265315e+00
1.000368746236410722e+01,-1.016755398478586545e-03,-9.780829820376503392e+00
9.995070549223735057e+00,8.557740702685988701e-03,-9.801361985027405410e+00
1.000860752946778831e+01,-5.338895228745597736e-03,-9.801159751785164076e+00
9.996094894908161166e+00,1.348757831239326844e-03,-9.799059235759743913e+00
9.999916327049923837e+00,-3.091442834383272779e-03,-9.792091720251143272e+00
9.990896868062675296e+00,4.976708661625570997e-03,-9.788985339574777456e+00
1.000580881128020749e+01,-5.279582734531252340e-03,-9.790927606000572325e+00
9.995077923296083355e+00,1.486270263752931427e-04,-9.788178176808976616e+00
1.000286516153344074e+01,-3.014566348828721324e-03,-9.799948446858840256e+00
1.000291238375018210e+01,9.739080109033123244e-04,-9.789887457864864473e+00
9.997704976286360790e+00,-3.721653547713750770e-03,-9.807559860043593147e+00
1.000083475388990450e+01,5.706682271944249485e-03,-9.788552268421392810e+00
1.000741653023435163e+01,1.330599398200848615e-03,-9.789009183659565849e+00
9.999229970381696475e+00,6.884928438046344218e-03,-9.797817446552382847e+00
1.000360283902634251e+01,9.785025622062411277e-03,-9.779107572397476744e+00
9.996870796319701213e+00,3.036666167895545054e-03,-9.805098385414076745e+00
1.000298335205898859e+01,6.087635757444830910e-03,-9.793150594444551160e+00
9.993466232137215854e+00,-3.492742914320440175e-03,-9.796543227872906101e+00
1.000079185419671823e+01,-5.289976129787064395e-04,-9.803718001206856769e+00
1.000480726464224723e+01,2.402733608943585873e-03,-9.791230655422539897e+00
1.000195342709762159e+01,-4.540328745156126632e-03,-9.775798641772782460e+00
9.993910317915812414e+00,4.103314107998345776e-03,-9.810352182989030112e+00
1.000583786991868962e+01,1.309055336239282712e-02,-9.800855235863902948e+00
1.000027401800475069e+01,-2.114428229394935133e-03,-9.776634798770672319e+00
1.000071973170301476e+01,-1.443021857968805220e-03,-9.807575570846720936e+00
1.000266164741946540e+01,6.082141961085456121e-03,-9.791819392640494613e+00
9.993537460516970228e+00,9.094442963725399287e-03,-9.777564136046333232e+00
9.989551828238113274e+00,-8.861539018063958190e-03,-9.784996627658765433e+00
9.990771902254081738e+00,-4.519448314425240096e-04,-9.797798271304838380e+00
9.999097628686659078e+00,4.063830865363034749e-03,-9.799655353468777363e+00
9.995914078369445122e+00,-9.629636438257909575e-03,-9.806702810770202561e+00
9.996744712321939730e+00,-2.046258207155420873e-03,-9.796345133660201654e+00
9.993091294910430022e+00,5.063047976002649567e-03,-9.805510170166538586e+00
9.995630505260095333e+00,-8.937768485085491321e-03,-9.811906045746033200e+00
1.000040851567083422e+01,-2.339294590779874682e-03,-9.788007385109310121e+00
1.000360001699732138e+01,-3.259489963888388773e-03,-9.806324655491975406e+00
1.000828818369244466e+01,-1.439604794176345057e-03,-9.786585889401925087e+00
1.000593151624026511e+01,3.381641790982891065e-03,-9.787540161692524165e+00
9.995320825908486029e+00,1.053418905487178182e-02,-9.794684027548839822e+00
9.999600863005094098e+00,7.622456920191455695e-03,-9.792865820398791499e+00
1.000181189421328476e+01,3.427457419510870126e-03,-9.797937032188331230e+00
9.998708385876913241e+00,2.177521456412517288e-04,-9.804656891245121741e+00
1.000615333880649693e+01,8.085576728265217797e-03,-9.794053026631035053e+00
9.997981272515007234e+00,-3.756045359204456067e-03,-9.785164896452149819e+00
1.000150491468544267e+01,1.166760820718698273e-03,-9.785735773108319435e+00
9.995552485222685135e+00,4.569840365659050274e-03,-9.794156234031282438e+00
1.000473488339507533e+01,-6.455021097021167165e-03,-9.800975647466344753e+00
9.999441879193540217e+00,8.365562491595155206e-04,-9.775838196597883112e+00
1.000379842347075154e+01,5.732914132799979759e-03,-9.812513616197666266e+00
9.999295078385753044e+00,-6.494452008211054617e-03,-9.790586540689625750e+00
1.001044745466010610e+01,-1.819837747903699189e-03,-9.801282835169040197e+00
1.000437892079945001e+01,-2.543578144121741783e-03,-9.784023602811377174e+00
1.000472917246606386e+01,2.543948031392046383e-03,-9.796692329233559704e+00
1.000657973863961381e+01,1.118790817425074609e-03,-9.791566097723473305e+00
1.000320971287870719e+01,-3.152177441373223057e-03,-9.811952482624871408e+00
9.991080874785152943e+00,-1.427981091585754864e-03,-9.781633113943943414e+00
9.992091540336717870e+00,6.642255101774416706e-03,-9.795102948936538212e+00
9.997919884992610307e+00,5.784281552065843185e-04,-9.795030994265570001e+00
1.000300672882940667e+01,4.857474489861608388e-03,-9.807822563479714262e+00
9.998409603118114219e+00,1.774042443584589613e-03,-9.795775305404726296e+00
1.000608411701340472e+01,-4.519303939556570254e-03,-9.786413901996231957e+00
1.000459722014292474e+01,1.474882873883234708e-05,-9.775454678102926565e+00
1.000290924040690577e+01,-4.585044362259016871e-04,-9.808017203926283401e+00
9.999131574158328206e+00,5.194628821473651868e-03,-9.799842159468841629e+00
9.998163297062834687e+00,-2.865813306482992671e-03,-9.799583315209957846e+00
9.997694257208070923e+00,-1.414164318712448883e-03,-9.811341392008699813e+00
9.999407766129911224e+00,5.807373383889857625e-03,-9.793643068572762900e+00
1.000005529769902068e+01,4.073792766782034259e-03,-9.800661712804528136e+00
1.000239566016103687e+01,-3.126089657153300391e-03,-9.800798271947551044e+00
1.000155817219884113e+01,3.730359875335535432e-04,-9.813614859632719956e+00
1.000429100202471844e+01,3.341101097983763431e-03,-9.806927751728645504e+00
1.000445114252003442e+01,-9.613504049554671277e-03,-9.785874007852507717e+00
1.000255903341515129e+01,-1.411523556508048876e-03,-9.797012644039849505e+00
1.000339629502786032e+01,1.284101447410997479e-02,-9.799751873980051542e+00
9.999269281611262272e+00,-1.308748687572753710e-03,-9.793846184498812946e+00
1.000951151599306854e+01,-1.086246050706422654e-02,-9.782313764031725256e+00
9.997329299746292364e+00,-3.554497059550371357e-03,-9.803620017337934200e+00
9.994237334310183130e+00,2.824628332607316290e-03,-9.793994368490446689e+00
9.992293962786469308e+00,9.431895185882830865e-03,-9.789248011680754757e+00
1.000578036775952206e+01,-1.274467570246703855e-03,-9.781524215879956685e+00
1.000149603490398142e+01,1.708717294773733639e-03,-9.794285651924216296e+00
1.000564740471428138e+01,3.241639440555869282e-03,-9.800711945067421382e+00
1.000016832356115515e+01,-9.989692332995736123e-04,-9.814079711898921587e+00
1.000590442778801759e+01,-3.505155446144366492e-03,-9.787942399953067252e+00
9.995940549149016974e+00,3.380582212863933976e-03,-9.793600873075433810e+00
9.997688238676992967e+00,4.996140402370828106e-03,-9.796392334469153695e+00
1.000087154218678798e+01,1.916185373175941040e-03,-9.799561489808169767e+00
9.993529599408704556e+00,3.084514212094693810e-04,-9.797339255909026434e+00
9.999863485303372101e+00,-2.068498174361855894e-03,-9.790888335804153186e+00
9.997704996840683478e+00,7.167939559981483834e-03,-9.794804492548852437e+00
9.998466889752497977e+00,3.046332680730814285e-04,-9.801121261155698150e+00
1.000116659248007700e+01,3.961428693062111247e-05,-9.798534381292046902e+00
1.000133958358086694e+01,9.763383476976132680e-03,-9.790314649874147790e+00
1.000479371389347349e+01,1.237427717376920165e-04,-9.795441064457152791e+00
1.000510912468767266e+01,4.570146581360423101e-03,-9.781126985239875893e+00
9.990888891441759512e+00,-1.453305149834024750e-03,-9.808214627290110954e+00
1.001097351460593643e+01,-1.379410421180882239e-03,-9.799675670282187667e+00
1.000402550034899818e+01,1.743590705605441637e-03,-9.801688701107568846e+00
9.994321448093574034e+00,7.103620828946928187e-03,-9.794818255335300705e+00
9.999396628577610358e+00,-5.130022646966644027e-03,-9.789669620111657977e+00
9.999773414574416819e+00,4.314926517420652509e-03,-9.790829262862382976e+00
9.999574799145602100e+00,-1.148030709806245218e-03,-9.767790539357394053e+00
9.988044714329078033e+00,-5.954514459119396308e-03,-9.794747471763889379e+00
1.000253307334213737e+01,-8.161703478471499587e-03,-9.802995831400954430e+00
9.995095519912297277e+00,6.790463150930518138e-03,-9.788304728463621984e+00
9.997984232361098123e+00,-9.700052648667680790e-04,-9.790018100685708546e+00
9.996691254755715406e+00,2.216543806115491705e-03,-9.790477629067453336e+00
9.999075274724956941e+00,-7.644609212074267562e-04,-9.797370639738963050e+00
9.998977143785324984e+00,7.418585379048395212e-03,-9.803514018418557185e+00
9.992297084705217713e+00,1.272632261231884101e-03,-9.802667512729112076e+00
1.000272798499546134e+01,1.882847161231500149e-03,-9.785711770632536499e+00
1.000317130845797031e+01,-1.573175907927952446e-04,-9.809732771650686800e+00
1.000141986602514521e+01,-4.914056562668474943e-04,-9.791404455388159178e+00
9.999167944244412354e+00,-7.246174826855305770e-03,-9.800253603714519812e+00
1.000267904998176682e+01,-9.209167622979819515e-03,-9.797515563218800239e+00
9.996516898803847084e+00,1.519220194738568099e-03,-9.778726766770672540e+00
1.000289102748006087e+01,-6.521897544504656231e-03,-9.793345009116967148e+00
9.999664440570484203e+00,-7.245187245572689509e-04,-9.785436421543401764e+00
9.996400634351322978e+00,-1.263102774694071541e-02,-9.796396194877811325e+00
9.997816806144134816e+00,4.419719628085976362e-03,-9.789321109830694922e+00
1.000309701699665865e+01,4.343715854540979374e-03,-9.788671710473066057e+00
1.000715780332954985e+01,-2.425902231263399669e-03,-9.798845357824214730e+00
9.996690914431631825e+00,8.638539923673180243e-03,-9.809199376182961672e+00
9.996017215867231798e+00,-3.094238191593914802e-03,-9.799079426917547408e+00
1.000074169464441987e+01,-6.890118984214716434e-03,-9.790673930265409552e+00
1.000216129355956340e+01,4.527371035018658632e-03,-9.809392398721886508e+00
9.997468070151338537e+00,-5.443942739719306000e-03,-9.795036206799563772e+00
9.994498539713360330e+00,6.040409674750747519e-03,-9.793099048094147108e+00
9.998012033350674344e+00,-9.973140152088871141e-03,-9.782420659666238194e+00
9.995782947370415172e+00,-2.215406294756235538e-03,-9.782019042121687491e+00
9.984575577213581354e+00,-9.099469946410967611e-03,-9.794096689837639147e+00
9.994150726389522177e+00,1.781950421312847863e-04,-9.787479582137022405e+00
1.000124798024342887e+01,1.015790659066290424e-05,-9.813359790665824534e+00
1.000324195890520151e+01,2.553389852777673331e-04,-9.785447489900990448e+00
1.000734750401761985e+01,5.589200345578092949e-03,-9.787395435852415559e+00
9.995233581620142971e+00,9.333473139891195966e-04,-9.787128819327580942e+00
9.999292143273413203e+00,4.509769631319408487e-03,-9.786019740764430708e+00
9.996854777720244556e+00,-5.612658738678888426e-03,-9.788301985213198719e+00
1.000702692269235250e+01,-1.746068016982135242e-03,-9.793886616314228633e+00
9.996974019638429354e+00,1.083228539704935919e-02,-9.818289315893666824e+00
9.998350793350553545e+00,-7.996681896023390525e-04,-9.786833767015043151e+00
1.000603145787228065e+01,3.633895929769695964e-03,-9.791952335090712722e+00
9.998552069927869823e+00,-5.856050217098532525e-03,-9.795675592204512228e+00
9.995588496663916800e+00,-2.411468405078995899e-03,-9.782601393844364779e+00
1.000632994233707862e+01,6.862121865083073424e-03,-9.795073856335378082e+00
9.995688479885293631e+00,3.926853251960338125e-03,-9.802285504657147541e+00
1.000297002938023638e+01,6.280047726231351504e-03,-9.780378538164409719e+00
9.995795746697256234e+00,1.109666322902648841e-02,-9.790370466006512729e+00
1.000134025835228613e+01,1.056683854490247107e-03,-9.786032131722171457e+00
9.998416677845963108e+00,4.633669466753705113e-03,-9.795686478707068545e+00
9.995438922779818824e+00,3.548228868823625950e-03,-9.811156380337036964e+00
1.000130753850863918e+01,7.124341367510974091e-03,-9.776006570048973998e+00
9.997271785705063252e+00,-2.823401986923331809e-03,-9.800339395541493914e+00
9.997523138438188184e+00,4.049860962255939605e-03,-9.796370609683421549e+00
1.000464484958402878e+01,-6.858429594683712084e-03,-9.805718555771964162e+00
1.000248205835232262e+01,3.153069639528669268e-03,-9.782607982522709023e+00
1.000210843132461491e+01,3.789929145594595882e-03,-9.808202069898065645e+00
1.000521651082646635e+01,1.496698287317627671e-03,-9.805737370924848761e+00
1.000392291807101586e+01,-3.487383257195343731e-03,-9.799726878489327220e+00
1.000586842680251110e+01,-1.152391400712134703e-03,-9.795675574742045200e+00
1.000090898133178818e+01,4.116327537830878278e-03,-9.781277828816712372e+00
9.999446449521846247e+00,-4.036293299441027355e-03,-9.801147678937208951e+00
9.998598289487203417e+00,-3.810254663878282107e-03,-9.777279718665571551e+00
9.993606141979563873e+00,-7.619117425882482829e-03,-9.792018982249611980e+00
9.987505471338186780e+00,1.169110422198898624e-04,-9.795052968478509925e+00
1.001088466633679630e+01,1.721853214935139533e-03,-9.805358451817316023e+00
9.998680236102233110e+00,-3.233761741945791624e-03,-9.774655526439859798e+00
1.000703950905733386e+01,-1.053894060809894458e-02,-9.788079478138142164e+00
1.000226764583682559e+01,-1.159091486219390905e-02,-9.791214632569820608e+00
9.999828426535451342e+00,3.447969006713448321e-03,-9.796536364225479687e+00
1.000429199853490481e+01,-8.308317959338554735e-04,-9.784106859640822051e+00
9.995111638670485021e+00,1.483268550896435934e-03,-9.806769506185338159e+00
1.000009980010665878e+01,-7.584127363969271791e-03,-9.787101096843793258e+00
1.000470372052764745e+01,6.013423447488107712e-03,-9.794047726250033392e+00
9.997352226597996605e+00,-2.247939655147874333e-03,-9.790188665823588821e+00
9.996534288644971511e+00,-1.604751961929084527e-03,-9.769165668888502907e+00
9.993841423681599778e+00,-7.939539446090005878e-03,-9.795562074576004363e+00
1.000716712366677008e+01,6.657976719895299968e-03,-9.797757903290690962e+00
9.995918079319141114e+00,3.502358196935475426e-03,-9.804061830274896749e+00
9.995375314790639010e+00,-8.103773142369694038e-03,-9.793554099485188402e+00
1.000406255863150840e+01,4.834494854613374804e-03,-9.795979578243862562e+00
9.993377685114078091e+00,-2.927625849720962535e-03,-9.798760657613362568e+00
1.000386917511566054e+01,2.056441465804534265e-03,-9.792504486282554765e+00
9.994360491616408382e+00,2.612669273886970150e-03,-9.803236294065749590e+00
9.999601246379357988e+00,-2.599475481469074641e-03,-9.800483627081803206e+00
1.000143186993118505e+01,1.854516101466277284e-03,-9.780486973068446943e+00
1.000267542000617738e+01,-1.998163380271564900e-04,-9.782416297413531581e+00
9.995084050564043920e+00,3.866114835479416475e-03,-9.796023382667510049e+00
9.995511931634935010e+00,-1.399885774193607895e-03,-9.780864091191201481e+00
9.993778780225438751e+00,-2.270123107149279659e-03,-9.789216596896519462e+00
1.000541339149868492e+01,3.778826975330509385e-03,-9.803631105831101422e+00
1.001104656659205183e+01,4.406566361694762464e-03,-9.797228282414980782e+00
1.000555030041850380e+01,-3.517012323053728649e-03,-9.805421220934752213e+00
9.986500572102716689e+00,2.303066813642181722e-03,-9.785657164140872055e+00
9.998966195124735279e+00,-5.779136158755167688e-03,-9.800684527734210505e+00
9.992886328345166547e+00,4.354799922146880033e-03,-9.805236258978741404e+00
9.996640959310221675e+00,3.260287347697261775e-03,-9.800276946593802663e+00
1.000007225817330792e+01,7.550573963860396538e-03,-9.807982864602026396e+00
1.000151869984643582e+01,-7.344318734310877582e-03,-9.784620222827147273e+00
9.993088479864193019e+00,2.956330024301382156e-03,-9.803655641892795813e+00
1.000711901511759194e+01,7.733490061213875097e-03,-9.800314722042847038e+00
9.998789498123191066e+00,3.373533267882140689e-03,-9.796602192024158384e+00
9.997993134317102459e+00,1.472772618486639304e-03,-9.797229407734052486e+00
1.001463663192375009e+01,-8.413262043510925242e-03,-9.801654327750316753e+00
1.000002104570745409e+01,-2.896561840007650431e-03,-9.797853483625305060e+00
9.994721037305376754e+00,3.359798412272809419e-03,-9.776336432825226908e+00
1.000607166583392882e+01,1.214680268267811537e-02,-9.780722186826409370e+00
1.000545455647577242e+01,1.414721656998102267e-03,-9.801139834739261758e+00
1.000505631004550366e+01,4.430791279192954242e-03,-9.800693344213023295e+00
1.000315322504034654e+01,-5.643366304978557520e-03,-9.781827242127043576e+00
1.000287390096432638e+01,-4.347956891783784014e-04,-9.792519627703478946e+00
1.000280263299794292e+01,3.919186272192333627e-03,-9.795696871071607248e+00
9.997872142146780661e+00,-2.830038801976295050e-04,-9.811571601282118138e+00
9.999466546687234114e+00,-1.825750649214889429e-03,-9.789033890832667950e+00
1.000108775782906534e+01,4.600143963711938490e-03,-9.816418822470843963e+00
1.000116562658431363e+01,5.858293697923081834e-03,-9.807219322191391697e+00
9.999582234472494946e+00,1.054456100220125224e-02,-9.802398113460039752e+00
1.000184885528144996e+01,3.841301525232264456e-03,-9.798828966159067733e+00
1.000313858172084736e+01,-4.889471727223239361e-03,-9.794910575980738443e+00
1.000640441595247054e+01,-1.506075068572959759e-03,-9.789109576912585098e+00
9.991061201237874556e+00,-6.461541738153076322e-03,-9.789326861891792575e+00
1.000436364327049432e+01,7.454993712280692797e-03,-9.789684561479925051e+00
9.997410689504736325e+00,-7.860002590564251629e-03,-9.799363257896381185e+00
1.001349109908797175e+01,3.755848356013223241e-03,-9.789118066546235397e+00
9.999399211638520413e+00,1.750430939149872755e-03,-9.812059184718757265e+00
1.000032006296491360e+01,-1.782328287422480959e-04,-9.784961232078902782e+00
1.000105357846899778e+01,-4.522936416358498864e-03,-9.798190637032385908e+00
9.992536558877491260e+00,-3.861887610338641109e-04,-9.815707765917524696e+00
1.000247154822079843e+01,-2.221614715772301900e-03,-9.806426471241888265e+00
9.997965902754813783e+00,-7.362970853367403583e-03,-9.811957176475729625e+00
1.000284825875931460e+01,-3.215512263402127164e-03,-9.781834217167540757e+00
9.997685097231418183e+00,-2.046758599204683352e-03,-9.786570280515993758e+00
9.991146798754245495e+00,3.223106050504694932e-03,-9.780164778630007660e+00
9.995755302354286442e+00,1.547920623519748358e-03,-9.794070360038295675e+00
9.995599713579382595e+00,5.807197753372215360e-03,-9.787284608965437727e+00
9.999322301363831045e+00,4.559470466422209378e-03,-9.797706851525806115e+00
9.998123933200856683e+00,-5.118817527392236118e-03,-9.793013118695530039e+00
1.000318120207603911e+01,-2.681491044382222980e-03,-9.798097680822872135e+00
1.000406185605794640e+01,-3.331977549016824913e-03,-9.799242190780308448e+00
9.998241084306297211e+00,-2.058959388049385556e-03,-9.788187799001089928e+00
1.000395741784730852e+01,4.612062678170541531e-03,-9.795866380178091859e+00
9.997416645099619359e+00,-9.600507555236261360e-04,-9.797609871111975011e+00
1.000067034936272847e+01,1.145134273503952901e-03,-9.798409118825258446e+00
1.000211513500644500e+01,-7.110087054720218118e-03,-9.788097728273243092e+00
9.997484521377652200e+00,3.186826445445846250e-03,-9.801106338327601364e+00
1.001415075936585630e+01,5.865537853934929373e-03,-9.787772229276813007e+00
1.000492243017573912e+01,4.004495158583609195e-03,-9.800270831243334868e+00
1.000453133072632816e+01,1.078459215489835712e-02,-9.779592195026934220e+00
1.000263444507965360e+01,-1.245105021969218628e-02,-9.794821023025761519e+00
1.000870265000215831e+01,2.147274624653342629e-04,-9.784315341007697953e+00
9.996930653747645223e+00,-9.313115604244316323e-03,-9.786339013371886608e+00
1.000269822749689652e+01,-1.927985701398142373e-03,-9.794574459435889224e+00
1.000093369282369871e+01,3.445320638594203972e-03,-9.801637395318421042e+00
1.000977857076084199e+01,2.027668183808562386e-03,-9.799374734641462581e+00
1.000081788206040834e+01,6.703267677173303275e-03,-9.804943084644060391e+00
9.988713779071868970e+00,2.565251628585687570e-03,-9.789029181178225514e+00
9.998583783781404222e+00,5.754158218620624744e-04,-9.789240932058374867e+00
9.992117025350802706e+00,-3.900972102688230261e-03,-9.797937949944541813e+00
1.000157116060339568e+01,4.796061491421587351e-03,-9.791734726393556798e+00
9.998490373323502212e+00,3.880094405416366007e-03,-9.802473314762620404e+00
9.999969180868326646e+00,6.198811332814904143e-04,-9.783881444817851047e+00
1.000171082573879744e+01,-4.466286603710862418e-03,-9.797727650079641748e+00
1.000046704190183355e+01,3.931851611645385478e-03,-9.798244470516928928e+00
9.997300481314628229e+00,-1.768627075470275908e-03,-9.790684720517740303e+00
9.997428418000126271e+00,-1.341169504270018232e-03,-9.795533210789516332e+00
9.995716326930930151e+00,2.763377362571527510e-03,-9.795485981181998980e+00
1.000616077506498769e+01,-3.109549134509308720e-03,-9.807655879745075467e+00
9.998021551990118994e+00,-4.774400402738395409e-03,-9.793401527183801747e+00
1.000081778307323610e+01,-1.861015597419695463e-03,-9.784284358686221594e+00
9.989303356952888180e+00,5.695564048928668808e-04,-9.791140195925054357e+00
1.000105331803385056e+01,-8.759960349170037297e-03,-9.807903092565132042e+00
1.000023892362742117e+01,1.006941578355730928e-02,-9.785644003278868297e+00
9.999605651424058550e+00,-1.287103294630567545e-02,-9.792847868482759566e+00
9.991046626161397270e+00,5.629433842722425356e-03,-9.807687777323657485e+00
9.997142962288656065e+00,-1.418530620594619235e-02,-9.799309697639907668e+00
1.000718842194011238e+01,2.041043350514309615e-03,-9.780539288451571167e+00
9.997839262524729875e+00,-1.250314094747589748e-02,-9.793180714464849501e+00
1.000571107495739653e+01,5.865550107832103247e-03,-9.800987592742840704e+00
9.992088448158401803e+00,2.137561937080742925e-03,-9.800223960827128877e+00
9.996154064560114350e+00,4.398908702199806967e-03,-9.799313079981445185e+00
9.989974860151008329e+00,3.138525572582452888e-03,-9.798483903639970904e+00
1.000512918800956719e+01,2.123857532536782729e-03,-9.800763527958149979e+00
9.991763579106459403e+00,-8.948958584140789471e-03,-9.798161559764622552e+00
1.000516263118504412e+01,2.487571507424922879e-03,-9.801148403625145278e+00
1.000608322572924180e+01,1.507963514727677333e-03,-9.802340528153896670e+00
9.995681980692298296e+00,-1.119928122875892690e-03,-9.795132213689669243e+00
1.000095052800119255e+01,-6.058538615439769057e-03,-9.786676918362170241e+00
9.993729941511945825e+00,7.659007458085727131e-03,-9.788740839343750721e+00
1.000253089336828083e+01,-3.714598438800084321e-03,-9.807964031926781345e+00
1.000134214151151113e+01,4.641392777701055725e-03,-9.787085204568766628e+00
9.996028989693577671e+00,7.808363433422892651e-03,-9.802997774700438427e+00
9.992310130507485511e+00,-6.636640773994777198e-03,-9.793229866688983876e+00
9.997550015055477246e+00,-2.774778772952935261e-04,-9.806309019025224671e+00
1.000772330561025036e+01,5.225195815772923358e-03,-9.793603349244433431e+00
1.000192250961465668e+01,2.004971580293590013e-03,-9.785600797125178829e+00
9.999021033882243614e+00,-7.399401584106027330e-03,-9.789144248405483140e+00
1.000660491420076426e+01,6.440977994847370356e-04,-9.795628054395455919e+00
1.000024632062749674e+01,-9.142587784372213644e-03,-9.782650532888720107e+00
1.000145916563914383e+01,5.429025177159194082e-03,-9.790867528306574030e+00
1.000242100943826351e+01,-3.926270871369831258e-03,-9.805798300249790600e+00
1.000225538920693324e+01,-1.355942825351430818e-03,-9.784279060228044500e+00
9.996862314775752267e+00,-1.503075079767135155e-03,-9.806539643369834636e+00
1.000423922305590985e+01,-4.039259052169359883e-03,-9.803438917182248247e+00
9.996937099285771566e+00,-4.908369119123432572e-03,-9.797703780069550561e+00
1.000280054225696524e+01,4.974292299121840961e-03,-9.799792849746774337e+00
1.000347476209880604e+01,5.376141891196682503e-03,-9.790628732099282416e+00
9.994301903585895985e+00,8.508239346530177506e-04,-9.795447321661628237e+00
1.000537434273243953e+01,2.910099166522259716e-03,-9.799015084663084352e+00
9.994710062436396925e+00,-7.169356533231607299e-03,-9.786839518586821995e+00
9.999312665832064795e+00,-2.552676566552333076e-03,-9.787611114952744273e+00
9.995548213070936328e+00,-1.136673988515203657e-03,-9.777786735404516705e+00
9.995018194789373922e+00,-4.513805495182823639e-03,-9.781194690047959384e+00
9.998146958977121912e+00,-5.088171559014128230e-03,-9.780410769265621695e+00
1.000576023818573468e+01,-3.299858922341416373e-04,-9.783839003356469277e+00
1.000518953565326186e+01,-1.107921616519955231e-05,-9.798290150474000981e+00
9.991881942353606050e+00,-3.239885380196475505e-03,-9.789019276236293976e+00
1.000019609874140336e+01,-2.880387642827111298e-03,-9.781304129307960338e+00
9.999902882635613111e+00,3.406482520447878110e-03,-9.786663581797354183e+00
9.997492854769411963e+00,7.017379556046386690e-03,-9.801838788854720264e+00
1.000569487347352648e+01,-2.200877859211310995e-03,-9.800902789150327976e+00
9.993800331255139113e+00,5.279032294852387640e-03,-9.809598181992059907e+00
1.000335666940636514e+01,-3.149708892720596101e-04,-9.780688533143896635e+00
1.000043735326504368e+01,-1.907960501672862534e-04,-9.793109444575742728e+00
1.000564173562722203e+01,-6.560643838620906776e-03,-9.791833190011614008e+00
1.001126060723846223e+01,4.710759504943624366e-03,-9.804856378821710905e+00
1.000236033190047991e+01,-4.859662831713010799e-03,-9.786252659085635131e+00
9.998216813745292697e+00,7.929088334206824476e-04,-9.797422764004048545e+00
9.995374612227113431e+00,3.736122514054062479e-03,-9.784509971048507282e+00
1.000132496303645446e+01,-4.535436835824127252e-03,-9.782735844271911674e+00
1.000027608129305534e+01,-9.926401489962820648e-05,-9.784879690387933593e+00
9.991276829807517856e+00,-5.044325581559652109e-04,-9.811256697338532007e+00
9.998740133303179789e+00,-3.833593381927960769e-03,-9.804928802158865864e+00
1.000958391846161355e+01,-5.607756134347552379e-03,-9.784553660797415731e+00
1.000338171282983879e+01,5.728209815173180858e-04,-9.791523884135989064e+00
1.000257881215914146e+01,3.734250799329816902e-03,-9.806301924702204076e+00
9.999153099168461623e+00,4.849712019881523620e-05,-9.794302038691263590e+00
9.996062946271569771e+00,2.470001600488231936e-03,-9.800163881597738325e+00
9.993302557037452516e+00,7.498382703877435988e-03,-9.806586047130441131e+00
1.000930921513847061e+01,-6.450305181826716805e-03,-9.781926405963771387e+00
1.000708355317423681e+01,-2.055227084460256246e-03,-9.796848756053204710e+00
1.000059768981449260e+01,2.621580336809626720e-03,-9.813526561889688082e+00
9.997409563887481809e+00,1.151137270806014759e-02,-9.795205865229723585e+00
9.994715877364095391e+00,7.136822910340348373e-03,-9.800556285278464230e+00
1.000784010484633590e+01,-7.331133379469868816e-03,-9.797093882634046125e+00
1.001123519155689934e+01,6.975066756937185058e-03,-9.811130767313255063e+00
9.992949820321085141e+00,3.339133342734745304e-03,-9.800079957327250568e+00
1.000103252262806386e+01,-2.668712564647373296e-03,-9.800618801964780857e+00
1.000768518161043197e+01,-2.703434912411680716e-03,-9.790260976048696051e+00
1.000298070767529879e+01,2.680987088037011835e-03,-9.805051566030082100e+00
1.000251411238881083e+01,-4.490423935098708866e-03,-9.787518181525422634e+00
1.000516783816157407e+01,-1.186986840069584976e-03,-9.803812996781477551e+00
9.995592564519531820e+00,2.245634485950841024e-03,-9.776928280197198617e+00
9.999409705802225545e+00,-3.293518651329088807e-03,-9.794434047878871397e+00
9.995344548756994740e+00,7.410831886184678259e-03,-9.794238914543614172e+00
1.000656207720724744e+01,2.845526482089426670e-03,-9.795234822241043915e+00
9.999157499966623064e+00,-1.019993844257195909e-03,-9.803644464476850118e+00
1.000313469067230976e+01,5.323910632257532194e-03,-9.805820531366780557e+00
9.992945924020272486e+00,9.485352847454607203e-03,-9.787936118884228875e+00
9.991621233124208246e+00,2.304065993862521467e-03,-9.804447960846266241e+00
1.000293166152565938e+01,7.584629631389607982e-03,-9.789087278260650393e+00
9.988445776889488315e+00,8.887402216010718836e-03,-9.783282062745898955e+00
9.995401741700183251e+00,1.019944030995988300e-02,-9.795004098986643370e+00
1.000022769732507477e+01,-3.298252878914879459e-03,-9.778994946386077913e+00
1.000189875422975838e+01,-4.872008133289013228e-03,-9.793491808318931291e+00
1.000178631736825174e+01,-6.616972185394754714e-03,-9.804148101609492016e+00
1.000789092184705531e+01,5.960591499234189038e-03,-9.791210739890017223e+00
9.997259251725225226e+00,4.555258940156761867e-03,-9.793421050806930594e+00
9.998235079248111390e+00,-7.263097802128140427e-03,-9.811730863396617153e+00
9.987674665470025914e+00,-3.670053815542281654e-03,-9.816725499783105491e+00
9.998603582057004502e+00,-2.993947364861004098e-03,-9.808771178858663120e+00
1.000444877184839854e+01,-1.066456381549759497e-02,-9.789334646568921272e+00
1.000363958656444652e+01,-3.525089744656777994e-03,-9.802087489651603036e+00
1.000788277337112753e+01,2.095355933810128315e-03,-9.809747969528851641e+00
1.000595216495689144e+01,9.268120935079379730e-03,-9.783623642395784969e+00
9.996451327112648499e+00,-1.769172681284495244e-03,-9.808284941572365412e+00
9.997716078845579446e+00,4.022525560744993726e-03,-9.792916798849258697e+00
1.000468505117256868e+01,5.039369721440451790e-03,-9.796214885733043332e+00
1.000441686208541014e+01,-1.983398013365748978e-03,-9.807945818248617442e+00
1.000051009171995275e+01,4.396799834140995705e-03,-9.786363108277930323e+00
1.000762437434750041e+01,2.635023447802888313e-03,-9.795753588005016610e+00
1.000364328857825669e+01,-4.692587979600744072e-03,-9.790152311765279336e+00
1.000462405944708344e+01,4.631051770249621641e-03,-9.788179638374320035e+00
9.990330255103282653e+00,-4.988781571563108766e-03,-9.792497644926640987e+00
9.997141686238000702e+00,-4.983036905487305511e-03,-9.802752069848796879e+00
1.000381184691168812e+01,-1.085508897085705527e-04,-9.771820269744273091e+00
1.000466769321297100e+01,-7.784010241643183822e-03,-9.802341202112138774e+00
1.000826437761316079e+01,-3.643687985068701576e-03,-9.798850261900232894e+00
9.998179654916560466e+00,-8.649666962456109900e-03,-9.791820709604204254e+00
1.000079729268241913e+01,3.347972988615786731e-03,-9.795201088018364644e+00
9.998230415493452483e+00,1.000317002347381710e-02,-9.781021530800991570e+00
9.996966045755023345e+00,-6.775420702689926959e-03,-9.803227519519142064e+00
9.996430107561909750e+00,-5.568696532709701587e-03,-9.797903294306504307e+00
9.996156154316929943e+00,-3.809866062582733560e-03,-9.802216359999377460e+00
9.998605226127683210e+00,1.800019539216949228e-03,-9.792706506990899840e+00
1.000570818089505387e+01,2.637557248061965509e-03,-9.810419457309885516e+00
9.992836218190392472e+00,5.321250134833371490e-03,-9.795228718127159340e+00
1.000535900289559521e+01,6.506092392126862876e-03,-9.788577212804714378e+00
1.000536874624186190e+01,-3.836140982585066543e-05,-9.803519041815027535e+00
9.999013256334265520e+00,-1.068575509527096263e-04,-9.801524259171541686e+00
1.000785138905999005e+01,-5.935880665837352417e-03,-9.816869466051276305e+00
9.999630878485222141e+00,-8.438413668482122598e-03,-9.800070445308104894e+00
9.999034252755706120e+00,8.502702569936390620e-03,-9.802182645681220663e+00
9.998054780963760990e+00,-7.132540360312188653e-03,-9.799466509282035886e+00
1.000083047377663270e+01,-6.398804179148936695e-04,-9.806398724016194279e+00
9.994396712394239657e+00,-6.927946348836965321e-03,-9.800675879916454392e+00
9.994723251427144461e+00,-8.033610034091968888e-03,-9.813278582677643413e+00
1.000117926212075581e+01,-5.244355006233675925e-03,-9.796449988002100540e+00
1.000203417792226190e+01,-4.625625447391911241e-03,-9.793649374261885754e+00
1.000685590474988906e+01,1.452821204275784196e-03,-9.790109588052889222e+00
1.000575012158989274e+01,-7.459474574968614179e-03,-9.792777663989047809e+00
9.997084863014077172e+00,4.074415881812361480e-03,-9.781832972991505670e+00
9.996909540658554860e+00,-6.601603346149611737e-03,-9.791535763345187604e+00
1.000412570924740052e+01,4.286837165898110293e-03,-9.802349814267898864e+00
9.998758439425763811e+00,7.963475356999248980e-03,-9.780579256494251084e+00
9.993503466645599076e+00,-4.177851620054911716e-03,-9.786664900174921300e+00
9.994429809644319818e+00,5.899744732341386487e-03,-9.800585256987158544e+00
9.996526652399369439e+00,-5.242512596732923011e-03,-9.787866389885742535e+00
1.000596940454137673e+01,1.299992834590453852e-03,-9.788306319059211447e+00
1.000290512292495748e+01,1.066337772540809463e-02,-9.793209217328229244e+00
1.000289826539995808e+01,-4.984646822719177202e-03,-9.790845002510396355e+00
9.997057270981869692e+00,1.824531962901273152e-03,-9.814692104514980642e+00
1.000338449287559683e+01,-4.762996091177693243e-03,-9.789955628887968331e+00
1.000104099708386407e+01,-5.482928241973969267e-03,-9.788228578074102515e+00
9.997540764109299261e+00,-2.926115333129739363e-04,-9.797238474712138157e+00
9.995771791609843859e+00,1.847535430229441892e-03,-9.784742145001773750e+00
1.000056764930381270e+01,2.821303216465448262e-03,-9.792137506886337661e+00
1.000444196296663613e+01,-4.941607037304189022e-03,-9.790819199846167109e+00
1.000219116049228063e+01,-2.281295849432830956e-03,-9.788357046450880006e+00
1.000466861228557391e+01,-7.795130666173507791e-03,-9.801025328060342545e+00
9.996144491889989325e+00,-1.032198404537837324e-04,-9.801686084806920718e+00
1.000170103970550883e+01,-1.217937706757630818e-03,-9.780252211598087442e+00
9.990555937946595577e+00,-1.121337440000203401e-03,-9.791134909103904604e+00
1.000003598125355886e+01,6.952987246375043080e-04,-9.785543846780056398e+00
9.995556200539725822e+00,2.049928041716573245e-03,-9.803675792802906130e+00
1.000762510866539046e+01,7.355657048438885535e-03,-9.792707833703392595e+00
9.996412314071646321e+00,2.253898107163377837e-03,-9.787961802759232555e+00
9.993388975832449006e+00,2.790902513060285282e-03,-9.785923917532743488e+00
9.994771699025394085e+00,3.852385050653155552e-03,-9.804324391924556181e+00
1.000635693725427622e+01,4.932141334226925779e-03,-9.807884575365706681e+00
9.996073239654194253e+00,9.780443894549923495e-03,-9.794694459980799905e+00
9.991228208044804049e+00,3.277177289909252028e-03,-9.786061414614778187e+00
1.000656045239909098e+01,-8.116129249317068431e-03,-9.798405681171962200e+00
1.000174242966774862e+01,1.521420163407618490e-03,-9.782313317781632378e+00
1.001634491042825026e+01,-4.304100210170489459e-03,-9.800275111798475436e+00
9.996977969664706976e+00,2.786735914496503083e-03,-9.785043312038137486e+00
1.000381869003245683e+01,-5.362205304464674922e-03,-9.790787488617448631e+00
1.000559559608228177e+01,6.686630547370574044e-03,-9.794460898466125442e+00
9.999759326536043602e+00,-4.316261582864995908e-03,-9.799979419584042617e+00
1.000861184610464250e+01,7.533992888822516228e-03,-9.789835814728434116e+00
9.996788924114722974e+00,5.367229173483506477e-03,-9.803510952739223683e+00
9.999287417956331581e+00,-3.204128046672342304e-03,-9.794988157450784882e+00
1.000428038146217347e+01,7.735468499725173253e-03,-9.803697946903382032e+00
9.989520399239967929e+00,1.038040580996180649e-02,-9.798107091364091303e+00
1.000064922449944937e+01,1.626617988557720832e-03,-9.793736952521399530e+00
1.000885562248180527e+01,2.007546293710773394e-03,-9.792906934241985439e+00
9.999737369687162314e+00,1.151423563477388737e-02,-9.807370846639340556e+00
1.000304585641189981e+01,5.475887686122339094e-03,-9.809605674536269859e+00
1.000532853408795475e+01,4.062238173173249312e-03,-9.798466241539427912e+00
9.996964945617055065e+00,6.771388131848755584e-03,-9.797037759791280109e+00
1.001075187203997885e+01,-1.527764628934169750e-03,-9.804408542548312511e+00
1.000240520266228472e+01,-6.740436041458885627e-03,-9.784412857965428145e+00
9.996355643075899522e+00,2.572225373025329841e-03,-9.815051599030731211e+00
9.995903311501807664e+00,-1.170113041823958545e-03,-9.790951035721484175e+00
9.990647637818621973e+00,2.324912806035227004e-03,-9.803139169377722340e+00
1.000413165993802878e+01,3.685321221197554280e-03,-9.795536409554712165e+00
9.994304195446078509e+00,2.725781122646451192e-03,-9.787528512233020450e+00
9.998610407163770475e+00,-2.898964459072459702e-03,-9.795480201565627709e+00
1.000103930203323976e+01,-3.322701079245311655e-03,-9.786712843246249349e+00
9.997405870089178137e+00,5.113970933546682846e-05,-9.791922062595455500e+00
1.000316673442399207e+01,1.059066195293205219e-03,-9.826009696020191697e+00
1.000071727253443044e+01,-4.897962137942292633e-03,-9.792626447391111100e+00
9.994413110450198090e+00,-6.472303708620436198e-03,-9.804450899329257396e+00
1.000462362079086098e+01,-7.008265648783260256e-03,-9.804364767846065476e+00
9.990320720301825830e+00,-8.506225286185432194e-03,-9.787044520292749183e+00
9.995724533855879557e+00,-1.057711125649647151e-04,-9.786060111721489818e+00
1.000029791284603320e+01,1.586733023384032668e-03,-9.797383018956313805e+00
9.990542075120593779e+00,6.871199321180918376e-03,-9.782404879074308113e+00
9.994527764130332059e+00,5.064526512317109493e-03,-9.793737533013995744e+00
1.000458899903693322e+01,7.339304565077745500e-03,-9.801778988117064273e+00
1.000208820840176216e+01,-3.370355277728647164e-03,-9.795611636157985913e+00
1.000579577756399807e+01,6.743528963543334899e-03,-9.807508773320471107e+00
1.000428930686701889e+01,2.731961695804566506e-03,-9.783538321466599186e+00
9.999558785460481047e+00,-9.835974898208200892e-04,-9.779103956019758570e+00
9.987933241833975018e+00,-1.116860619212882953e-02,-9.782868370097968835e+00
1.000123360954138896e+01,-6.469973714630824525e-03,-9.796616189356907256e+00
9.997944856161799621e+00,1.543060265008854449e-03,-9.787097991884143866e+00
9.999834111276229009e+00,-7.008386935418805912e-03,-9.782367661395047875e+00
1.000001996144336935e+01,6.324106805056462811e-03,-9.788180817289694247e+00
9.998221933364819236e+00,-1.254900819432996917e-03,-9.796313049302730391e+00
9.998436360040274806e+00,1.389148695827825035e-03,-9.805775714320036585e+00
1.001083487147172058e+01,9.377215674231279907e-04,-9.788507493227859513e+00
9.995896003863693480e+00,7.449638835626174556e-04,-9.791373975368143689e+00
1.000537967322373234e+01,-9.041669464783271340e-03,-9.788761698578337445e+00
1.000322612901440245e+01,4.314204044571549011e-04,-9.795291930059777386e+00
9.995533132912909124e+00,1.100888583267041650e-02,-9.786807545448155565e+00
1.000275593464650292e+01,3.908975681492528505e-03,-9.797700600132909443e+00
1.000390725276415615e+01,-1.724707355002823815e-03,-9.803208571499272495e+00
9.998512630805377555e+00,-2.132618110927035106e-03,-9.790121433228346604e+00
1.000001691031773099e+01,-6.829965062233139123e-03,-9.794913491778528325e+00
1.000752364422435292e+01,8.839812160047281694e-03,-9.787613295434422156e+00
9.998137695104931666e+00,3.604106141025649208e-03,-9.790893142611455602e+00
1.000258859129611899e+01,2.267325980406193018e-03,-9.769519813055971724e+00
1.000055260702401405e+01,9.167110692917258526e-04,-9.783587597134081548e+00
1.000584901639350477e+01,1.577667792304390110e-03,-9.786969156747661103e+00
9.996489142211697043e+00,-3.965697749704831000e-03,-9.777813449088707642e+00
1.000583533924409352e+01,-3.304808507574462557e-05,-9.810731643730278506e+00
9.997429592195180348e+00,6.500063561842427985e-03,-9.793981176290602164e+00
9.994912369373444960e+00,-2.844001216282397021e-03,-9.794189399030543086e+00
1.000323308946127732e+01,-4.255139386912601147e-04,-9.807419796260091971e+00
1.000591327644211859e+01,-1.077840092266263254e-02,-9.784278517533508079e+00
9.996739573050177796e+00,-6.900128620780673992e-04,-9.777251341551203012e+00
9.998985523218420823e+00,2.205759125939026630e-04,-9.803607976481925945e+00
1.000155302481805286e+01,4.616134568368714108e-03,-9.787634960991953292e+00
1.000363009904631717e+01,-2.538618267485730044e-03,-9.783895446706369015e+00
9.995140699679035734e+00,3.993459853359871792e-04,-9.796335651450442938e+00
9.993895770199049622e+00,-7.278889185530763688e-03,-9.796047581837724394e+00
1.000048598182191562e+01,-2.801528178058025533e-03,-9.780453221670866171e+00
9.999575505693378830e+00,7.555420637877001411e-03,-9.802285599476043387e+00
1.000291251402145143e+01,-2.824125005937617831e-03,-9.786132688659586520e+00
9.994066523386599954e+00,1.279413498330473752e-03,-9.804362588205254525e+00
9.998255011598210729e+00,-2.810908018794340199e-03,-9.779308817679225996e+00
9.996562015869542961e+00,-4.854594696184317930e-03,-9.784119713130483120e+00
9.990216108173525456e+00,1.393346125051065157e-03,-9.797024641130617439e+00
9.997982586642613967e+00,-1.828312986726898662e-03,-9.795691921111643552e+00
9.996433648217882606e+00,-5.132326421271466918e-03,-9.788906775434652374e+00
9.998469312357606498e+00,1.762536166249504058e-03,-9.788361015698830769e+00
9.991594031080968108e+00,5.189684068427266421e-03,-9.797678164719355820e+00
9.997087477622487839e+00,-7.163852269753222647e-04,-9.795015143061943874e+00
9.990957362415183951e+00,-5.110863885122943900e-03,-9.800567975949322275e+00
9.991857214951213706e+00,-5.384291227420153272e-04,-9.800659750588486929e+00
1.000658467797391715e+01,6.301736902965981123e-03,-9.790391405355617138e+00
9.992639410866015481e+00,9.039647579275393542e-04,-9.791508899292869827e+00
9.995022216927051062e+00,4.011646631437112455e-03,-9.815565990798862828e+00
9.999447427563271873e+00,4.632292245735292018e-03,-9.798163779661019035e+00
9.996970605374890795e+00,2.061024792334507309e-03,-9.811903369228216931e+00
9.997737908642660543e+00,3.858699007150117894e-03,-9.785786888775051651e+00
9.996595372584470951e+00,4.738998404485953862e-04,-9.783910393184193310e+00
1.000528803074969098e+01,9.735722508787613208e-03,-9.799076196295978036e+00
9.997431672136968928e+00,-4.553849700104297565e-04,-9.799526710261519113e+00
1.000185515729842400e+01,2.893659361309095304e-03,-9.798274440269773677e+00
9.995311788149990662e+00,-2.749683189908678788e-03,-9.793375417777257397e+00
9.998237155413065125e+00,2.095836668371204962e-03,-9.803701998777313520e+00
1.000720753733986079e+01,7.882964504491442662e-03,-9.795196096039299860e+00
1.000208107452853312e+01,4.577508766855547910e-03,-9.800055531341332227e+00
