gyro_x (deg/s),gyro_y (deg/s),gyro_z (deg/s)
3.145905863769642152e-02,8.907767467349239198e-04,1.446170850501870761e-02
4.910879991372242917e-03,-3.657628600306578326e-02,1.678431858323045298e-02
-9.849298992942588649e-03,3.367327081300583273e-03,-2.960372350215927442e-02
-1.717295753876923320e-02,-7.442107184927459519e-03,-2.246792372218386555e-02
1.975490003885458160e-02,3.224236416827964274e-02,5.183725995944344495e-02
5.583097452325497256e-02,-4.064222631031981503e-02,-5.391379838117803941e-02
1.846635635450891155e-02,1.285614793243663317e-02,1.692834178929044156e-02
-5.790470376991589674e-02,-2.092808163175166256e-02,-6.744498232318624220e-02
3.107478182187348864e-02,-7.418938205435107215e-03,6.216697906943708697e-03
-9.737158355539328111e-03,-4.217903975206779843e-02,5.082391477745713121e-02
3.783366533680842386e-02,-4.879149851388939196e-02,-1.807596862586272057e-02
-5.135338880880897794e-02,-4.458255737865731566e-02,3.397794209557666867e-02
-4.227898660772769213e-02,1.521416570300869117e-02,-6.044668299018943897e-02
4.418381875717919058e-03,3.636836916862205143e-02,-8.044437365581151578e-02
3.265806022762867550e-02,2.189089608290007219e-02,-1.825327983925073214e-02
-3.190750819068628730e-02,4.315711840831461948e-02,-6.629159409196001829e-02
-9.141858312222247984e-02,6.472818662396512268e-02,-5.718684886694405667e-02
4.730008562786013060e-02,1.872387032040175037e-02,2.330999379900844728e-02
-2.419480455462431553e-02,1.541179850793333514e-03,-1.323318538757656607e-02
9.574874123423206913e-04,1.279409103376434945e-02,-1.677889293620640765e-02
-4.015110584442630609e-02,-4.270091704391275333e-02,-2.166337908537786794e-02
3.960904235709928473e-02,5.120898411628081910e-03,4.699463059507586436e-03
-6.849792077083929898e-02,-1.828455370593814328e-02,3.494129241058445412e-02
-3.113612525285579594e-02,2.193293277108215519e-02,-5.602639567584018904e-02
7.081434662248046498e-03,4.051118660475240552e-02,6.904686174367404353e-03
-3.929224794761966566e-02,2.817332593267217467e-02,2.734765350844873405e-02
-5.901817349791727008e-03,-1.543508050014499866e-02,-1.380125978770487460e-03
3.350154743980954253e-02,4.911136003664262617e-02,-4.461448372447472839e-03
1.932720509378071938e-02,-6.924628978722340532e-03,-5.919732536669283784e-02
-5.329365786391323558e-03,-5.108226730397733700e-02,-4.366995325389665811e-02
-7.304602730773991116e-03,1.287476530515557424e-02,1.036172622771172613e-02
-1.938353756056849023e-02,4.984199790533583307e-02,-7.274953689222571351e-02
9.298264204802840494e-02,4.085349305812326082e-02,-5.018823771883722251e-02
3.803920353782801189e-02,1.295708105145807788e-02,-2.860401089997462870e-02
1.057849286214723461e-01,3.244894168971062393e-02,-4.758807806557058956e-02
-1.931270390791332489e-02,-5.440155565559807657e-03,3.067076846056242256e-02
2.790815111605732951e-02,5.806879830206215787e-02,2.762913807050095330e-02
-7.207882666501926050e-02,-2.673630800670372121e-02,4.376636620164480601e-02
-1.358582078303375087e-02,-7.321307247391801998e-02,4.804253579196111207e-02
-2.606706924925995036e-03,-2.827419628500423693e-02,-1.782853460328326931e-03
2.075256069315252125e-02,3.046129657826988912e-02,8.206386291730226323e-02
1.659068738304252111e-02,1.682664414305080902e-02,-3.315677487055354589e-02
1.261030960992587206e-02,-3.954091428540858905e-02,3.549885251626955923e-02
-3.356677944250816611e-03,-4.243413609398617031e-02,-7.587334037626500272e-02
-3.931925396109903909e-02,8.384925942730298010e-02,-5.270101813828105553e-02
1.452170313389141397e-02,-4.484767220461687715e-02,-2.086716046996685975e-02
4.885821933083815335e-03,-1.027467250036794184e-02,1.181762027225762360e-02
-6.215884715822569961e-02,-3.333275006180668604e-02,-7.948300466321790714e-02
6.432083895402037352e-04,-3.239796167341162797e-02,-7.061700255336640641e-02
-6.940522147217451088e-03,1.384564615574551336e-02,5.293524171178456278e-02
-1.222179131609161216e-02,-5.272535763793466390e-02,4.284781728238479248e-02
4.092774561439013747e-02,-1.200857870910699773e-02,1.375151615042010181e-02
3.441522195601259826e-02,-2.754314931765192154e-02,-4.372146826809578807e-02
-6.478441369848884912e-02,-4.264466282027212091e-03,-3.097098740983765877e-02
-8.352386437633665950e-02,1.397257689799033357e-02,8.690679639401184542e-03
8.307370799194699687e-03,-2.552930337140262365e-02,1.063631769651591542e-02
2.807248707892373921e-02,-1.731862789947602108e-02,-6.798559907906472077e-02
6.460644195133857792e-02,3.221035058958582331e-02,-6.615095047394292660e-02
-7.307738561463150706e-02,-1.070288049464229174e-01,-4.796889993029198468e-02
-1.089428693097594866e-02,-2.161875888426061793e-02,5.168115022251234744e-03
-6.219875665998603892e-02,-6.905831743517829024e-02,-1.635498876660099968e-03
2.322962577953354563e-02,1.222720975380327604e-02,-2.267525658453306905e-02
-1.465223561463989757e-02,6.532808154461137995e-02,2.770270797763197540e-02
1.674535058346046310e-02,1.075885847500016902e-02,-5.552862096041077250e-02
8.443346016696957196e-03,1.533629678481083190e-02,-6.006468672252451152e-02
8.507748965717364456e-03,2.503031097252860285e-02,-5.278293158946636109e-03
-3.017350899235465497e-02,-2.588774522243726672e-02,-1.057885030102590461e-02
-3.089145098203833692e-03,-3.578086845710334168e-02,3.602214979815721030e-02
-3.031459224479416195e-02,-5.882025572370665201e-02,-2.613070025586761852e-02
5.822499917854926516e-02,4.456965791413546041e-02,3.892601768253859534e-02
1.309231300810337513e-02,-1.939679846606257377e-02,-5.784065344147742288e-02
-5.656373309559933893e-02,-4.271435321522878970e-02,-5.537780162549015700e-02
-6.074362941694878143e-02,4.519211934899443339e-02,-7.605578196091197958e-03
-5.849539217244431599e-02,4.994069868876995812e-03,-3.430709988716975148e-03
-1.327557186895297718e-02,6.071330514274505402e-02,-7.201657242126777159e-02
-3.898265984057756872e-02,9.874840333286263871e-02,-3.550386924948111672e-02
-4.675855062683171443e-02,-4.210844573635261212e-02,1.585415642292873836e-02
-2.077452149332140174e-02,3.215395238702423858e-02,8.275512375194346570e-02
4.543663393950750362e-02,-2.536934298835215318e-02,1.724362482707583050e-02
-1.337193770499379986e-01,-4.284474383121282537e-02,1.648192292269361550e-02
1.800126891390580255e-03,-3.984770971850321898e-03,1.923941493955471510e-02
2.170359097707069695e-02,2.619923875787291689e-02,-1.010727686225805153e-02
-2.630638576600387909e-03,-9.729224557853997229e-03,3.701423837407693661e-03
1.796002950315126953e-02,-2.314323602991706641e-02,-6.437231180249730622e-02
-3.003640443629913143e-02,-2.652314019781488747e-03,4.662008424578246296e-03
-3.219268592489351460e-02,-3.508400894206339677e-03,4.646458041698840052e-02
-3.359275190518164894e-02,-2.490132741585797047e-02,8.453627590690312998e-02
-1.384338821937634162e-02,1.115952770134659260e-02,-4.463222036002020138e-02
-1.929139724382205462e-02,2.315467889219682829e-02,5.659803242827294439e-03
-4.093314204832308734e-02,-7.691459329498947541e-03,2.818653047700078740e-02
-5.040160763529349247e-02,3.977674473386981491e-02,2.917766808447204430e-02
3.171460253831056425e-02,6.870160714416408132e-03,-3.733137134558583113e-03
1.303466899442867061e-02,9.874500099008921838e-02,-3.986625987338437288e-02
-1.101764032142384109e-02,1.611542451147429320e-02,-3.491492283643386763e-02
-2.894780438340821896e-02,-2.368545772698526803e-03,2.760150609461024807e-02
2.198945624093902318e-02,-8.906546442386045759e-03,-2.674889159974711689e-02
-1.346781786154518023e-03,-4.325071220563087016e-02,-8.866480682367307298e-02
-5.027618290788454097e-02,-1.357679952649209522e-02,-4.852577503787090102e-02
6.358511697695963527e-02,-1.994604617413786238e-02,-2.195375628933590728e-02
-4.531192361866471542e-03,-1.950560386732520801e-02,-8.622932339683203606e-02
1.245581468685902013e-02,-4.482255335011450792e-02,-1.047452976086470089e-02
-1.063981289385226327e-02,-2.084013030911645303e-02,-5.785678087479430298e-02
-8.696552080924335737e-02,6.295160387011854153e-03,2.785476202759731151e-02
-2.870657350376558392e-02,7.114291187698744412e-02,-2.116569560794645099e-03
1.548680216271663621e-02,-1.408087135248298032e-02,-3.727475589148069451e-02
-7.167028413866745329e-02,-2.115457660803772653e-03,-3.400400242379055774e-04
9.112911013129517887e-03,5.821148124596563223e-02,2.877405742719459439e-02
4.262438150697966249e-02,-1.237508958282952480e-02,3.044129889281439391e-02
-2.944232404377794890e-02,-6.561090678360931988e-03,-6.284559689255257708e-02
1.701123457116954230e-02,3.822105468174308296e-02,-4.357770261289920649e-02
4.260255100852940874e-02,3.692772228751813046e-02,-8.341056782956276974e-04
1.060642470482590742e-02,1.734492719198974311e-02,1.357258094377962118e-02
3.359226204114581366e-02,2.562862799644215553e-02,-5.601381123940070428e-02
3.468163806014906529e-03,1.369252732894731504e-02,-6.275153245117812660e-03
-1.818904090544051430e-02,-6.465829951469766190e-02,-3.681997837228003726e-03
9.273930649142733684e-02,-9.860305946093027296e-02,-6.599702026518594437e-03
-2.784979583278600346e-02,5.991943439711883840e-02,-6.095414591122130105e-02
2.646628943566302610e-03,-7.636303417564503475e-03,1.392638183392913218e-02
-9.102054400321714367e-02,-9.183859008195372278e-03,5.093419773963295434e-03
3.201570881026746720e-03,-2.617813214572806482e-02,6.356469057050363573e-03
-4.267603740234318654e-02,-3.065754112622624816e-02,-1.073526917332754023e-02
1.136363515873650004e-02,4.091542496662039369e-02,-2.542212934789852760e-02
6.403125705168898063e-02,2.389394132472435345e-02,5.251615088680473137e-02
7.382135150114835231e-02,-5.267117967165146214e-02,-6.036423320758823458e-02
7.854640581791026352e-03,4.789343524252504848e-03,1.098483922163874353e-02
-7.318837102069345943e-03,-2.937469031454005217e-02,-2.963221502154063033e-02
1.085893566052424479e-02,7.041581571720230415e-02,-4.212601002403267708e-02
-9.699443232584378793e-02,4.744391238684111251e-02,-8.951340621388448326e-02
-3.327450290371793823e-02,3.192097185899561013e-02,-1.926200836575272385e-02
-4.294415000014072115e-02,-2.677406849402822614e-02,1.257390774129572668e-02
3.010743496453757370e-02,-1.302339365938149675e-02,3.558928491582786374e-02
-2.837286997633160432e-02,2.599766549244509565e-03,1.510094002269797651e-03
3.763765014469025449e-02,5.722097158435149322e-02,1.439202409635706795e-02
2.540261700127521838e-02,3.008787226949702354e-02,1.653086318621267703e-02
-1.765825357183197636e-02,-4.572902570133574596e-02,-3.103357892167119426e-03
4.678913039509861871e-02,2.693119721618554910e-02,7.028206469005031376e-02
3.203953868813370215e-02,4.058680529273070436e-02,5.897057622268231554e-03
-1.440700510128443447e-02,-4.357545404898089531e-02,5.996891819593565612e-03
1.052787686000671540e-02,3.127864816382365520e-02,4.681847368066025666e-02
5.067368461474784647e-03,-2.060025624981945414e-02,-1.048406023524862778e-02
4.135003683965939036e-02,-4.927518718573840710e-03,2.007575920599982341e-02
3.552888393053962868e-02,1.682902754156073016e-02,-1.691723192198789014e-02
1.318822081220258173e-02,-4.704541626163179224e-02,-4.096487524570616851e-02
7.614446677037547961e-02,-4.640195232915091811e-02,3.342672221225793938e-02
1.102503256980788965e-01,-4.244778426651900360e-02,3.050744562081613570e-02
-1.343506179084985293e-03,-7.926925570160097117e-04,7.067610066564865290e-02
-1.111158611677820485e-02,-3.766842315647070394e-02,9.444078620993105744e-02
7.885989924779901461e-03,-1.302523258951983516e-02,3.838690496739535774e-02
2.638845420061292080e-02,3.542824485372603888e-02,-4.369583368255421096e-02
1.628854431195600125e-02,1.303183945977350738e-02,-2.059341036447350642e-02
-2.267601459720176155e-02,1.012248288865384704e-02,2.569495248428497330e-02
6.003964051345278552e-02,1.056773537012349953e-02,-9.831015866569422362e-03
4.209901416556671022e-02,7.592606479585142440e-03,1.317720550082064103e-02
6.200564092056484733e-02,-4.569454685647163228e-02,6.717543833658255747e-02
8.008129435982334551e-03,-1.640320893684902095e-02,7.823248414925623034e-03
2.899963006853385067e-02,-5.394711514423200169e-03,2.617648561931567100e-02
1.429544315646346340e-02,7.076200216980464697e-02,3.307306309472157757e-02
7.764059059014086391e-03,4.685698384664456831e-03,8.223070346605961672e-03
2.922804238238560851e-02,6.114956694061952913e-02,-1.670369345039502199e-02
3.502237255170809454e-03,-2.248686952558279217e-02,7.908745998380688202e-02
1.135487623006112105e-02,1.961521597956611060e-02,3.590930566493191756e-03
5.289672129690974750e-02,9.088568665365338861e-02,1.359618932510609987e-02
1.574374921865252797e-02,-1.541753484697559219e-02,4.278981085297681869e-02
-3.094413671170319347e-02,3.703889275135641146e-02,1.139795781690042253e-01
2.041716602571238409e-02,2.455374649184345615e-02,3.226132088916396079e-02
6.628215515944693888e-03,-1.753860232228944506e-03,-1.290101903943187758e-02
4.010466421120231426e-03,-1.274153689119830561e-02,-2.092146108405470301e-02
2.352953589910598484e-02,2.055248518605483007e-02,6.140698960148011781e-02
-1.486428828167032923e-03,2.140982740564830594e-02,-3.432227831903613205e-03
1.118922962212981764e-01,-1.529538301360467041e-02,5.503734555504837672e-02
1.861529926413699187e-02,-2.047352815958192879e-02,3.075478578336329413e-02
8.226552893728578814e-03,2.195214650194104999e-02,-3.292226129702679333e-02
-1.234640980851045219e-02,-1.377919272836392213e-02,-3.200088300452965523e-02
-3.839724900551696324e-02,3.310300529016996229e-02,-1.929832061682026229e-02
6.251373891120509153e-03,-3.415426851616218396e-02,2.777602633091946077e-02
1.564841209424740198e-02,-2.326984878157451267e-02,-2.595204538356598797e-02
2.161253353371928726e-02,-1.030525028712328400e-01,8.473808114017407356e-02
8.778191564521607487e-04,3.380748739456877761e-02,3.814735980308797680e-02
-5.444357456074059957e-03,6.517493047933332895e-02,8.347190707327553291e-03
1.315852994020883480e-02,-9.661389526987629317e-02,2.434416376179240112e-03
1.374388090921551710e-02,2.067955153684592623e-02,6.722840678888666877e-02
-2.500210021330408552e-02,3.629429237179900014e-02,3.631871110559747873e-02
3.136533027201720419e-03,-1.980620012591913920e-02,-6.007593366535699669e-03
3.772113463697358837e-02,5.260957949174822901e-02,1.265249462146158209e-02
-4.310666843744220128e-02,-1.064702345663569132e-02,-3.329814191883529589e-02
3.333828363755363990e-03,2.857695405352296547e-02,-6.055058701234248934e-03
7.431649067379408891e-02,-7.207159571563391542e-02,2.658415294079628788e-02
3.403311006705656439e-03,-1.570973616461433450e-02,1.010604655205205871e-01
5.612729462861313495e-02,-5.034583065860704504e-02,2.009897214961666595e-02
-3.011451731282152947e-02,3.175482298909897833e-02,-1.204726388246015259e-02
-1.349068769580653686e-02,-5.599590110356110484e-02,5.871813040677080486e-02
3.196233234187016020e-02,5.246718565926612905e-03,3.504021673613757354e-02
7.128608101895200777e-02,1.008216699037719905e-01,1.872651035796138452e-02
-2.240527696343602021e-02,-1.684936376129016547e-02,-1.647319993098681629e-02
-9.888930366159971036e-03,3.725196180235654936e-02,-5.401116033569082486e-02
-1.746922094287511190e-02,2.428250743032353554e-02,-8.082362529759322400e-03
-2.920956593787833039e-02,-5.126734981178823758e-02,1.695806085406099950e-02
-5.038977740060360949e-02,3.725766065043964459e-02,-3.878473687384181856e-02
-2.130349397654326959e-02,3.920183641095754262e-02,-2.126077397482343569e-03
-2.197628802945416834e-02,-4.056984609089216154e-02,-1.266316243735768517e-02
-4.221397344408839292e-02,-6.630469866972595223e-03,-8.995509824793312265e-03
-3.817081879383180110e-02,-3.694804746612514318e-02,-4.118054720099048605e-02
-4.653648989850365440e-04,8.015381334694746118e-02,-3.790488878003676204e-02
-7.309055245607300189e-02,-2.939534193748261776e-02,1.151392003716846663e-02
-3.524738229689024227e-02,8.932332914215483644e-02,-4.974123771952041351e-04
-2.097744071183561473e-02,1.753974937102930134e-03,1.742448331045488852e-02
3.341233514903522474e-03,-2.521166711763900021e-04,-9.206224525411319318e-03
2.400596809262202716e-02,7.879326726805023148e-03,1.874284712527578972e-02
-2.038316217314094930e-02,5.094737130768187822e-02,-1.367102850035618097e-03
-3.803389943412599505e-02,-1.585624374901969946e-02,2.273368295089131866e-02
-2.479990485061954117e-02,2.181902684560679730e-03,-8.311877621356277002e-02
-3.837900287180188996e-02,1.682024711425179897e-02,-6.384981787090845962e-02
-5.752430478044715662e-02,-3.371706753064119405e-02,-1.612384716254797873e-02
-2.571867957129340271e-02,3.263898683998182892e-02,-5.176348402377145552e-02
7.025629682889150684e-02,-1.326476773160237092e-02,2.071182477056704874e-03
8.379893557929066206e-02,-7.379359197325007294e-03,-1.330824854245918126e-03
5.250782051526917821e-02,-6.836722636041324408e-02,1.478201228759101760e-02
-3.858324176607531852e-02,-1.831451813459449018e-02,3.512357859572134977e-02
-9.100236814745776837e-02,4.201370634330021080e-03,6.299836716799032954e-02
-5.186398091286439221e-02,2.290378078881627477e-02,-5.814878879283754201e-03
-3.299349930600715269e-02,-2.649728684114765337e-02,5.782874505708072987e-02
-1.394172499168626692e-02,4.124736249112811309e-02,7.454970418590592743e-03
4.128592124972861599e-02,3.156653964068938112e-02,-7.061134693422833897e-02
-5.541738534241684444e-02,6.900696904429169665e-02,-9.481310315593032348e-03
-3.484158353983118905e-02,2.241121686770472174e-02,-5.551111039957491722e-02
-8.820480343399786372e-03,-6.013782550915767328e-02,-3.130377442090071655e-02
-1.854534138428730328e-02,1.123380036637760572e-02,-5.265487181296903824e-03
6.508491000831380380e-02,4.459235278648518430e-02,-2.697695994278818260e-02
-1.870021856500784715e-02,-4.530231871250392506e-02,1.164881803123093626e-02
-7.978118713014256680e-02,-7.547597131605844785e-03,7.417856130904051937e-02
5.312007529271090683e-02,5.163164885483823713e-02,6.144069831400003623e-02
3.783263715204602390e-02,-6.917841151019141210e-02,4.535994158097027273e-02
4.877875031366937092e-02,1.162791111838541204e-02,7.756567016914817092e-02
1.019350118071545366e-02,6.715012562131796037e-02,-1.785933634428089542e-02
1.259850226893442955e-02,-5.331928918537626183e-02,1.335870232188707610e-02
-7.933426202622221451e-03,-2.109923312869016465e-02,-5.032256681983301137e-03
1.612893010492095699e-02,1.341031248316109227e-04,-4.465454551773160446e-02
2.524835272142053610e-02,4.626682670486845922e-02,-2.256074809510100893e-02
4.574731019752999173e-02,2.367166023779161341e-03,7.051632152594182468e-03
3.675774089755469431e-02,-6.739779050366631608e-02,5.084863373421848187e-02
-1.877584924140515352e-02,3.522784563643242828e-02,-2.210525066247015155e-02
3.961755741707231881e-02,-6.838446860809650751e-02,-6.130823787660377028e-02
-2.324872139847623462e-03,3.040004141858146727e-02,2.372289749085766675e-02
2.339461053266217970e-03,2.891242505718920677e-02,-5.479559502845440799e-02
-3.202556075295560911e-02,-3.346842960103734582e-02,5.102864015626595862e-02
2.190146784290756751e-02,5.545777498754871082e-02,-2.928975331275649602e-02
-2.087368401768301129e-02,8.007744724249480500e-03,3.847160675663732071e-03
-8.968012138955712420e-02,-1.133049677692921087e-01,-4.672686085479251655e-02
1.037952073597319703e-02,-8.064815012483901591e-02,-1.450848135341707527e-02
4.726331663698256358e-03,1.002812440167663299e-01,3.011302781240123017e-02
-3.274126050218732070e-02,5.536576525768222880e-03,4.804866999927508500e-03
4.430513730624724422e-02,2.757088882175560626e-02,5.331623955875424564e-02
4.906787283701949387e-02,-1.335024840421963725e-02,3.494037117506091500e-02
6.474230714509153321e-03,-3.054139651775461539e-02,4.049262889214083616e-02
1.840437651233872360e-02,-3.445603110539807723e-02,-2.155788921203533395e-02
2.467064695659696230e-02,1.869741595308720139e-02,4.844501787162541068e-03
-3.569544144925027723e-03,9.542672442447332204e-02,-1.782695878283206345e-02
-3.639173540673008161e-02,-1.898758131251006981e-02,4.853489173564547871e-02
6.844218563493653651e-02,1.667642659753112641e-02,-5.702647999678911450e-02
3.413700564065473564e-02,3.319636046267804286e-02,-4.715972613155666043e-02
5.495932305461195821e-02,4.883868228946767337e-02,3.440442601940413032e-03
-5.232620290397606289e-02,9.426679663459373859e-02,6.126846363967778687e-03
-5.464157656539368052e-02,2.573042119380191273e-03,4.288977342257333653e-02
2.774999883687567434e-02,1.025349847169937725e-02,3.101464144743764847e-02
-5.976709893631870080e-02,-3.980195439818921127e-02,-7.013508859745187785e-02
-4.567327183180537598e-02,-4.309409661679693831e-02,5.803080226097875882e-02
-5.685081033776880760e-02,1.193494256612185646e-02,3.512648737081322525e-02
-8.098853424140180918e-03,2.850425167858413808e-02,2.167970132181820664e-02
-2.503630392568840721e-02,-3.134479069557591369e-02,-9.309266191786185959e-03
-4.052986683675526697e-02,-1.406231414043995764e-02,2.754784839964234330e-02
4.234013403554157118e-03,-2.714695916034576967e-02,1.872609343275146235e-02
-4.914535118227303422e-04,7.088414381393860764e-02,-6.640513332745101235e-04
8.071359643396178174e-02,-2.359840416183184644e-02,6.562819448150632173e-02
1.937698658079165318e-02,4.119185262326488517e-02,1.583261266047704743e-02
-1.648894092212736459e-02,-6.715071372597997135e-02,1.806832191513489672e-02
1.847391239210227631e-02,-4.151688656576416059e-02,2.964824330041198816e-03
-3.294735129426831256e-03,9.647463577669697019e-03,2.303604382490054628e-02
1.630972563009884871e-02,4.329959875538680336e-02,7.696984219102667030e-03
-1.853253253605803693e-03,3.088682914801892804e-02,3.866779118611923111e-02
-2.946449001440679463e-03,3.568212481879938502e-02,-6.545575826816539544e-02
3.863155807841466959e-03,-4.734138178785287504e-02,5.970967691436378927e-02
-5.894750712672972535e-03,-9.097775635623023271e-02,4.311595623725821003e-02
-1.888352948302766607e-02,-6.478227509127643070e-04,6.350307180022705944e-02
5.075748198828801232e-03,8.683024278497580850e-02,-2.794957697718972525e-02
-5.539706900092867398e-02,-6.447711765968922037e-03,-1.051746450788286318e-02
5.710186880812380406e-02,7.658554165628944643e-02,3.264890740766578179e-03
4.550711247941815335e-02,2.216911462641565911e-02,1.341626471965779062e-02
4.424059175470017140e-03,-2.279605699390672285e-02,-4.525399197884040492e-02
-5.390329828354010339e-02,-3.901956664287953985e-02,8.570005253736219866e-03
9.566970044502659531e-03,5.366931745929049563e-03,5.830601026382466190e-02
-8.245442605895682286e-02,2.660426559394475296e-02,-7.109797461418268516e-02
1.707350396011628191e-02,-2.460899662596414614e-02,4.829241039243557798e-02
-1.897067520763886725e-02,-1.875428316641395213e-02,-8.117762692675591085e-03
2.390783235626913958e-02,8.238010736015431365e-03,3.190777723895041329e-02
-1.739083235127929575e-02,-4.013743536943156082e-02,3.438437181808999543e-02
3.798663893980855355e-02,4.086706863310927279e-02,1.643259917743188081e-02
-7.827079044134217789e-02,1.136444177937730214e-03,-8.621386187626808167e-03
4.445528304308900280e-02,-1.729715912396576072e-02,-3.624636182486089264e-02
2.160950914814861734e-02,4.372070229267087382e-02,2.208684525403447479e-02
-4.898603510937594996e-02,7.789223168616751791e-02,-2.695803014241705126e-02
-5.780452375739529927e-03,-7.698002683885823982e-02,7.196977962522554950e-02
4.054042074039465593e-02,-3.096339292175988647e-02,4.083449120926199022e-02
1.045754817479689902e-01,-2.331578123895006877e-02,-1.441166908086002462e-03
-2.924215354473923278e-02,-3.189009906041078563e-02,-2.638144069893809396e-02
6.382339117077656665e-02,-8.571026205498715952e-03,3.531288143015177960e-02
-8.294209785614849520e-03,-1.785208528811960300e-03,2.282226323261567560e-02
3.331427974858056085e-02,3.450471550799343035e-02,-5.642983953032057465e-02
4.398604013336693958e-02,1.909505836783564198e-02,-6.235273363235312866e-02
-4.364366545801160943e-03,5.006218363344500100e-03,-1.228495284675941782e-02
-3.433112717129208763e-02,2.408022609997743577e-02,3.375911662348312497e-02
-2.816669598329821222e-02,5.303078704644379436e-03,6.454303838475430356e-03
4.956318492605067683e-02,-5.760471865276343972e-02,-6.100490448380998382e-02
-2.249035807531003794e-02,-1.717596055268319141e-02,8.342452137896990902e-03
-6.063591417719943477e-02,2.694238860447099176e-02,1.909197842751161455e-03
3.821410586610578947e-02,-3.599134405995282893e-02,4.215175305948769269e-02
-1.645027481666857389e-02,3.169920039783834936e-02,-5.061673555085813986e-02
-7.220489665571608318e-02,1.975668979164399430e-02,1.011663923889451547e-02
3.063410475061344174e-02,4.998448697527890783e-02,6.170578908758836412e-02
4.427210909950213269e-02,2.406119157590578747e-02,4.778680082449174651e-03
-5.255663528762048731e-02,-7.743157502219556731e-02,-4.702859229507300523e-03
7.645439925513580759e-02,4.632638296145756562e-02,3.033578839649040196e-02
5.208887837525356945e-03,-2.970654859182728785e-02,1.204396322177061877e-03
-1.399230223442182036e-02,-4.954684336535468761e-03,1.577805652901030642e-02
1.770253755266297524e-02,1.617586692678287669e-02,6.109858367926663224e-03
-2.340508599938917814e-02,-1.684368864173862654e-02,-2.473624846652702422e-02
-9.167700012876341467e-03,2.054683749811742066e-02,3.625782779968021036e-02
5.569559392280066905e-03,-1.264812372452505870e-02,5.574288495159236689e-02
8.743242284846500234e-02,5.631611669858044289e-02,-5.712211126654022364e-02
-3.457480518937542519e-02,7.638832393093379809e-03,-5.793801728367973039e-03
-2.001877803399299688e-02,5.729991538301180964e-02,-3.792724733249188285e-03
2.269521447725793284e-02,-1.173982243100665096e-02,-4.929619312289905408e-03
-6.449971928477615628e-03,-3.154730312659530245e-02,6.832172686325443597e-03
2.874621505566487753e-02,9.703186107471162281e-02,-2.385531805477640946e-02
-1.419030792101129944e-02,9.088370928627294287e-02,-7.737896029750519072e-03
-2.128486396034830544e-02,-4.261396279227123995e-02,1.747545201022666916e-02
8.119816347190317307e-02,-2.670079637357165164e-02,-6.312270901903086970e-03
-5.702271413130838990e-02,2.109521860601912963e-02,-1.837592323740313421e-02
4.566304385645630209e-03,-3.977478041830855189e-03,-1.568819477515528624e-02
7.689951928050044183e-02,-1.052237736085587586e-02,-5.081496644871327101e-02
-6.017592062490215860e-02,-2.724727846093230599e-02,-1.850565264114652914e-02
-6.273348020539408487e-02,-2.569274091774089580e-02,-2.529811718193116996e-02
7.783903719094605045e-02,-3.591512676433095130e-02,-2.301623102179242014e-02
4.615066073731279028e-03,3.207163522729633565e-02,2.619510727196338457e-02
3.986625179274180288e-03,4.172680367986231903e-02,-3.442839250140624502e-02
2.167562342167136686e-03,-2.866116246166191400e-02,-4.980704767041158054e-02
-8.788172880154829225e-02,-6.533378880947464384e-02,4.563782167034913240e-02
2.263343162845078693e-02,6.456395145987346706e-02,-6.079938389553595120e-03
5.056553004026562853e-02,9.878995606074053581e-03,4.830634416544922483e-02
6.961321462266954752e-02,5.271046585190064526e-02,2.879159962096137365e-02
2.410243451339235884e-02,2.210478328359969952e-03,-1.026879433980740740e-02
2.177878873845994975e-03,-3.032800004382559672e-02,-8.940348675891995889e-03
-1.795364988301675208e-02,-2.065780776766389451e-02,-6.897890215183609397e-02
4.708269356452669807e-02,6.941349531663192941e-03,-3.836110845020049981e-02
6.100010223215721755e-02,6.633482528515748100e-02,-8.544404626101521558e-03
3.076083605735402404e-02,-2.837038522420788286e-02,1.432692561278074532e-02
5.202502373383590534e-02,-3.787378401307452125e-02,7.722338015983455650e-02
-4.635800203693378821e-03,5.443376360212626858e-02,2.137805048330053068e-02
-1.484698136706974481e-02,3.892935032079312963e-02,3.216292382983204634e-02
-5.735342839858170033e-02,1.846684492022918414e-02,-3.458073610937110326e-02
1.077631402588745575e-02,-5.844350541792789344e-03,2.837156622593132310e-02
-1.449580214931153743e-02,2.247594301458398849e-02,-8.663471023044754318e-03
2.482629706418932811e-02,-2.463374553330151956e-02,-1.637412689069973545e-02
3.159364083141645053e-03,6.994196858012421969e-02,1.291349366799041630e-02
1.553978319907989118e-03,6.798080486486302032e-02,-3.750391615359562059e-02
-2.547209335276539796e-02,5.641487389316066775e-02,-3.713812766142522009e-02
-8.603403187213742864e-02,8.317200952906292355e-03,-1.965869896437604653e-02
5.704843589129777320e-03,2.861136073059000751e-02,-5.930452045455929938e-02
-3.264706024471254481e-03,-2.769254872345341262e-02,1.898130191605900546e-02
5.906542910826027143e-02,-2.983124723775767637e-02,-2.099580454420846634e-02
-1.322130692760044302e-02,-4.608371923828206984e-02,2.989262340875716364e-02
1.759378164491962049e-02,-2.640168371699370617e-02,-3.887266495252034854e-02
-2.858272815664338745e-02,5.637616780814972556e-02,6.122874733597782893e-02
-6.247014918878014689e-02,7.547155184524798055e-03,-1.432444561354246672e-02
-5.713230725242023772e-02,-9.159368610707712896e-03,-7.244078791846084164e-02
1.563944311548240082e-02,-7.108693398988794043e-02,3.503543754199874710e-02
9.188072713315059703e-02,-4.556372674921103233e-02,1.955915856620187021e-02
-2.945650281991602989e-02,3.548890330411627603e-02,-2.761668146720287764e-02
2.182376201096282789e-02,6.053168209207980197e-03,3.414195356588550084e-02
3.583020268227951697e-03,1.863739656375217393e-02,9.146365179045995095e-03
-2.035709759692404253e-02,1.348009894055952592e-03,4.043090952177544328e-02
6.608889829829751872e-02,-6.702974427157412304e-03,-8.035549474872201448e-02
-2.326413592183088422e-02,6.173124134577986921e-02,4.396920705735610918e-02
-4.364199660595385194e-02,3.835639346563001623e-02,-3.487136315687697219e-02
-3.034066191130410997e-02,1.121219439751415872e-02,-1.259953823290615831e-02
-2.821084167874611526e-02,-2.890755306691402890e-02,5.154724114788394873e-02
4.443116465369262302e-02,1.129517815624693326e-02,-1.229889060686325045e-02
1.310009077337266278e-02,1.693371518308263088e-02,1.165831319225501261e-01
2.886752877836734274e-02,8.736014167343651368e-03,5.838471401082948736e-02
4.626661416981022595e-02,-8.875127368520224769e-03,-2.458082366763112564e-02
-7.294653065132558969e-03,4.968952051957622670e-03,3.816712656131356074e-02
-3.472280669820428101e-02,6.191966601327087566e-02,3.639998335171331506e-02
-5.625893694084278113e-02,-2.671485698781239995e-02,7.561141858288743245e-02
3.863680554137953471e-02,-1.419781288920998231e-02,3.267078278417880066e-02
-1.527951432327333443e-02,2.859254955302874962e-02,-5.534374414861763757e-03
3.945415013588699643e-02,-1.913709090175855915e-02,7.383287230157248825e-04
-3.722878895057608190e-02,8.115915301391166126e-02,8.435620549703497228e-02
5.292877697666223402e-02,2.900135474470811464e-02,3.834573200715880870e-02
3.625658371358322224e-02,3.319789919982926718e-02,-1.186012198770796111e-01
-2.127064217377537536e-02,1.046227791443410660e-01,5.929379262323238031e-03
9.840581355588599866e-02,-3.384425853132159902e-03,3.048576325695618802e-02
7.699281125571100226e-02,6.514201637592666010e-03,-3.906749036539811093e-02
-4.263293964661334784e-02,-3.641325343620275407e-02,1.157811243945476923e-02
-4.238275869647314259e-02,3.442574703166027122e-02,3.819906168790980407e-03
4.438463039797133775e-02,-5.729608587373976464e-02,5.893841758088448624e-02
3.544393621897033719e-02,-6.171791095591064313e-02,3.092505525219408150e-02
3.531119885650567392e-02,5.399230203366467418e-02,-2.227281396176736261e-02
2.028777665525346996e-02,6.177757502243180071e-02,4.342459531764215896e-02
-4.984334301059586275e-02,-2.793883309214352517e-02,5.005991100109359604e-03
-3.183400914763909878e-02,-5.950553919224971233e-02,1.603583628101627398e-02
-4.945523940924913264e-02,4.859571976681993123e-03,3.124772199170547382e-02
-2.301518444495981655e-02,2.819229624240813734e-02,9.104337741060224143e-02
2.102084079942110467e-02,7.392021952206917490e-02,5.693433579097757768e-02
-2.634034555327298757e-02,9.062013991315859274e-02,-2.907500128395078612e-02
2.772658275842319886e-02,-9.280970810778605209e-03,-7.732157347431756894e-03
-2.644304438975893234e-02,-1.238220787664877712e-02,5.295795541181252952e-02
-1.697106265853123505e-02,4.342577327011205683e-03,2.990476617047406818e-02
-1.087695444862634558e-02,2.970533924563365132e-03,7.396110076436773761e-02
-3.584089654365323757e-02,2.191096742439798545e-02,-5.322235849728207402e-02
-1.769758987138291863e-03,1.304859373488936360e-02,-7.121964710929537534e-02
-1.707653263384894052e-02,2.490374803023028341e-03,-3.264108713083990060e-02
-3.168911746066738894e-02,-7.986023219174652465e-03,-7.298196232417138163e-02
-7.911147749262020801e-02,1.465349300736869774e-02,3.687292694879906740e-02
4.301648362643004098e-02,3.148472683383294474e-02,-1.449483281864148015e-02
1.146863780342953498e-02,-5.937188742241798073e-02,4.916614252234910443e-02
1.656738679506756379e-02,-2.637731533777141341e-03,4.548458064179828481e-02
-8.770701319020510200e-03,-7.199364750003568736e-02,1.022151920737338245e-02
-4.910719932841231365e-03,-3.410582630607313093e-02,3.246407118486137333e-02
-8.447915108300575390e-03,4.020910646332108429e-02,6.128117056600120016e-02
7.383237242039375481e-02,-5.318652643429505611e-02,1.500290395423964883e-03
-2.356308620252981628e-02,-2.175752360014431008e-02,1.259563222085720822e-02
-3.771785117113864161e-02,-1.827126371093854354e-02,8.163919938051677951e-04
7.584079905832210103e-03,-3.242019192584153636e-02,3.528209728824178298e-02
-2.687756752903231947e-02,1.102920126194459338e-02,-7.035226267353346385e-02
-1.123256784978468419e-02,-7.814250209229640920e-02,-3.095589916048760784e-02
2.047483869731567263e-02,-1.909175854087160132e-02,9.914620448066178635e-03
5.620269823130245174e-02,2.081256451235771743e-02,-3.334653360996870514e-02
-7.151478416979793751e-02,-3.289715381599114113e-02,2.198301731502930526e-02
4.642773239926564939e-03,2.104282301276971801e-02,-2.978324386566471790e-02
-1.484721829049696733e-02,-4.580443919563044475e-02,6.971691594185427943e-02
-1.657090626925160348e-02,-2.703162739317549815e-02,-2.431450545465403679e-02
-4.308664716877490773e-03,-3.995184859041394504e-02,1.224378292687190450e-01
3.006671833820083461e-02,-2.603145701899452907e-02,-1.963518971443379418e-02
-1.143636721810327300e-01,-3.934096283975712835e-04,-2.978308860635557869e-03
-2.179774107693577614e-02,4.575822608603406089e-02,3.282257696857202728e-02
-2.092075129076119075e-02,2.302487856451871512e-02,-3.720185873386189918e-02
-5.211020850263118481e-02,4.719432810289442282e-02,1.010434090523786542e-02
7.325714965435682624e-02,-2.069406444187280730e-02,-1.555168720834556803e-02
4.310810666314163209e-02,3.614521563275039338e-03,5.142955114320157950e-02
1.091504038843953486e-02,-5.574796490902434593e-02,-3.408535168453189629e-02
3.485948310929211369e-02,1.976816587889795168e-02,2.887889783848287401e-02
1.447166549756491796e-02,4.411813563820359690e-02,1.936012178241420037e-02
-2.028325087871580071e-02,7.074946214417662804e-02,2.053207507654190422e-03
5.483365365532742036e-02,-3.394533672318586492e-02,-5.100237736384796543e-03
7.230252453427675474e-02,2.102377131856123654e-02,4.186141628075028959e-02
4.605190650094588556e-02,-1.882391569712835307e-04,-3.268212576409976894e-02
4.280396921484181522e-02,2.528754016107956706e-02,9.489483121984117198e-03
9.928758344187922288e-03,-3.860072976776039722e-02,9.589328089802794802e-03
-2.021460086553928184e-02,-2.761126180593881374e-02,4.161434376984963351e-02
1.595518042630212838e-02,4.961227912045917260e-02,2.407517706522230641e-02
3.651609455226738354e-02,-2.175590934602746052e-02,9.323930637938087143e-03
4.254560622204823367e-03,1.336073223560424114e-02,5.533292859272621184e-02
2.113478378791551829e-02,-2.964448315505712958e-02,2.352608878584207600e-02
-1.211288645710652777e-02,4.403376440240411999e-02,-1.022691635567961610e-01
7.641734072197604866e-02,-4.916685770056291455e-02,-1.630338276026351355e-02
-1.519106003288209043e-02,-6.419843284050011367e-02,4.695714745475342705e-02
-4.239601423888615661e-02,-1.148909058416022061e-01,-2.220931129507616210e-03
3.407101805412720424e-02,-5.131225627928130695e-02,2.377142039412307589e-02
-3.391939494499727342e-02,-9.028666642089896305e-03,2.503446686549749486e-02
5.489465779150495828e-02,6.325682076846722568e-03,3.369031187145684475e-02
6.873431797204215994e-03,8.144014751888533840e-03,-4.040942516762916631e-02
2.390415545315925649e-02,2.781521658877496306e-02,6.648829897123432163e-03
9.905173725287806999e-03,-5.155924969545488262e-02,-5.165763310201834657e-02
5.549240793535611255e-02,-6.009986606030412633e-03,-2.960926372077945026e-02
-4.299646921331583271e-02,5.737730837505406606e-02,-3.094007092497827807e-02
-5.116061673445677915e-02,-2.052106987563440121e-02,4.284185923643905880e-02
-1.852615803286643964e-02,-1.432768982884116866e-02,3.393398172668130042e-02
-5.426996240816361894e-02,7.618744852373846195e-03,-2.657455196919490323e-02
-9.191373343854437189e-03,2.740893960757410236e-02,-3.959853409198497293e-02
2.622828499606239330e-02,-6.314008046584743128e-02,-3.618252171109082385e-03
8.332867239670962642e-03,-5.631944082913633437e-02,-3.646794173149050296e-03
-1.978850166393144108e-02,2.411319847329144658e-02,-7.389669918451934050e-02
-2.550441931206786847e-02,3.551331376701524767e-02,8.383033134251198504e-02
-1.676624728147883131e-02,-2.877092422453170900e-02,1.999066657751298604e-03
5.577028378640926792e-02,2.650063235899480577e-02,1.593114660047880229e-02
1.135725600830909121e-01,8.231449339730502468e-02,-3.787875443537666587e-02
-2.826213174500119898e-02,1.882184569874369162e-02,4.794831851615181939e-02
4.008790176978187236e-02,5.323372273378884634e-02,2.751361105015274686e-02
1.567873254528311111e-02,4.331369876831145382e-02,3.051644393529024529e-02
-2.014414260133709500e-02,3.202291945876776375e-02,-6.055731814567019700e-02
5.746002710457322887e-02,-1.399944953695265483e-02,-9.815096319417097523e-03
-8.177490934779778472e-04,4.093145488092706646e-02,5.269589221817788660e-02
1.491045509367522164e-02,5.118557276303250386e-03,-5.644225838740717614e-03
-3.157208210413638139e-02,2.826433661030052988e-02,6.141363200006512424e-02
-4.628135705228381830e-02,-3.343894395869058400e-02,6.650132738317406089e-02
-8.235762446703720485e-02,4.995091140847962574e-02,-5.086267973331026759e-02
-8.032465419803902495e-03,-6.556289702153789839e-03,-2.970741570558617373e-02
2.276954045103059612e-02,-1.255448658076270020e-02,-5.463768116203340797e-02
-5.221579464544023191e-02,2.701088623659069626e-02,-2.892894230374149465e-03
-2.226552545346122125e-02,4.943613110271785627e-02,7.192821806412756647e-02
-4.421809742776521696e-02,4.909868362344235043e-02,-8.413472426158722858e-03
1.947325482301372548e-02,-8.571001264591582985e-03,1.264073226130478164e-02
-3.679586770031641890e-02,-6.206503072736180293e-02,1.442210937300701656e-02
5.588117465728745931e-02,3.513561137338279405e-02,-6.738872230420862863e-02
4.692914536827350741e-02,2.255343646233542998e-02,3.723381952181026300e-02
-3.808518364436111470e-02,9.062591512395672122e-02,-2.823964348991810785e-02
6.253134000681272175e-02,4.849016143341319113e-03,8.575642818758194563e-03
3.184141077405819309e-02,2.231882697288198325e-02,-3.647689562783441777e-03
1.646151009608228660e-02,6.930042590582490003e-02,-6.644386285995823593e-02
-2.437228303995492631e-02,4.054180751976367569e-02,-7.139131157726708032e-02
-4.866133476093496141e-02,-4.051100581635844883e-02,3.826016509799246446e-03
3.167482915265571602e-02,-8.783489212405148905e-02,-1.829456315574170058e-02
-3.488624209520512637e-02,-5.062678503413667319e-02,-3.782112609766571931e-02
-2.655660726150958773e-02,3.030697873637070230e-02,-6.490961270022624352e-02
3.589034388074252048e-03,6.673791505560852655e-02,1.989265432935323832e-02
5.475440173752184336e-02,-4.900777503918428424e-02,2.421878442299594397e-02
4.877355958451660284e-02,-1.852636191980296110e-02,5.558699020451553924e-02
-2.217060911517288249e-02,2.313131251056800217e-02,5.504750142025057608e-02
2.253604826707457896e-03,5.805805373750110715e-02,-4.732146703839948398e-02
4.635936271303105899e-02,-7.879380267626027307e-03,8.513465451477920942e-02
-3.330739307276365385e-02,-6.793303021165951472e-02,4.317693698515583794e-02
-7.263408092895473622e-02,-5.572124157076478734e-02,2.595036487670824080e-02
-3.674215740207988079e-02,-1.401816796582425542e-02,6.883750538994594381e-02
-4.412848124705157776e-02,2.513801623955201625e-02,-4.477441045581760648e-02
-4.149185047360529760e-02,2.965753498981899688e-02,2.352310580635103010e-02
2.359730378678221580e-02,9.803340226218931752e-02,6.263066904455225417e-03
4.551067254846188209e-02,3.867256394745906267e-02,-7.604854927075613627e-03
-8.232601957209959020e-02,4.575040374256750253e-02,4.302001810206337873e-02
-5.516318842339252432e-02,-7.670421334405985725e-02,9.790748458724919320e-03
-1.502754009476945166e-02,-1.422844372733498295e-03,-4.839894777572342072e-02
-1.179252587835444592e-03,9.767054568598348974e-02,1.162230464220836892e-03
1.792157927601508794e-03,3.502774858748743808e-02,-2.875721553749707379e-02
-1.844768182223465260e-04,4.255682882564685438e-02,8.144830803783538464e-03
1.054647191218962415e-02,-6.801282346020966207e-02,2.709193438839302068e-02
-6.459765025850141597e-03,-6.431217444234912928e-02,-5.478805407141944944e-02
4.008512741504072219e-02,1.170033651356370760e-02,3.866528107391561248e-02
1.571436139200647897e-02,-6.717590916150143442e-03,5.619469611596974307e-02
2.872568055788801700e-02,1.402715809028403163e-02,3.559723033941868814e-02
-1.331031009688735806e-02,-7.868421248653285904e-02,6.660464672145233189e-02
5.863635211506213613e-02,-1.186987326003536430e-02,3.520211707214730007e-02
2.192790725848458785e-02,-7.394362863746580146e-03,8.446787408973657763e-03
-5.180250089141803793e-02,3.081044321580204623e-02,-5.265333589534011011e-02
1.396344157709551465e-03,-2.095670415852946347e-02,1.156779497705266377e-02
-2.280214068933528529e-02,3.442543310967785541e-02,6.196599981755525344e-02
-7.375099190781755389e-03,1.913178070532470590e-02,8.997340559272919147e-03
8.190150112811220295e-02,-3.594036330355949993e-02,5.355715091602077094e-02
5.571031875757404689e-02,-2.787052491446015065e-02,-3.692169731416493350e-02
3.828309622099943660e-02,-8.555407114931988521e-02,-1.843282697059150932e-02
3.584314964573328405e-02,3.704959913947963868e-02,-1.566020675392403028e-02
7.142340291569591014e-03,-1.941055981034989046e-03,-3.892436284248899925e-02
5.201230098234292665e-02,3.387878539589463112e-02,2.200530946539307545e-02
4.109214084916137932e-02,-8.037393833547282207e-02,8.914596039661827750e-04
2.111976172113961409e-02,-4.107172790297999865e-02,4.378309084413728458e-02
5.098497134956772592e-02,6.322341367258714484e-02,-2.849530913073405544e-02
6.945356984993325154e-04,-4.050357813408291680e-02,-5.784707620629366692e-02
4.065799077201225596e-03,-1.025567788003181879e-01,-1.501167228614225593e-02
-3.059647599176952559e-02,-1.303742224012882124e-03,-2.623723678965457842e-02
3.130663598151131599e-02,4.635541429035370392e-02,-1.280481352843287728e-02
-3.053158052316676859e-03,5.328161828958855734e-02,-5.276797045739742287e-02
1.106000066646351809e-01,-4.120109639671488966e-02,1.104736673155434223e-01
-6.678753362832780260e-02,-1.137780430015016128e-03,2.168652217111375138e-02
-6.229374779476477136e-02,1.211336142696415631e-02,-5.512829946203195303e-02
-5.720937494922598981e-02,-3.099763294535076361e-02,3.157878455497176162e-02
4.748396245543737293e-02,-4.904695939279846151e-02,-5.721538565096272698e-03
-1.730490963167814408e-02,-3.960905332027139791e-02,1.314437944163932351e-02
6.152705355364065931e-02,4.100781130968071848e-03,-1.808729154933332375e-02
1.127035492930802789e-02,1.672486543326407241e-02,-1.726235629162182691e-02
-1.516905635801232485e-02,1.047024856246483657e-02,3.938846100877767265e-02
-9.845584423139598987e-03,-4.455196899271974403e-02,-3.730220297595592677e-02
-3.882192531693229309e-02,1.914345061374561965e-02,-1.639859996388097832e-02
-1.863180089722959315e-02,9.275972783921471176e-02,3.822857039935131408e-03
-2.548167623205874893e-02,4.717257122844638328e-02,-5.230812541930975751e-02
-4.469894367849869959e-02,-8.193774778528900571e-02,2.944259122582443267e-02
1.091891079841923462e-01,-4.177331332181680179e-02,-6.325263450253612585e-02
3.097951183841955725e-02,1.399547429547765356e-02,-3.728456751460566126e-02
-4.863379507741978636e-02,-4.283712409728113180e-02,9.042936488093244324e-03
-3.855772791219670703e-02,-2.361170653191593111e-02,3.609167873920366559e-02
-6.101077878381027525e-02,2.188387280398782636e-02,-8.267014139505040812e-03
-3.827482914225122101e-02,8.243543625950786047e-02,6.653685091315310459e-04
-4.177002050231657521e-02,-3.357979391326561952e-02,5.267160374420634672e-02
1.612684989369814192e-02,2.725807836196472538e-03,2.317795313957812797e-02
-6.088541837186800532e-02,-1.065417026561725072e-01,-1.787529324657680108e-02
1.959312140976042158e-02,6.315534726397035656e-03,5.738560400953357510e-02
7.183464195367418592e-02,2.523493833384676810e-02,-1.711356677960228223e-02
6.167042862387259183e-02,8.428121911634636754e-02,1.541317654870640909e-02
-4.344723459255932230e-02,-4.280889217188132978e-02,-3.657578572240336584e-03
-1.929027909375085129e-02,-5.145609035788676483e-02,-3.879942916893785315e-02
-3.142038965121225335e-03,-3.395838463364418691e-02,1.697300941030804519e-02
7.222996378997070810e-02,2.338595458625776502e-02,-4.934369588949876623e-02
3.680522441806131223e-02,-6.083739543412358848e-03,3.751650870668286897e-02
7.861815629198973601e-03,-6.457595723981041091e-02,-4.228020165203525554e-02
6.354356704425781488e-02,1.802193797308581161e-02,-3.735623369939289687e-03
-1.115532082015222547e-02,6.463572045298553170e-02,5.701573513230851625e-03
-2.865551544773396395e-02,-1.408465561236695029e-01,7.674244425360100819e-02
-5.172071778090513855e-02,-9.259956540507824352e-02,-1.290060552377019464e-02
-1.074528024260194489e-02,-2.073522560198446524e-02,9.521545117018359594e-03
3.739654042836539766e-02,-4.264321689934654630e-02,-1.875408418974095978e-02
-5.380322078833262023e-02,3.859760419707057794e-04,3.917349556166711128e-02
2.704743736308186722e-02,2.154142166063506905e-02,-5.192304805418813257e-03
2.158950356429526971e-02,2.859062043058862787e-02,-3.677824506642995289e-02
-3.537002257194490906e-02,1.935121066825443506e-02,-7.499958667556917702e-02
-2.547565924977971200e-02,-2.501913640671553710e-02,4.491579293391951416e-02
1.064643851500752247e-01,-2.672147643305046449e-02,-9.343827954772567293e-03
-3.845803475445625647e-02,-2.941562227873123492e-02,-1.181040602052105259e-01
-5.815231291939509939e-02,2.224013405103527144e-02,-1.150346367956979563e-03
-3.143700944303463168e-02,6.665122831673439552e-02,2.557548261425799871e-02
-4.918539360184199724e-03,-4.107451406349775687e-03,-4.959302619476127494e-02
6.943906187631931903e-02,6.563919958881957173e-02,1.493474394589978417e-02
-3.464703626732380803e-02,5.573109748783984518e-02,-6.616865798519648394e-03
-2.138696792763100218e-03,-4.366818336399206496e-02,-4.346453484734314615e-02
-2.111102840931182445e-02,-1.132419067529613112e-02,-5.478399185512414921e-02
-7.001575140161050634e-03,1.848212979143232237e-02,8.509075033192054632e-03
-4.736604630958709920e-03,1.780824270782788155e-02,2.516236591106413203e-03
1.688451759498510105e-02,7.484739301969237611e-03,-4.947230090324281765e-02
-7.073087413699237491e-02,-2.909054408151784052e-02,1.746637474562024589e-02
-3.025950877196564512e-02,-2.773758997831448497e-02,-1.436198100214196305e-02
-1.709648739512629675e-02,1.885954171902445853e-02,-1.099640621993462457e-02
2.275003905602633603e-02,-1.046289847359000227e-02,-3.787447463571158579e-02
1.819372845529534065e-03,8.810954708885594677e-02,-3.478423065093504823e-02
4.685041316070474166e-02,3.924448405179906119e-02,-4.593556254044115633e-02
-1.684187198333012524e-03,1.578031220775240676e-02,-2.055860728170720228e-02
1.672202877060221388e-02,-2.078303383807652074e-02,-6.786828715067944919e-03
-5.347563018472668850e-02,-2.551370746755150451e-02,-1.090261605521401778e-01
-1.295728924582860084e-02,4.889404709186429172e-03,6.595403081282668429e-04
-1.373833519553252069e-03,-5.915440272359846069e-02,-3.020925457963488572e-03
-4.405747212899993430e-03,4.958550387482181694e-03,-8.783099718826656993e-03
4.334085240525853422e-02,1.768076187466843113e-02,2.553346753963264479e-02
-3.553562294147439432e-02,1.951439838758701334e-02,-7.206518153247286687e-03
-2.193360623982933480e-02,3.444584780351341718e-02,4.238663854182586795e-03
1.222711337881431277e-02,-6.554604750336544272e-02,-4.584982038652307690e-02
-2.623380238347925580e-02,2.535908944950191965e-02,-2.185369164147199159e-02
2.348191648474592941e-02,-5.358792654388151722e-02,-5.797628200980738805e-02
-1.828015061427669743e-02,3.067030553004421178e-02,4.964835692489915145e-04
-2.210210872447708474e-03,-5.254898061773549678e-02,2.392364268557094567e-02
2.833281366405234966e-02,-8.413912857382993549e-03,-2.085551407984621505e-02
1.012756426423710304e-01,3.187404245043089918e-02,2.634499697914361935e-02
-5.223179284928219143e-04,-2.295324475343855919e-02,6.227957550803365355e-02
-8.647082124126721434e-03,-1.197712836308447056e-02,-4.401508293579137893e-02
-7.029713040294394491e-03,-3.905030815331445720e-02,4.015357163193716827e-02
-1.447972772517747142e-02,-1.517047674982226028e-02,4.251490852866832842e-02
-5.709990482040510663e-03,4.295752859388383277e-02,-6.938040412690402170e-02
5.466431804491114245e-03,3.427257645423736118e-03,-5.605245065481889027e-02
-4.678014103449787409e-02,2.698241028446373910e-02,-6.849465945978762405e-02
-2.989335652339118049e-02,2.007247878591392892e-02,8.561364529270254486e-02
-5.532387258833671578e-02,9.505104247583154309e-02,6.589642828222211889e-03
-2.879316973255330314e-02,2.720955568822821385e-02,-1.532470595272385216e-02
-1.491016068550380692e-02,-5.898689526886863321e-02,1.061540588784222298e-02
7.999369445490131861e-03,-2.687821140502949079e-03,2.685628490410983324e-02
-5.057402663117443326e-02,-7.608405040949025797e-04,1.941979448204260439e-02
2.414867812980724116e-02,4.096031388056494554e-02,-2.606895562836627003e-02
-2.413619580134861858e-02,8.844655809922127854e-02,5.610991910634007505e-03
-1.008037433231344067e-03,8.540127459089684459e-03,1.412640309355383816e-01
-5.276905338151516300e-02,-7.746207849491068553e-02,1.538969395800883488e-02
-2.733378696759859727e-02,7.449265617306101428e-02,-2.153827701481260751e-02
8.844231937063005977e-02,1.547109257484565598e-02,1.340727139425066522e-02
-1.612243012860689606e-02,-7.254611895568822966e-02,1.900586225894341369e-02
5.503685716455095078e-02,-3.464990364764680697e-02,5.479733659851590555e-02
2.223150993860648419e-02,-6.151138346459061879e-02,1.693856231752453173e-02
-5.077794481095271317e-02,-8.781515896194212745e-02,3.180329774170811280e-02
2.979134366885706139e-02,-4.504777750821642446e-02,-5.071607246114024671e-03
1.452365444805696869e-02,3.514862356920890607e-02,5.558643620260887708e-02
3.445710395330561088e-02,4.167775401557027859e-02,-3.459243279453457637e-02
-4.263423128641326276e-02,1.020487597782966313e-02,3.943673988588221324e-02
-2.221624472271555711e-02,-2.576738699463109600e-02,-2.605457412199217726e-02
9.171695762852187517e-02,-1.271377246225066822e-02,-1.883760569010007116e-02
-1.855447080438513835e-02,-4.374675962028002491e-02,1.558288491986499491e-02
5.616187971235618581e-02,-5.836786953425027180e-02,3.989085518859927793e-02
1.923950551934259026e-02,1.181798940649532864e-01,-1.918168625967396970e-02
9.496307551699888520e-04,9.012372488073574009e-03,8.171700802191437032e-03
2.125070308710860778e-02,5.097745505329333293e-02,-8.774193368354682443e-02
-5.557171804980957919e-02,6.244603172051308576e-02,3.959694864580291622e-03
1.117325184234823840e-02,6.053130596720224764e-03,-2.933903165518995937e-02
-5.497882060649480346e-02,3.958548465548653549e-03,-5.223684681936746361e-04
-1.705475095960174575e-02,9.002570736673525670e-03,1.571476497477892337e-02
2.152582422386147692e-02,-7.152680678091419275e-02,-2.833694265287887287e-02
-1.920480609300292962e-02,-1.575439759667339326e-03,2.377696584869336618e-02
-1.836350137905922580e-02,-1.919457524885781127e-02,4.980945943986286352e-03
-1.498782867129183106e-02,2.277027276039927592e-02,-3.980541997403001103e-02
1.353374004474681980e-03,-4.292055143651822557e-03,-5.540243623717629878e-02
-2.007035958750225807e-02,-3.446266185005677357e-02,-2.862830947284529873e-02
-3.164403629102632148e-02,7.327935904374130970e-03,-2.730351250209906919e-02
9.704169778723799322e-03,-7.725003665497477690e-02,1.022867525783451859e-01
-1.051511779259104579e-02,-2.815104008125631635e-02,1.481171577508822107e-03
-2.488337422101321791e-02,-4.161163075687430296e-02,2.222276270488945590e-02
8.410018119456691421e-02,-5.873255366016299356e-02,2.247461393366058553e-03
5.217084273905903818e-02,-5.804200491876681384e-02,-5.499544392576975575e-03
3.229426063763716354e-02,2.432240847668618727e-02,4.004707705102170806e-03
-2.456586127258512942e-02,-7.480143894351858926e-03,2.922686836877787589e-02
1.055312484850558750e-02,2.158939983970287538e-02,-8.013354454596445520e-02
-5.416214536592112855e-02,-2.590078443887337128e-02,3.156965298266309339e-02
2.628852182745068308e-03,1.119829157458759016e-02,-3.308870813858085652e-02
2.025836958464542065e-02,-9.961357552562082052e-02,-4.421362763228008780e-02
-1.022425919979443390e-02,-6.768603427664983407e-02,2.322588482129305312e-02
1.740322004492688909e-02,5.921984344297169522e-02,-1.260459512038815399e-02
4.161336556171669012e-05,4.845268015891522270e-03,2.621642514968004767e-02
-1.242926519782960697e-02,-5.320011273528808815e-02,-3.342679119050888381e-03
-1.386850753471232343e-02,2.658591650739678541e-02,-4.140463933724707404e-03
-4.322066049750742517e-02,-4.838026007730201507e-03,5.038556713460408398e-03
-1.331889488000089286e-02,-4.552304343784958213e-02,-6.259034524787314424e-02
-5.636915468308036081e-02,-2.969833928569057431e-03,2.763403794236889838e-02
-2.835417833995416276e-02,-1.226988629071002097e-02,4.261658296676162222e-02
-3.111914918158794827e-02,-1.923358555807458403e-02,2.495872908142278499e-03
-4.371200623140233943e-02,-5.355858615421210667e-02,8.742395461368691542e-03
1.361890241307496877e-02,-4.618481699027252030e-02,2.773937786965837565e-02
2.736310117177612883e-02,-2.968368749858508321e-02,-1.517113597915950053e-02
-4.044127110561052119e-02,2.556080728057238700e-03,1.444495293651079648e-02
1.678299984062727639e-03,2.982255189014213978e-02,-6.210885758773575932e-02
-1.372345648891396680e-02,8.529159876444010469e-02,2.676576688617244432e-02
-9.465427012262548831e-03,-1.268007724088739130e-02,-7.458297781533522464e-02
-2.604862076520811712e-02,-2.244014596114011009e-02,1.589680161848958800e-02
-7.489981721131848402e-03,7.812775048618614271e-02,1.220747780921848345e-02
4.990291461047673127e-02,2.756216965466756416e-02,-4.690322588036015955e-02
-4.638204790969470415e-02,-6.260528554768014786e-02,4.471461139050055683e-02
2.394516325857362626e-02,-5.523396839547592418e-02,1.088022128982484849e-01
-4.640390607909266468e-02,3.952750013959438306e-03,-2.899662553921474040e-02
2.662107552663946913e-02,-1.510595787032682422e-02,7.693401822832043879e-02
4.034255284090891569e-02,-1.999864056645210553e-02,-4.650847954110852445e-02
4.480741185282236666e-02,-4.670491474867905640e-02,2.639287243412503231e-02
-4.554140804436264921e-03,-1.149471336234135846e-02,-5.728724016454303514e-02
5.569711514834814470e-02,-4.404004134928402037e-02,-2.753145153429802441e-02
2.810933883805587924e-02,5.353404999821724519e-02,7.871964449429076638e-02
-6.868375026118710147e-02,3.093602749049055925e-02,6.918466492363589682e-02
3.290605492440200862e-03,4.490921984445023912e-03,1.819126847804711580e-02
-2.244044504235652784e-02,4.352855081518767523e-03,-3.082467673925367441e-02
4.730332882647250020e-02,-8.667042719048961841e-02,-6.993507343917351564e-03
-5.882949529493267105e-02,2.156538836250006599e-02,-9.514703935146365948e-03
-4.945333742346070399e-02,6.503972628622612523e-03,4.852961576533509208e-02
-1.667317233736223189e-02,-1.488481098204369815e-02,2.019719480060337691e-02
4.103642900523006565e-02,6.778669433035085234e-02,8.747723392618957095e-02
7.883695582138970301e-03,2.816744138641989054e-02,-1.363756525241122987e-02
1.386215602099039913e-02,-8.863078509763712420e-02,8.330356436124144309e-03
-2.334616078521814866e-02,4.517909786732256933e-02,-1.709082493777628123e-02
3.546467737059720571e-02,4.641619897867088444e-03,-2.479996653774865778e-02
8.602542148787747922e-02,4.441082940986901262e-02,-4.473145896117984577e-02
-1.939932258440145094e-02,6.111432640821104489e-02,-6.872908664368758413e-03
-3.005986904437637011e-02,2.978208924566953450e-02,-5.363504549181431075e-02
-7.189327160484311474e-02,-4.842573820807197574e-03,3.398420953131657540e-02
-2.110200377339501235e-02,-1.248069600016812886e-02,8.685811929495453054e-02
3.069671360616380365e-02,-2.196496774635722446e-02,-1.975607668846361339e-02
-3.639529511153174329e-02,4.974065760059107055e-02,8.131262734526693847e-02
4.353394949489389210e-02,2.571603701276959503e-02,6.801588877948266942e-02
-6.299897694554204564e-02,-1.060573617955731969e-02,5.417835857210000911e-02
-4.453169396644332534e-02,-6.193850231777399667e-04,6.892965717615410701e-03
-2.702442232791149590e-02,-1.164403554693031750e-02,1.240389895555622270e-02
5.693417737264028916e-02,-2.097300586819979273e-02,-2.880624612055206896e-02
-2.070491333855157406e-02,-3.717931411741825804e-03,-1.999326249944423373e-02
4.126726139481801114e-02,-3.630850854729401889e-02,3.785139796314949262e-02
1.839274853509846944e-02,-4.199121718296238565e-02,-2.069984493548272103e-02
-5.859965529434098958e-02,2.099538296397190917e-02,3.444876329089925637e-02
-2.905324701564291831e-02,2.902297109743503384e-02,3.767868220758176234e-02
3.070628687113880276e-02,5.616377748231030087e-02,-2.133694742189612414e-02
-6.614256263966250549e-02,3.889866427819671513e-02,-6.510107302853940237e-02
6.183938314235856715e-02,-1.418745717106852794e-02,-6.591839579656277870e-02
-8.091114004316312877e-03,8.634502049747806718e-02,-2.056780822198790715e-02
2.261308807198330120e-02,5.041882192176886518e-02,-6.747371328741225138e-02
5.072634676356405081e-02,-7.663682529810655897e-02,5.901615965559572213e-02
1.921358074990096171e-02,-1.795619894285013438e-02,-3.874876101905035120e-02
9.409097667217895464e-03,-5.260153040512745987e-03,-2.381827166908885227e-02
-2.750257440460813010e-02,-4.400459606448442473e-03,-5.801481408866471928e-02
1.005060590788899250e-03,1.374368265551930736e-02,4.372921661714357366e-02
-2.939325989518994792e-02,1.167475548194790366e-02,5.593655511772040873e-02
-8.188804368791456623e-02,-8.813651863034910328e-02,5.205667267375181650e-02
4.671330362959396493e-02,2.074977487565223683e-02,3.997189872627838645e-04
-1.606914219645480535e-02,3.263854820154508257e-02,1.316505470373467192e-02
3.800561466908539132e-02,8.020045400234794564e-02,1.048713588847797334e-01
1.373959793211725240e-02,1.594499412240199185e-02,1.989935535403205419e-02
-6.941653951492843602e-03,8.520132942390766517e-02,-4.107247758820714578e-02
-9.980341575389028302e-03,-3.631125346631083883e-02,7.907881152764749400e-02
3.192948369743599940e-02,-3.516028065511645623e-02,2.432271353410115581e-03
-1.419596692212830641e-03,1.052460183249630810e-01,-4.553057693563685587e-02
-4.347544391281340376e-02,-1.500435275143157873e-02,1.599349816656999573e-02
5.531593717351392277e-03,2.073204768996709732e-02,-1.711357556934455307e-02
-3.923660405562966191e-02,-2.314602909496817421e-02,-6.679827209066126203e-02
-4.773852860054621228e-02,-1.528794030553070130e-02,-4.297272577353234563e-02
6.108140012943296532e-02,-3.016176926265127720e-02,4.478604829470812787e-02
-1.530403635732538459e-02,-3.562589566744627650e-02,6.661044339936393610e-02
-2.153782718984935049e-02,5.017595504453096177e-03,-4.613926016970656963e-02
3.637519998384004111e-02,-2.329695108884380014e-02,-9.540781038899838126e-03
-1.183090129730622261e-02,7.394120328213819870e-02,-2.882258066426512944e-02
7.542639213033834611e-02,-9.377452378077603609e-03,4.999557200825524572e-02
-3.261701108412059374e-02,-3.105290168855712098e-03,2.806416023681346933e-02
-3.166688792414355108e-02,-2.776748027819301093e-02,6.469225584597210373e-03
5.705976618480315329e-03,-3.901994367376611372e-02,9.316489389601398385e-02
-4.828683207010994738e-02,-9.475492582672268016e-02,3.873866121327006889e-02
-2.978679713218990947e-03,-1.322736580653494825e-03,7.284779197400958334e-03
-4.342941862533268235e-03,2.445933226519607026e-02,-9.126339909348232804e-03
-1.134012936104096016e-02,1.293997776501552323e-02,3.117006241220528565e-02
-4.947936120199641907e-02,1.367176181850795862e-02,1.921746150898333283e-02
-4.520054557094094899e-02,-9.739770816063969897e-03,-4.679577428279386650e-03
-3.706242497562740358e-03,-1.509837774494453277e-02,1.514153469363792824e-02
8.798474682511766426e-03,5.018545413211597007e-03,-1.906241450848408792e-02
-5.068045930668380050e-02,2.266713860729264313e-02,-4.200136258872860101e-02
-4.501993111650180561e-03,3.935750073598853586e-03,3.101266699910927224e-02
-1.727017857373389781e-02,3.299507099581100444e-02,2.299297759878140938e-03
-2.456646438486655842e-02,-1.356989240961868105e-02,-2.407750840000202550e-02
-2.507768403862062692e-02,2.247536856827953011e-02,-8.650277164945301134e-02
3.391438877369882393e-02,1.782781256619158858e-02,-7.210827525641903823e-02
1.109793783297566803e-02,6.858420685649637381e-03,6.921749688176753734e-02
2.423231714642262030e-02,3.561183449258958911e-02,-1.607163283565469711e-02
1.031922713734908376e-02,7.525629942275541490e-04,5.854907244602343061e-03
1.737549638531764654e-02,-3.774454192017437371e-02,-3.359140539855883650e-02
7.864370659252488405e-02,2.197617147858761666e-02,7.535397424301196190e-02
-3.407931913392121814e-02,-4.195691116052509273e-02,-6.033735772099940720e-02
2.502714735684951480e-02,-4.723964759606190389e-02,-4.964553892516766764e-02
2.465697955889527976e-02,1.140796630624301561e-02,-6.011593653591489061e-03
4.137618738863163559e-02,2.125852126401465980e-02,-1.956660732212436513e-02
4.534683198967592865e-02,-4.542355166068715033e-02,1.969738319908874522e-03
6.827754827323857800e-02,6.774088732242924960e-02,2.046620805967585069e-02
6.221524888153551203e-02,1.898458684252632075e-02,-6.852785291063281936e-02
-5.088061938389101119e-02,-2.612521610552994214e-02,6.292200441020137647e-02
1.055812735085102060e-02,8.118832973062440825e-03,-1.951747807806579645e-03
-2.307661965973241414e-02,5.679644344867443295e-02,4.036133823959063560e-02
-2.737695439344725590e-03,3.080790036333387258e-02,2.746839216595101107e-02
1.530954154213640638e-02,2.253063960268669383e-02,-2.218357737353231912e-02
5.371668249207319640e-02,-3.744973932696925301e-02,8.659108677903539289e-03
2.698945579417887054e-04,-1.200591465520412134e-02,3.707883118880872519e-02
5.162695922069052319e-04,3.883085560740695552e-02,-2.917613618558819941e-02
4.374305209433034490e-03,-3.147529013237845841e-02,4.583029194267266085e-03
7.761207622700831699e-02,3.784188539722270744e-03,-6.314758608208691226e-02
-1.203911961845921183e-02,1.158721239144208832e-02,-8.538981388153565888e-02
-2.844930594215006481e-03,-7.521212222779853152e-04,-4.026965507126540472e-02
2.986367858534672709e-02,-7.977111728553245781e-03,-4.257982223966236962e-02
3.993711084325217431e-02,-1.739769476086655900e-02,2.023155087447344944e-02
5.698481183761369868e-04,-7.492788702718586324e-02,-6.943007782538769199e-03
-6.560698794376565446e-02,2.487329898645239054e-02,5.287159740064843044e-02
-1.673219250155249041e-02,-7.556871253868692462e-02,-2.556793186477986785e-02
7.908131775662678720e-02,-3.620449399267784002e-02,-3.013712544264619125e-02
-1.479589177944952948e-02,-3.573256399489146973e-02,5.975262950533308942e-02
-1.007049819753120731e-02,1.986060907701044445e-02,5.822342491778866036e-02
-3.415930376723132211e-02,-3.269183563542287646e-02,9.322177990170341100e-02
-1.811264113547327026e-02,-5.716297817433875494e-02,2.847248231228948975e-02
2.207670633528290710e-03,-7.381305634853271846e-03,-6.628549386103133913e-03
-3.104983378984396691e-02,7.437096686499289951e-04,1.899276826588763151e-02
2.040399355592180733e-02,-1.897290609161977198e-02,1.826014877899878272e-04
-8.340319622539116295e-03,-6.033740299086759462e-02,2.238729432430646912e-02
-3.665281588057085066e-02,2.432414526088069393e-02,3.618399940158473910e-02
-3.581857448726385312e-02,-2.415696066561312874e-02,-2.769929424633488582e-02
7.897951156123869665e-02,-1.552599704932396824e-02,2.802298631126879866e-02
5.770367605749243678e-02,-6.743912320034723025e-03,-1.000437405920950595e-01
-2.904877096850854573e-02,2.781287186388315541e-02,-2.296360803509447240e-02
2.443860841364901490e-02,4.045106525713435680e-02,-1.812353352739381335e-02
6.353497408055541751e-02,3.949307590176143190e-02,2.334525509551556646e-02
-6.003307873021102720e-03,1.030416748497856999e-01,4.522432198522743918e-02
2.347593811332041383e-02,2.368060242540667021e-02,-2.615928944189352054e-02
3.281007516185997092e-02,1.539705597735316909e-03,7.323725891815491273e-02
-2.162695516516142252e-02,1.633953300673509842e-02,-2.511906392324778428e-02
9.513125607303004640e-04,1.314721209957837693e-02,5.192941123286654026e-02
-9.014058090154153380e-02,-2.380825962762106798e-02,-8.579859028013645666e-03
-6.869373962574587544e-02,2.127215755943136916e-02,-2.230785350203643921e-02
6.527897134078296248e-02,3.892860432878401944e-02,-4.311494868265268454e-02
-1.932064664250741221e-02,-1.267741343291611811e-02,-2.974382819610895193e-02
-3.437663447448675164e-02,5.530827612809312982e-02,7.845795017716350114e-03
2.368097005365314353e-02,1.023778573852551915e-01,-7.662925504048544167e-02
-1.290448945681110966e-02,1.371074596441462616e-02,2.228252653618300466e-02
-1.073567463850882420e-01,1.799187251738493254e-02,-3.950965134720932359e-02
7.129238404932060520e-03,-3.849445797663623298e-02,3.790127191593693507e-03
7.270065725033088289e-02,-5.204991039427262628e-02,-7.616791625610687400e-02
-6.429093112375820762e-02,4.053863428981010000e-03,4.316761505386921410e-02
-8.222778733165334031e-02,-7.080044361534869324e-02,-1.750054697743190285e-03
9.287804282665018327e-03,-3.194310261543293651e-03,-6.679105068905731579e-02
1.823077465502006764e-02,-4.182893971909234371e-02,2.120899491605861623e-02
-6.270280269607803568e-03,-1.353716167405535735e-02,-3.224728172512200675e-02
-6.494158010699259409e-02,1.207325032939695134e-02,-6.149631461533357560e-03
8.746329696173402168e-02,-1.095383508859175750e-02,-7.980068259201703040e-02
-3.784273517809370879e-02,-2.239861871770763152e-02,-1.331577088730063032e-03
-7.435063503762799619e-02,4.033563407185761229e-02,-8.452352433342047444e-02
3.977571053178248495e-02,2.481007254185582656e-02,-3.334510533237749347e-02
-1.044067209189892056e-02,-4.033698056877225990e-02,-4.004621952906358556e-02
-4.158028147430084878e-03,-6.652212754205129308e-02,-2.767793128121693452e-02
5.480950621378510162e-02,4.800959477263539582e-02,-1.531143858805960808e-02
-6.683733154254286072e-04,-4.878139518027215828e-03,5.446192749201519273e-02
-6.452900971852913725e-02,-3.081763810407843127e-02,-4.932587544420665229e-03
-1.020039918366122816e-01,3.057110563410800688e-02,1.485476994834667060e-02
2.379679561776283647e-02,-2.863196542684215071e-02,-7.912051420125720824e-02
-7.579484170142634925e-02,9.724407667089138285e-03,1.866461141115744599e-02
1.237119187996568465e-03,4.252512697753135784e-02,-3.570464828406274757e-03
6.890778138285952314e-02,3.443533012756801182e-02,3.424324599146085467e-03
-4.010970729673775381e-02,-2.090028697068234062e-02,3.833664972048687891e-02
5.935749458298088949e-02,5.931787232401285713e-03,-3.942601513888116527e-02
6.740432659209934230e-02,-2.727234815646136651e-02,-2.353294310003056083e-02
5.197072216974830960e-03,-3.071365283192342005e-02,-1.009065523072752261e-02
1.914188312039829740e-02,6.076567629881841903e-02,1.135269394954456154e-02
-9.326498270748974362e-03,5.440783215913219673e-02,-7.338947831165567540e-04
2.238827129078941117e-02,-2.153805739712583156e-02,1.047625739374000720e-01
-6.072233926012558097e-03,-1.758669910596491123e-02,1.746574585893282544e-02
-2.505189212749835137e-02,6.477157990543631894e-02,2.426406804394287339e-02
1.227016052230224877e-02,1.929363666916587144e-02,-5.124235651022500393e-02
4.656303808265910282e-02,-2.720226455667859242e-02,1.869986814664572478e-02
-4.323375049439218132e-02,7.092410526858760993e-03,-3.926348989638164810e-02
4.006876972052925145e-02,1.445030548906441580e-02,-9.249554241863232025e-04
-1.019795077225889302e-02,-7.367600940548189870e-02,-1.865467870191959282e-02
-1.543735988221022273e-02,2.270077082085089279e-02,4.820483327553400088e-02
-1.371275634173762040e-02,5.077239333615313210e-02,5.329187157508324078e-03
4.480404353853811167e-03,2.942142189863298021e-02,-7.738727057024697396e-03
-3.542726738925768004e-02,-1.093028294945045872e-02,6.751502154010290135e-02
-8.215066908419346725e-02,-1.245203407985727428e-01,1.011058038953569459e-02
-1.053787576797464570e-01,-5.249622011806364535e-02,1.458524380770611847e-02
3.105763310712869943e-02,5.028435707884078981e-02,5.355750059405401525e-02
6.052856557507640435e-03,-3.617044815784649370e-02,-5.093269167071470122e-02
3.890629877384511881e-03,2.466565903915248978e-02,-3.122297851765437268e-02
-1.514753696405068267e-02,-6.303150306233568090e-02,1.251479270777831020e-02
5.683081899674404663e-02,2.554115021181966694e-04,-4.689831024553506138e-03
-2.790663575470505101e-03,4.656870544759202091e-02,3.346715768111619554e-02
5.059685819561141745e-02,1.959370398403026403e-02,-8.844960485468081335e-03
9.171971251603737441e-02,-3.495554928317479160e-02,-2.090647500529302719e-02
8.482889413260127909e-03,-2.227954142927797768e-02,2.877324390010863042e-02
-6.455774381126717270e-04,3.351243520555842459e-02,8.316902665326221522e-02
-3.286473775788643220e-02,-5.643579613844539739e-02,-4.732956931438619952e-02
3.192080215883425637e-02,-8.012396296022175624e-02,3.936975223733310547e-02
-6.229502009973450494e-02,-3.236558401037193528e-02,-2.871715634314911392e-02
1.220216005887586781e-02,4.457379493119496133e-02,-4.673715280250240189e-02
5.874721258522049711e-02,4.557520694689817797e-02,-2.182324805968070131e-02
-3.113993450189749966e-04,-2.081406275153271229e-02,1.213715597953381187e-02
1.511773539084361982e-02,-3.032491432485546839e-04,-1.291126243950467371e-02
-2.517045067811374270e-02,-1.721271336138593261e-02,-2.140617819269063221e-02
1.005684979932848847e-02,2.872995864866660296e-02,4.750490810257249757e-02
1.979788349180173004e-02,-2.477509889137960095e-02,1.009422516545103142e-02
1.967312674457785682e-02,2.166934081290376474e-03,9.707434225284429161e-03
-1.735871675437139147e-02,1.014108205918965062e-02,5.387537707540928505e-02
2.527912173040046916e-03,6.379570275212172702e-03,-3.737990490220752249e-02
6.482015933500026236e-03,6.553890341017996890e-02,6.854542762613014331e-03
4.737221091294326059e-02,-4.340429816406319967e-03,1.711080322823014394e-02
-5.458604958479593844e-02,1.936215198239530288e-03,9.401323668469321188e-03
5.129402428832934707e-02,-3.837184853763759423e-02,3.447324922508689105e-02
-7.673928531452656838e-04,-1.909638775196080204e-02,-4.721648103551964043e-02
7.590045376408885436e-02,7.152750031963830708e-04,-3.337594841362905018e-02
-6.810208274875300359e-03,2.811493677817293244e-02,-1.853022251907546214e-02
7.662028811366158876e-02,2.645519293373669797e-02,-1.091484214823015657e-02
-6.092582280752149859e-02,1.078288819804285384e-03,1.980363293582023884e-03
9.197518976848931618e-03,4.809867301161321364e-03,1.785951357662774255e-02
-4.202641174231660365e-03,-4.541202795873681280e-02,7.847206755571458497e-03
-9.338766921078675868e-04,-1.356875017167804079e-02,-4.607202356153779210e-02
1.006244561255394306e-02,1.042326150783066604e-02,-5.645466012269596129e-02
3.744167569589242767e-02,1.501570402583377040e-02,5.745455690250593668e-03
2.153654511696463311e-02,-1.646987966648969307e-02,4.287099414831011673e-02
-9.707503637688593909e-03,-5.028943619119274899e-02,5.529010380320577289e-02
1.721728097578179364e-02,-1.462291083298903650e-02,6.943589915628202436e-02
-2.074429335612756192e-02,5.400339985068320497e-02,-1.854255235289365908e-02
9.746030727736373911e-02,8.755512167078984996e-04,-1.046459255720915728e-02
4.269268378680125126e-02,-3.237177154931571155e-02,-3.330613140939531203e-02
6.092972497356651668e-02,4.015613604019496741e-02,-7.181195626714502456e-02
-4.267921759253682362e-02,-1.439319642104236853e-03,1.939700033916064853e-02
3.325501409810342757e-02,2.688058168005249063e-02,6.897951481138520080e-02
-3.678745471119774894e-03,-5.713403062834716828e-02,-3.507932771360016549e-02
9.427037085590400309e-03,1.180115356093111752e-02,1.899727040980080800e-02
-2.852798486687938007e-02,2.430414232709835615e-02,3.511221104964856819e-03
1.783649577142075102e-02,-8.704798454031896851e-04,6.971571253008247704e-02
-2.347661556118022311e-02,-3.773712927324238131e-02,1.720407850924800600e-02
-9.742654058756779201e-02,-3.203766560242056471e-02,3.049876333908596929e-03
-4.664620305954891855e-02,1.010365242311555764e-02,6.043348132609976942e-02
1.394568857089602959e-02,2.850647863002741741e-02,-3.032690303283882421e-02
-7.748181412721225070e-02,-8.648965561243995848e-02,5.210747551712741066e-02
-4.845533447497366031e-02,-3.215700237330370356e-03,6.562099497478007804e-02
-1.454184619636878298e-02,5.688813594157225706e-02,-4.406532842420603918e-02
1.982620424240836773e-02,-9.091333338525278284e-05,-5.400969095784790945e-03
-3.770198220697616037e-02,-2.956319659020706717e-02,8.371814107388516691e-04
4.609883337337278980e-02,3.938228231720491967e-02,-6.855628151922699143e-02
1.313975678896224519e-02,1.008752955954003369e-02,8.032670974334653324e-03
-4.267150196107742655e-02,7.881752138326651030e-03,9.944672956031864672e-03
-1.442638628022901992e-02,2.638963101086345270e-03,7.218544945369702315e-02
6.881033579682674199e-03,2.076551547123656888e-02,1.389980289171398710e-03
-3.127232205638514218e-03,-6.514306729107832705e-02,1.501674673967230353e-02
4.553578443016806365e-03,1.580622183526448222e-03,-3.486653929484935781e-03
-5.283558188905938466e-03,-4.822746429131403306e-02,2.943659379773065285e-02
7.670733782632926934e-02,-1.742037437297860869e-02,1.977563894921860119e-02
4.679958773047490639e-02,3.134375915142120772e-02,-2.047500679482052235e-02
5.109585960850432373e-02,6.840519639170421218e-02,-2.559750570500286121e-02
-2.833761914442535501e-02,6.737266673925935978e-02,-4.601563198834651008e-02
-3.098951450829994306e-02,1.241040338585654851e-02,4.293451955480015458e-02
-3.686586371379822064e-02,3.210623222705309698e-02,-4.783573132092944213e-02
4.143930664593802049e-02,3.483778894767066564e-02,-6.788691960194100095e-02
-1.150119164119291736e-02,4.073209399809257780e-02,-3.098506988740460516e-02
1.011201328607904890e-02,1.224056105093071500e-02,1.536821915470906567e-02
4.068384555213352960e-02,-3.244905022044259485e-02,-5.149258575890411360e-02
-2.086158937999170460e-02,1.037531010489780095e-02,-5.500633700952130972e-02
-3.646210771058291944e-02,-3.388292583256799495e-02,2.110782337951641347e-03
-4.967661954451765838e-02,-5.793543651231282399e-03,-6.682189727249514266e-02
1.680759063386796578e-02,7.802389749795099472e-02,4.759303267627486983e-02
1.136180710466145119e-02,-5.289367951042092675e-02,-4.782564267782982853e-02
4.157252708821509470e-03,8.901594776818079480e-02,3.019419883781944425e-02
1.048222874180900627e-02,-1.701778059329198600e-03,5.013831263799948743e-03
-1.184263347239715852e-01,4.990622218877958406e-03,-3.670873856092572024e-02
7.955794416560588167e-02,2.754437455399174825e-02,4.031563539873848911e-02
-1.445048897231014651e-02,-2.275028093248496544e-02,6.635737048904715406e-03
-1.969106415949597663e-02,1.494658684065611719e-02,-6.845708522276489245e-03
-5.113659356090920205e-03,-1.046717662481245516e-02,-5.118012228641041772e-02
-8.971000096394798895e-02,1.858522674695618077e-02,5.454440899782170976e-02
1.944873936315170623e-02,-9.189439005655256629e-04,-1.546696540612468385e-03
-2.394888590171769926e-03,7.025662580176972316e-02,2.008737323902162752e-02
-8.399010306887973523e-03,-1.425689216069209869e-02,-4.291872290694478259e-02
-8.230144081007208234e-02,3.246156025927722510e-02,-3.888776389451954058e-02
2.504670749966157392e-02,-2.866304312306658733e-02,5.823283349821637561e-02
4.882797253014388439e-02,-3.098566937660371043e-02,4.414885835667058112e-02
3.604558290021862843e-02,-8.530746775044466615e-03,-2.735337411792124890e-02
-6.977205460919994008e-04,-3.928122922157790270e-02,4.616702694840624926e-02
2.497049954299505881e-02,-7.960940524579319943e-02,-3.928817749398351780e-03
2.433168913471789319e-02,2.491932732495447458e-02,-4.049470021154314564e-02
-6.591930837350457040e-02,2.634976609891567182e-03,-9.432849654068268391e-03
4.927039124485843580e-02,9.595704002205924718e-03,3.059129276766590563e-02
-2.203169494250346860e-02,3.470289204381673404e-02,-1.440357424405049698e-03
-1.275089399620542643e-02,8.226664407198130968e-02,2.962339817572147600e-03
