gyro_x (deg/s),gyro_y (deg/s),gyro_z (deg/s)
-1.288102910721828850e-03,3.259065308995445776e-02,-3.161102849277437621e-02
-4.693257927005240089e-03,-4.319945279929946792e-03,-6.991426558534541424e-02
-3.119930659783386878e-02,2.482874489126746242e-02,2.964411409958475283e-02
-4.310427912538613432e-02,2.304571404920806657e-02,-3.981331286706287637e-02
1.315872143038124796e-02,-1.408251453184636119e-02,3.187568316099625987e-02
5.949806997761989541e-03,1.790718011301564716e-02,7.711652099688764452e-03
3.012176815425569171e-02,-3.332935338433225259e-02,8.036357063075753870e-03
-1.757639928188142742e-02,2.300958749640761788e-02,-2.241025483889094033e-02
3.192398206499383329e-02,-9.422636442107544443e-04,2.857774689737081417e-02
1.843993575960812398e-02,-4.480181039756363226e-02,-5.802936162776009543e-02
2.414325327721585437e-02,2.528048407256012001e-02,9.669076979450511033e-02
-9.226155213401405694e-03,1.108206318967086823e-01,-1.382510233271531594e-02
1.365405401059744533e-03,7.861342515617582294e-02,-9.312777604094279321e-03
-7.287190540045587750e-02,4.409262271636174568e-02,9.456803391566947006e-03
-2.483755083516304280e-02,-6.152412268724191668e-02,-6.600423880774693164e-02
2.094075949780463408e-02,1.513828127341637457e-02,-4.211531496425191534e-02
1.039074145062573659e-02,2.873031588458596977e-02,4.530987849380844340e-02
3.708858527348483924e-02,-2.011199939068206849e-03,-3.301136161870406316e-02
2.106280126680675803e-03,-5.212946593857260141e-02,6.634518537587985598e-02
5.533608914877538587e-02,-3.938982862025466186e-02,-2.546094214004152381e-02
1.810185533514017953e-02,-3.345484062697752503e-02,3.361035639868448655e-03
-1.003538986358478713e-01,5.566412626859829765e-02,1.609872732197767387e-02
-4.819336302315803053e-03,8.959847583539001792e-02,2.486914204282779720e-02
9.288894962690673329e-02,-4.029235892138501030e-02,1.048755478565999849e-02
4.535555550164661887e-02,-4.597228961490285731e-02,2.657220031253383977e-02
-3.961199305767676426e-02,-3.182827423904106140e-02,-7.325949528091482699e-02
2.411750579893185559e-02,2.386794356430203476e-02,-1.009144512892425072e-02
6.558288973657785959e-02,1.328459618030636280e-02,-3.323952746710243794e-02
6.880402932402902849e-02,-1.095513448935940964e-01,2.688227478514098809e-02
-7.889707800715138608e-02,-5.967662196809353503e-02,9.125012343925500979e-02
1.054401770035485846e-02,8.263013988590113545e-02,-1.801595210630620170e-03
-4.017547145166330824e-02,-1.440178572629923458e-02,-3.174926620030601998e-02
-9.797569826955879191e-02,5.196238486466182166e-02,-4.722354593283212276e-03
1.177072632550673660e-02,6.992763579351028713e-02,2.000181861906203187e-02
4.241630429473439157e-02,3.950967374711005647e-02,8.070485072193031573e-03
-2.962403164395911032e-02,6.576759157117618992e-03,-7.126791677581521822e-02
6.359291607641781585e-02,-3.507244368694755615e-02,5.369880406896036101e-02
2.989488635759482600e-03,-1.655319132486535519e-02,-1.759815132003785367e-03
-1.124699068323076374e-02,5.154348254096534181e-03,5.082366593961786666e-02
-8.050725186040297646e-03,1.681375567013848257e-02,-1.098094732535103086e-03
-7.519796588187298292e-02,-3.364474670513946386e-02,5.174175987634824919e-02
-1.527974489570310375e-03,1.589274100665036271e-02,3.986104121703778341e-02
2.976676606837554834e-02,4.699570012613743519e-02,8.135364585409173357e-03
-2.543962202722074850e-02,-9.456714976872214462e-02,1.155371683353710079e-02
8.946355606726526244e-03,-3.634044017703269742e-03,-8.592600131623799598e-02
-1.303503452787612392e-02,6.213957181325315687e-02,-8.551107969477413778e-03
9.513235563313777662e-03,3.793488212721079361e-02,4.374156504465064738e-02
-1.560398072247867751e-02,-5.665901140503360606e-02,4.332812458242727566e-02
5.482242702094172054e-02,8.183526640519277195e-02,4.012688258491712429e-02
-3.383609705592363626e-02,2.694481273576338279e-02,2.615576308241143733e-02
-1.546472346741966687e-02,2.017102997288936980e-02,1.437599546647355848e-02
1.994400828597083994e-02,-1.479755603066666529e-02,-4.967204604715150934e-02
-2.428146205172993562e-03,2.296157628955153643e-02,-9.326121442130659925e-03
3.203450705074331866e-03,-2.728295276802725905e-02,5.833618535245157707e-03
1.224633879833939565e-01,-7.632143375719253886e-02,-7.349598336850762283e-03
4.267488635601917463e-02,9.857293464056100449e-03,-4.975998007331244172e-02
7.500274634480018354e-02,6.051967532518447157e-02,4.159970510177489478e-02
2.467908087573525075e-02,1.944906316602694127e-02,2.337953270976536949e-02
-5.145773449290625551e-02,-6.270472253838454968e-02,-5.896840564604458046e-02
5.273641744112256974e-02,-4.436952074154316972e-02,-3.230934148049580124e-02
3.595155480218455157e-02,4.346614094060335942e-02,4.031315212756409611e-02
4.997295893832077313e-02,5.220190786002108091e-02,-2.873235212703806676e-02
-5.769530517193696001e-02,1.492874030020208825e-02,1.176140311575536723e-02
-6.735590348411424344e-02,2.634179364457663042e-02,-6.094062767696443311e-02
3.376485347982646767e-02,5.145382259515937640e-02,-8.265130368150119811e-02
2.360082225317370816e-02,4.659475014862533154e-02,8.673420871687570477e-02
-6.505649371076088761e-02,6.898503920830646730e-02,6.717171864464431541e-02
6.461494554230708121e-02,4.489511536846059470e-02,-7.136618042203747569e-02
5.856579979846014000e-02,-3.538286877202082015e-02,1.840359344090960678e-02
-6.379552921167145306e-03,-1.094914381754017244e-02,6.341478116753437866e-02
5.719575808100558871e-03,5.201620978307484183e-02,-7.416333905527933449e-04
2.225159605998406481e-02,-4.942035683780780786e-02,-5.059280260002131657e-02
9.184515193102180813e-03,-3.412310122350972058e-02,2.965982503138889573e-02
-4.053829743561552373e-02,-5.249639619208280525e-03,1.635167252847981659e-02
5.067263888290847451e-02,1.156624622457148172e-02,6.530903998755741013e-02
2.739387080888966083e-02,-2.210669506838825946e-02,-5.853383387175585192e-03
1.985847073727576087e-02,-1.697620921080011946e-02,9.047264247816402122e-03
-7.937409258399710787e-02,-1.338473896699751350e-02,-7.357238646548487637e-02
3.902986630762535908e-02,-5.379957488891203010e-02,1.922822695703946261e-02
3.659073179667576142e-02,1.507780875627613357e-02,1.926941437039112609e-02
-3.212185643891415920e-02,2.852786492058902515e-02,-1.687298393900350107e-02
-1.092512623939855820e-01,1.760290290847119424e-02,-3.816675650448760060e-02
2.620502268406803628e-02,-3.856019299097995789e-02,-1.633713652203770553e-03
-3.540379909140174003e-02,-4.510242932450241049e-02,7.665765992444452392e-02
-4.092579074560553226e-02,-4.618857326007643621e-02,1.660977613714599566e-02
-3.847923812833484170e-02,2.616881624322217603e-02,-6.007536750583095109e-02
-3.810557065781574205e-03,2.534108018158530429e-02,1.372137194630026862e-02
-2.000669059317529419e-02,-1.372610365069885929e-02,-1.256837459592021963e-02
-2.828606370937420539e-02,-3.036515426696507688e-02,-4.991025826694432590e-04
1.302683327365817580e-02,-3.269018754123897280e-02,1.405229740368651656e-02
5.838520268243777706e-02,1.399665184821361798e-02,1.119556103086873436e-02
4.272068639303902571e-02,-5.503244540784541644e-02,1.636415668663044123e-02
5.363673297749567415e-02,-1.188358810044304048e-01,-2.996722880130045508e-02
6.566341573305436996e-02,-2.839610921595610814e-03,7.445075686635137246e-02
-7.998735622678990187e-02,-5.958968070565605693e-03,-1.147640377509876082e-02
7.607607541446360921e-02,1.761076966068436667e-02,-7.841611168892904937e-02
2.386786547092513075e-02,-6.558636774104459333e-02,-8.113699004125188297e-02
-1.533123357144812113e-02,1.823920677773807272e-02,3.759926554879458593e-02
-3.066024285708449440e-02,2.563502299480738874e-03,1.383829761609909519e-04
4.150505008334011425e-02,2.663119856498595908e-02,-3.366035074841869368e-02
-5.600949966267532165e-02,4.913523877134345214e-02,1.451620599285435853e+00
-3.725200480680891657e-02,-7.677561338840901972e-02,2.873298367780883211e+00
-9.323910659994971359e-03,-7.160018752712137176e-03,4.007475998909481696e+00
-9.485520099793981127e-03,-2.919976485289980592e-02,5.205949644507663621e+00
1.681850269736001949e-02,3.212771046899354221e-02,6.192843502353887253e+00
-3.542331910857855065e-02,-4.462079204973229407e-02,7.071237627720606156e+00
-1.453519531881179022e-02,4.300684074919048500e-02,7.876920457768830097e+00
3.382844087101389424e-02,-2.416820505126664534e-02,8.497959889673726508e+00
-6.599629816314067643e-02,-1.463945763635583763e-02,9.152580166527000571e+00
4.436771105417518235e-02,-3.102169167835716265e-02,9.738823700796949367e+00
1.789201253238396211e-02,5.696661359835165570e-03,1.024125481853031161e+01
3.176269801674695692e-02,1.224958680717147877e-02,1.085941632966804349e+01
1.451052855996858015e-02,-2.045823166518801264e-02,1.126244718667513212e+01
2.999770046993344846e-02,3.318619653871711372e-02,1.157428074713319965e+01
-5.254293437715081699e-02,-6.309354233014146697e-03,1.192288524768176927e+01
-4.217383225664549096e-02,2.042305886979294688e-02,1.225034273657247219e+01
2.439156722385251233e-02,-4.244347087806095431e-02,1.245207882501343910e+01
-2.317110871748476186e-02,-3.279347025645332897e-02,1.275506568692300569e+01
-1.003964503131974939e-01,8.498909638508610198e-02,1.300713764079725188e+01
1.086893304890811963e-02,-6.876910762813022437e-02,1.313452204096060960e+01
-1.844984622268357535e-02,4.373477908913961376e-02,1.337109336998569198e+01
-8.742343472096646140e-03,1.117524081553536268e-02,1.350340217113761376e+01
8.255468015437010141e-04,-2.922781314675140449e-02,1.375898584088888654e+01
1.851233523061758535e-02,8.162103022924071041e-03,1.383099953994396181e+01
1.846965345710943965e-02,7.137588443712854225e-02,1.400580032458930191e+01
-2.587410269833335247e-02,-7.935976292168989490e-03,1.401838644740817230e+01
3.200197675279042864e-02,-2.695906654968087054e-02,1.411501724940704605e+01
1.549168927004082597e-02,2.462128213534646448e-02,1.419621023229157863e+01
-2.184415483034176861e-02,-7.289334589903489516e-04,1.425475422529406089e+01
5.831261331912624031e-03,4.613979090959012541e-02,1.435078388639432312e+01
2.856677944379567083e-02,-3.568804368227116580e-02,1.447142887297615133e+01
-1.534810901153359046e-02,-4.495106691579523264e-03,1.455527163922595335e+01
3.411654155309980924e-02,3.499268302880429587e-02,1.453307262624164942e+01
-2.955702367809154643e-02,8.602914549176195538e-03,1.459908964423281930e+01
1.335413691363453691e-02,-6.699417905861450306e-02,1.463346738301200922e+01
-2.130929304785549386e-02,4.409791946550797176e-02,1.467771166658563509e+01
5.325935967754742012e-02,-1.912099276131057693e-02,1.471508330146787102e+01
-1.065305790698876931e-02,2.892638502441648163e-02,1.470685945330733269e+01
2.369575360032951435e-03,2.474693444497525277e-02,1.476796963033382859e+01
-4.600500818499367317e-02,-4.738017049486355301e-04,1.480495357321554017e+01
-3.691321357329960338e-03,-3.229907175221176374e-02,1.483451775083738333e+01
2.952886176031757973e-02,6.706377166973249808e-03,1.484848024241443198e+01
-3.299471083798502513e-02,6.927414058377447115e-02,1.486597610824599514e+01
-1.694380038121433285e-02,4.109818849009998915e-02,1.491767474679463845e+01
2.535139406224754671e-02,1.208108652688750194e-02,1.489500992533631774e+01
2.740515075814568477e-02,1.862741078973456990e-02,1.484658946065939311e+01
8.398143648008718140e-03,4.058733856902240617e-02,1.484970587603827319e+01
1.152024980836234211e-02,9.325855607677626183e-03,1.486524283814791225e+01
3.455461657285897881e-02,-2.350160218176018320e-02,1.499285307823881652e+01
2.162363191811573701e-02,-2.259222169133138711e-02,1.490412158914891627e+01
2.302561597076789937e-02,2.581279079537589314e-03,1.492325237687357031e+01
-2.708689787039882460e-02,1.311068347777516463e-02,1.495709348775493730e+01
1.539016871442502182e-02,1.480446901954161898e-02,1.492389741297593453e+01
9.179663049558658625e-03,6.037629725725612070e-04,1.490884547056145415e+01
-1.181768307843577073e-02,-3.792921990161807894e-03,1.502194066773596504e+01
2.048471759793297695e-02,2.135006514114847626e-02,1.493347251156575695e+01
8.329375756037424305e-02,3.621102859639412780e-02,1.494490913320722392e+01
-1.516684909222510563e-02,-6.964688769587487616e-02,1.501256508682060620e+01
-3.930986842707787782e-02,3.481350359644087150e-02,1.491722603823567894e+01
-2.916044660061876265e-02,-5.288087803836043210e-02,1.499706673877064489e+01
-6.813617213137745411e-03,2.793956715768471794e-02,1.494608546986891717e+01
-1.116886941978947369e-02,8.555326400784695612e-03,1.498473169426599760e+01
-6.839646451091994928e-03,2.597198571425708355e-02,1.497647754426272293e+01
-1.816957565599694457e-02,5.535906712733256602e-02,1.490186819838509713e+01
9.596855707444140737e-02,-1.506283754387106530e-02,1.498369719487122786e+01
-2.792979582813992154e-02,1.927015014451672476e-02,1.495521261936992197e+01
9.339427384529358500e-02,-2.107674999235654208e-03,1.494183626722007219e+01
9.872048374002645454e-02,1.515373241851195908e-02,1.495287162808004133e+01
-3.969553626263111479e-02,-4.489598823502459826e-03,1.500823296803090479e+01
4.867891467334857503e-02,-1.075535929755204803e-02,1.500273080468130615e+01
1.005723882686864953e-02,-3.767339819383327959e-02,1.493318748776896676e+01
-4.658260992772957076e-02,8.022311055990312065e-03,1.499698015723884126e+01
3.665771310222237789e-02,-4.939713075307617524e-02,1.500275367443980734e+01
-6.714858867215256835e-03,-1.045085818487745573e-02,1.500041457362700115e+01
4.681600834714944037e-02,-6.633454055034211649e-02,1.499178627135788489e+01
-8.162828353635404044e-02,3.319825886941189103e-02,1.502091394908183375e+01
-7.570130556768585317e-02,2.095188346388924400e-02,1.493679174231597528e+01
1.415986040073240540e-02,3.050740199559388854e-02,1.501119855555286087e+01
-1.625644643917842358e-02,-1.145743422797037940e-02,1.498731273292243493e+01
-1.648089878673901498e-02,3.425325590032592127e-03,1.502676007992265106e+01
3.513997461926479660e-02,-4.440348389238508303e-02,1.506125767639804636e+01
1.401102551442764098e-02,4.396845881713112164e-02,1.496093596247890822e+01
5.744364128442844969e-02,-2.297636995285144267e-03,1.498777352139142138e+01
2.761821857180589077e-02,4.268441380474054594e-03,1.501886416901379739e+01
4.788532752434848661e-02,3.883343018724933968e-03,1.499109746190300818e+01
-8.178852702880420877e-03,7.691711238882297137e-03,1.495217576137626914e+01
6.278996119982979685e-02,1.710388034838117646e-02,1.496939660728242849e+01
-1.238365267290405906e-02,6.191764599939924424e-02,1.501595526755003007e+01
6.509413780441969215e-03,3.933601572031381055e-02,1.505290124520649897e+01
3.203323906588066011e-02,-3.957288298185877157e-02,1.503094977217646822e+01
-4.432312947388884240e-03,-1.009972673921498074e-02,1.489801410156137607e+01
-3.071435973390830229e-02,-3.244564630377649167e-02,1.503613707454354831e+01
2.259621223229134335e-02,-1.713539313188118269e-03,1.493294178044917153e+01
8.195123781219681297e-03,2.183010577022463997e-02,1.499100977210749619e+01
5.310323519275771814e-02,5.039364090159181506e-03,1.498476066216422531e+01
-4.134092934817386322e-02,-3.013637602542921373e-02,1.504180384221442779e+01
4.144440438261262627e-02,-1.630969140097441455e-02,1.503608011463700400e+01
3.260400077773049931e-04,5.037972834161231345e-02,1.503194865226140031e+01
2.197003101883503867e-02,-8.189507479222070396e-02,1.498079963757519728e+01
2.100354204739346420e-02,-7.132961210030897004e-02,1.494952126097026657e+01
-4.072148864812354802e-02,-1.494423200504889186e-02,1.493313822146549974e+01
-1.585376958021052912e-02,2.153774897825636719e-02,1.501632245687101452e+01
-1.983985367023164553e-02,-2.727243027559388827e-02,1.504685497709484743e+01
6.806411976768651784e-02,1.657541256576158112e-02,1.499303337040397111e+01
-1.471078637266844125e-02,-2.260608475862029010e-02,1.505588867855902180e+01
5.339761645460063683e-02,1.580059594609620199e-02,1.497964752671540545e+01
-2.810402001789818680e-02,1.949689052528672320e-02,1.500148704499365948e+01
1.355290830358453838e-02,-1.118958406887287683e-02,1.503194993855956518e+01
-3.385863197715908990e-02,-2.993614739264221364e-02,1.501894468296667284e+01
-7.133171723636437533e-02,-3.254416680456997946e-02,1.507588854634521880e+01
-4.839877870350874078e-03,9.363359207402462137e-02,1.494196332404359495e+01
4.920811684887194809e-02,1.045444639087025028e-02,1.500641138767609206e+01
-2.446680569611269646e-02,4.851023502443494589e-02,1.510452237100234818e+01
-7.197224735253457406e-03,-2.888049114641372261e-02,1.502187015917832014e+01
-4.772513314730068151e-02,-1.431951016944310075e-02,1.497565596572119162e+01
4.496030667794820301e-02,2.487717315972818449e-02,1.502565390756918262e+01
-4.418183851012352781e-02,-5.659708014675314536e-02,1.501843865179742643e+01
1.307019501565392927e-02,8.689952414644794287e-02,1.494180259436168434e+01
-7.759327125580990810e-03,5.512159003017540887e-02,1.501294600447993233e+01
7.187655459115761293e-03,-2.357119803686464829e-02,1.504034368630487961e+01
3.507656742762976093e-02,-1.792355195176541585e-02,1.500725900368924925e+01
-6.765747641450697847e-02,4.702660448173112337e-03,1.503903187984950485e+01
-6.328543919095463988e-02,-1.624430788729009506e-02,1.504863786006913173e+01
1.915927730092926648e-02,-5.324077860058216288e-02,1.501311293863395591e+01
3.223429968402784229e-02,1.158495607735973189e-02,1.488017742879892147e+01
3.127266371663379313e-02,4.294868944574761066e-02,1.503749461941658794e+01
-6.527656238807190425e-02,-6.138993769587216404e-02,1.495892392314895680e+01
-5.114618857701493798e-02,1.531755900625100461e-02,1.500255296693175922e+01
2.572635236653392568e-02,-1.807882030004320448e-02,1.502038090869885778e+01
1.665871498779611382e-02,-1.676352579504807299e-03,1.503797491942025744e+01
3.607882856815797928e-02,1.926295427594079679e-02,1.498872639568585186e+01
7.029969816341950783e-02,6.927129539102755244e-03,1.494938319788456305e+01
-3.563174102319750791e-02,2.511541801903046170e-02,1.505286886624617537e+01
4.570984374683730728e-02,-8.414705963800386476e-03,1.501204526905713266e+01
4.220808549841509327e-02,3.234926743316356851e-02,1.499988559084046891e+01
-1.976746036354342859e-02,-3.738637797954829506e-02,1.502585680614014940e+01
-2.999101436422093106e-02,-8.154990835759880555e-03,1.503736248364572425e+01
1.848153912781600947e-02,-2.889184675084218584e-02,1.492273614462012610e+01
-4.942789087921639624e-02,-2.076070989255700619e-02,1.504885187563521853e+01
2.888228508286183605e-02,-2.158776699067939397e-02,1.501581813017386047e+01
1.157577836756083821e-03,9.011154681412218703e-03,1.503140359139369586e+01
3.196741871279878272e-02,-3.269005608360692205e-02,1.504543711525660044e+01
1.962758728493502192e-02,1.186883425798809615e-02,1.502823503160231233e+01
-3.543282316857832709e-02,-1.862926430484572460e-02,1.498558034318167209e+01
3.195588740884277440e-02,4.826299594998981896e-02,1.496831219821905634e+01
2.348397564794833456e-02,-3.741596567350000124e-02,1.502296045966137328e+01
-1.835052500372934270e-02,-1.985782388803297716e-02,1.500940603821300634e+01
-2.345874169199980985e-02,-7.945757212369584932e-02,1.493979031635351440e+01
-1.421124097247893937e-02,-7.576831239868662971e-02,1.500451924890663058e+01
-3.027115055189303836e-02,7.389809829627436155e-02,1.497351539915355012e+01
-5.485199582990784445e-02,-3.845525310861978852e-02,1.502697256472130150e+01
2.351962042384486348e-02,2.149991080054819079e-02,1.498917420287068225e+01
-3.983348199132706602e-02,7.206297208703807411e-02,1.503879883903325521e+01
4.599209333284250828e-03,-4.094042925107295450e-02,1.501132215215770671e+01
-6.302710404669774683e-03,-1.827952383720890528e-02,1.502978908938236025e+01
-9.288415294907173547e-02,-5.480504571702625449e-02,1.510607720894990003e+01
-2.190128956921512729e-02,-2.716088783013227356e-03,1.498794871558592945e+01
3.052161980397511548e-02,4.275584246657197773e-02,1.502806206926635824e+01
-4.963363711387651193e-04,2.898018614838122897e-02,1.495066313037701455e+01
2.044528144392684585e-02,-1.087219965993210108e-02,1.497793659613798312e+01
-9.117000772515634899e-03,4.013185815511246396e-02,1.495083151579094327e+01
-1.922548129876739537e-02,2.533438833077681154e-02,1.503946811383533344e+01
-2.901393710111510593e-02,1.058840786728704013e-02,1.502220928648269194e+01
-6.474213066498837876e-02,-5.470487226778238815e-02,1.499924495897173493e+01
-3.425407486870825358e-02,-3.334541057334162312e-02,1.503106660559641305e+01
-3.614424607569240860e-02,1.143178803744029047e-02,1.494639109330408822e+01
-5.028779266370807938e-02,7.274731992920537883e-03,1.495540573238190873e+01
-1.041061965600019630e-02,-6.467666380049925945e-02,1.499756451489918163e+01
2.126648141927257527e-02,-5.740512955179950805e-02,1.499931111712652765e+01
4.347656776535653578e-02,6.914723357840352191e-02,1.502185685780066571e+01
4.726830626957799486e-03,3.313423647056205207e-02,1.505499851321750882e+01
9.087149686768092576e-04,3.593256840122345530e-02,1.503503515224667275e+01
-4.720839974081630919e-02,-2.985391054803166605e-02,1.505217351737776355e+01
-1.927418901942511489e-02,-4.684296789092635971e-02,1.490874015436327582e+01
-3.232002572366069609e-02,8.331616962057994402e-02,1.504831479935219107e+01
-4.551475749378968566e-02,-2.790962635476259418e-02,1.504427689487546616e+01
-7.006652999016411976e-02,3.925658602626082294e-02,1.503400375369056086e+01
1.623725853022043794e-02,1.430711715327865827e-02,1.502535622847536168e+01
8.814862615102468657e-03,-6.530899830572701494e-03,1.499404036304226118e+01
3.227113383403210078e-02,2.035052937846306906e-02,1.505727783822459287e+01
1.180209313577208589e-02,4.253109469388332425e-02,1.495820734507738337e+01
-1.618212226062042472e-02,-1.057413313974778224e-02,1.504188732131057371e+01
5.680922262505980896e-02,1.634242260924766155e-02,1.492705451731098343e+01
1.042389020722073179e-02,-1.367879050656049533e-01,1.502883130468102912e+01
5.624368073934050104e-03,2.391970868054434096e-02,1.497054530662479621e+01
2.574649897145999539e-02,1.374269269622169047e-02,1.501584779567401995e+01
2.146934717727080888e-02,4.272030008056486479e-04,1.501030791149984189e+01
-5.910559137560984083e-02,3.831482212304977014e-02,1.500010830731084255e+01
-5.488615451456124034e-02,-1.079100298912863583e-02,1.500500726555845787e+01
-6.972228562488821946e-02,3.667309610982446167e-03,1.498260166753784617e+01
2.721316733756244666e-02,4.719401966783246666e-02,1.501388087669691274e+01
4.043234123936005620e-02,-7.015729880062691881e-02,1.499908932339773138e+01
3.165421395908074587e-02,3.179791034157786189e-02,1.508912266041090078e+01
4.544609527898689494e-02,6.363165490406237634e-02,1.503101411247297214e+01
8.168598680622002339e-02,3.466484475254604652e-02,1.499914255782202410e+01
4.070200462948713816e-04,2.254121107406113420e-02,1.494582811512815290e+01
-2.560284805756784382e-02,-9.687764026643836193e-03,1.509776964028450585e+01
5.315253369813656079e-03,4.327100881192032927e-02,1.498691411947770646e+01
-8.960587391596723517e-02,6.986792640699315826e-02,1.501952042551555166e+01
-4.394678374341878802e-02,2.843980182145337127e-02,1.504049557815400462e+01
7.081392740109523909e-02,5.456102231859373541e-02,1.493876146738435295e+01
8.225244679702854722e-02,-6.998535315175451188e-02,1.500934294328797769e+01
-1.832307877769248639e-02,3.425526995322658586e-02,1.499036227711131630e+01
4.936825068534477640e-02,4.736340265474294625e-02,1.497969521072671739e+01
1.510388263773214217e-02,3.177705636891341168e-02,1.499332631884084499e+01
1.614795457568597714e-02,-7.565388827560969032e-02,1.503099832275979963e+01
-1.534062317973479937e-02,-3.184011805767362384e-04,1.507937737085065422e+01
-1.881603182051988510e-02,5.473160941857970613e-02,1.503197859278958681e+01
-1.462918637886593577e-02,-3.670457226133229389e-02,1.500216437645004142e+01
-1.574443100377057037e-02,4.140934160123305174e-02,1.508767721037504472e+01
-3.360636815010932532e-02,-6.607402378123647391e-02,1.495590758435921863e+01
1.577264760280169820e-02,-4.521845006685503571e-02,1.499488496264241810e+01
-2.417049819953214634e-02,-6.259431674816236246e-02,1.495631429825120762e+01
3.143737258607198770e-02,3.533204651309732047e-02,1.492668597569394429e+01
-5.857713416847828980e-02,-5.898922311913798455e-02,1.503158417724875129e+01
5.807736699079944949e-03,-3.001502548244869631e-02,1.506342387986363107e+01
-7.169074459980585845e-02,4.979470452036839634e-02,1.503031803763503760e+01
-7.933873788937798044e-03,-1.097825468298295470e-01,1.497488883537057802e+01
2.165398458025906414e-02,1.516603729951877637e-02,1.500429180625187264e+01
5.314995662971740836e-02,-1.309499825285162684e-02,1.496989177813090066e+01
2.188715690254277452e-02,1.438026512084639857e-02,1.508274332978285059e+01
3.188043965139180595e-03,2.645265098242506607e-02,1.505698397710116332e+01
3.686506199188597371e-02,-6.497137685169443455e-02,1.500735899831092546e+01
-3.491327701732263589e-02,4.554356075821713173e-02,1.493362511629305267e+01
5.978872473954356670e-02,7.922449664147459061e-03,1.506854965424336967e+01
5.022285510588363894e-02,2.733123574162195715e-03,1.498589789267987094e+01
-5.000118394269865291e-02,4.349940106932068812e-02,1.500765421404662625e+01
-5.034970128542374385e-02,1.008587108142471565e-02,1.504166536742613580e+01
-2.307736216235660356e-03,1.123537810269921722e-01,1.501956984906713011e+01
2.870607669728657621e-02,-3.814303366268630147e-02,1.502582284949621361e+01
-2.757242010781864316e-02,-1.847440269403917423e-02,1.495675994890587646e+01
3.858682797261558245e-02,5.666710670385250066e-03,1.502651590456662944e+01
8.343412752649008446e-02,5.257417599749373421e-02,1.498200268689225467e+01
2.050565038666164394e-02,-4.087399962995093977e-02,1.509955893928932547e+01
-8.514686860049728093e-03,6.487417900186157049e-02,1.494364879992332540e+01
5.839707495893160273e-03,-2.917448969889665025e-02,1.506431175131667644e+01
-5.838812614890170893e-02,4.431606810526402679e-02,1.488622782690192636e+01
-1.405642841576049303e-02,2.508882080044713692e-02,1.506591600175360490e+01
1.253727354590689416e-02,-5.353636277392262964e-03,1.499810905007883832e+01
3.705378691688889642e-02,-1.881556484684659275e-02,1.501428888268756978e+01
1.657850351963688698e-02,8.084579191118672695e-03,1.490502117361211809e+01
-6.513978886618651543e-02,-2.394596232107322129e-02,1.504393337182380463e+01
5.187457557477174325e-02,-1.763005027059802443e-02,1.504284757464810163e+01
-2.943093193003068833e-02,-1.727885003497525024e-02,1.499310326734529752e+01
-1.791391250052270590e-03,9.366810987869246194e-03,1.510377718395974078e+01
3.024552145229798816e-02,-4.986032460224596591e-02,1.502488217684379102e+01
-9.172340808972721804e-02,4.950595822989377337e-02,1.505846604465394556e+01
1.607505093439001720e-02,8.233227713883611160e-03,1.501433306944724677e+01
4.272430387637519977e-03,-2.471757290783893266e-02,1.500431086288537230e+01
6.784969744349171605e-02,-4.546117664874657627e-02,1.508503458866219837e+01
1.000439183158838286e-01,7.221446745891787859e-03,1.496149274264879736e+01
-1.312985317725828827e-01,4.954949976615291400e-03,1.498232949105876699e+01
5.365140938154900480e-02,2.500773730340439746e-02,1.502948103240600375e+01
3.307733353554052208e-02,-4.044196152261676086e-02,1.505557009472355645e+01
-3.164242387173426402e-02,-1.688416110556581473e-02,1.508219937272260225e+01
1.840667815292085924e-02,-2.339377719320109850e-02,1.496099792962764852e+01
-3.676915523175239980e-02,-6.120194115971187149e-02,1.498019837613041538e+01
4.375453920737738811e-02,3.857504736775358573e-02,1.502574110363713444e+01
-4.331857524014588734e-02,-2.576332296765525623e-02,1.498731635458043066e+01
9.158589962064382639e-02,1.740274607725866840e-02,1.500373683610946252e+01
9.550448013199359584e-03,4.959963764609894889e-03,1.502367456754012309e+01
-7.223975815799084377e-02,-4.454633236716905309e-02,1.500979619951362842e+01
-1.189883148217137435e-02,4.991608497809267575e-02,1.498804785736776779e+01
8.061801540139953981e-02,-7.734920577982763723e-02,1.498477460799315963e+01
1.625941284745845844e-02,4.491275441855136635e-02,1.502190894262951559e+01
3.145442254499691837e-02,-4.779373849214414022e-03,1.501201890430890451e+01
-8.839369827694278092e-02,-3.481140267030253393e-02,1.503001508179445977e+01
-6.479472901893508496e-02,3.339343687517716541e-02,1.496815892810947979e+01
4.858882270554236438e-02,4.649305245783699053e-02,1.505269008771038486e+01
2.559587096452153182e-02,-7.095507446527338224e-02,1.501857054162504568e+01
2.041546007340415761e-02,-2.396643441487908074e-02,1.506899202878602750e+01
2.697634349793975178e-02,1.199227176970159119e-02,1.497281669025573159e+01
9.266307663883703106e-04,6.224340094604211004e-02,1.499488245204341474e+01
-2.411291809690595950e-02,-4.704052408576475663e-02,1.497022957435410007e+01
9.954152138342336684e-03,-1.409535088604933935e-02,1.500290407030518125e+01
-4.761177092402091304e-02,-3.960947888871883815e-02,1.503928060087343432e+01
4.676550313967196837e-02,2.936303695298063052e-02,1.498386870884565347e+01
-5.777121188308413646e-02,2.284285314465177297e-02,1.497131088754689898e+01
5.385876686495794097e-02,-8.749251897712749179e-03,1.497208638964981020e+01
5.177467883699910650e-02,-4.385391953482725702e-02,1.496523509168073396e+01
-1.989154767093176054e-02,-1.379164937121259496e-02,1.502019596646444732e+01
-2.290045752439960267e-02,-1.911077407385815144e-06,1.500917437684375244e+01
-7.131883919250182891e-02,1.543529788110378949e-02,1.501338751134991689e+01
-6.247091179533197092e-02,-7.656208765415084549e-02,1.497316111298063568e+01
1.699680995125114197e-02,1.504847113015976914e-02,1.498520134311308283e+01
-1.352808049089173660e-02,3.565114482807537483e-02,1.499522833137022459e+01
-2.559283546612942800e-02,4.312736499711130461e-02,1.501982332105517948e+01
3.430730801726238760e-02,-5.151412478836629727e-02,1.500366855588967852e+01
-9.622453629218374882e-03,-4.443641073046502438e-02,1.495521350641591596e+01
1.545449301744258180e-02,2.598333192915578196e-02,1.499967386571083416e+01
-5.500205816476215828e-03,-2.144484466296977046e-02,1.499014056927866001e+01
-4.754993262465210049e-03,-2.575857873734120271e-02,1.500616475467238864e+01
1.924367775858825888e-02,-1.939889266488909955e-02,1.493443965156675191e+01
-4.335064303619794168e-02,-2.288479941304865511e-02,1.499892579187001118e+01
-1.368224558344117991e-01,5.460616786955164309e-02,1.500504444182023356e+01
8.162069277500050291e-02,-5.461591799923092017e-02,1.494241674592968039e+01
-2.032371540579273189e-02,-2.910116693940817596e-04,1.502017834887900172e+01
1.548191924814490070e-02,7.436611715393173783e-02,1.503050106887867088e+01
2.174618164978853879e-02,-1.883326919598857924e-02,1.497737671378552093e+01
-3.592285888660726179e-02,4.339306140218469887e-02,1.496974279956933707e+01
-6.121835110536742730e-02,-2.040247339205862598e-02,1.498055840027905816e+01
7.540299881315029595e-02,-1.286960603792040164e-02,1.506053001026033655e+01
8.206402815920586097e-03,-6.121767272870642235e-02,1.499923326568473847e+01
1.674906023109460837e-02,2.291363223106381020e-02,1.500222447750887333e+01
1.322239738135059725e-02,5.853172688942009233e-02,1.503288596968393520e+01
3.805563627471213184e-02,1.896236561115123911e-02,1.505577236981600642e+01
7.670152764842336213e-02,6.273469715501928112e-02,1.505338814122182001e+01
-6.154648377721152336e-02,4.586496636470294673e-03,1.505122575163979093e+01
-4.093396456262791971e-02,2.593026410727751474e-02,1.501988794147127670e+01
6.562786746772673874e-02,1.824947720155836034e-02,1.494734758897827831e+01
-5.560053584873320826e-02,6.344925331857012574e-02,1.501964836004182580e+01
-2.022669556740326266e-02,2.566769123244367831e-02,1.502874237329348794e+01
-2.296534352283178398e-02,-3.714429283772426038e-02,1.500071658267940400e+01
-1.109596688041650583e-02,-1.510440266402274766e-02,1.501501116788121593e+01
-2.850472675708432685e-02,2.592662058340883258e-02,1.502586114205618451e+01
-4.909747451610330105e-02,-4.743789194041721224e-02,1.498662980680690815e+01
1.511728332842772818e-02,1.089624699030426747e-02,1.506348969258704074e+01
4.106362321019716571e-02,-2.160848475435305643e-02,1.498862468138840676e+01
-3.412392281316899145e-02,-3.903842652934130797e-02,1.489384793239054439e+01
-3.088665900505531067e-02,-4.358887207577325645e-02,1.495883254254501438e+01
-5.640400690652797380e-03,-7.760717079659142092e-02,1.499727805240741318e+01
4.242759541981278026e-02,-2.008322450850543936e-02,1.499439934830376053e+01
-5.558626359804848954e-02,3.548135554960480526e-02,1.504877183709136013e+01
9.839740142261597933e-03,-1.458252355469983122e-02,1.503421634530045914e+01
-5.638432394820486714e-03,-2.829685253591564167e-03,1.503469318286922629e+01
-4.648555661169218728e-03,1.179773283849808174e-02,1.498412792710496255e+01
3.095576237992587326e-02,1.126858468870992058e-02,1.495150940175654597e+01
1.221837943720511729e-02,-2.041472456133785682e-02,1.503014646649111974e+01
7.245583064394070516e-02,6.774791065518839979e-03,1.498856309917094620e+01
-7.901385132419455962e-03,-1.876393270634549651e-02,1.506803006631938757e+01
-5.123565024011977193e-02,1.901339088214103884e-02,1.500177472761618525e+01
5.621617045963039905e-02,-8.305170361050658945e-04,1.504527670427747488e+01
5.985850286633833534e-02,1.066990853197930661e-02,1.502563446126895741e+01
-4.829590879974102885e-02,1.894132585091408243e-03,1.502362172662950535e+01
3.133958379615522927e-02,-5.159377960911782496e-02,1.498765923322626037e+01
1.678586150830226401e-02,4.214009533818469100e-02,1.501798903500225002e+01
2.625671976261638105e-02,4.863180011331219577e-02,1.504256627156231296e+01
-2.592949729939562561e-02,1.716267682730289457e-02,1.500253780171955498e+01
4.550293369515347880e-02,3.458235040380520237e-02,1.498270710120446303e+01
-2.911612133735792807e-02,3.945353068132169405e-02,1.498385638002574716e+01
1.720948435616569822e-02,-7.822033988985788167e-02,1.503155090609104150e+01
-2.457807336763147537e-03,5.612049646821293258e-02,1.498708309862500343e+01
1.200797823230750384e-02,-1.319096909199717407e-02,1.498977554786845090e+01
4.070245269152879264e-02,3.654211961017876913e-03,1.494846754398768063e+01
5.112231678637618737e-02,5.073368375854180219e-03,1.499244076351467392e+01
3.535100274325981423e-02,2.692175649357374245e-02,1.499306989387160627e+01
-3.497726050243162715e-02,-1.740752087048844099e-02,1.498720564522688647e+01
3.127131747682677237e-02,-1.637233868220974720e-02,1.497965072451804147e+01
-1.102292996258911612e-01,7.941121014259665267e-02,1.497605032434657168e+01
2.953605258521829757e-02,-7.888727818820415877e-03,1.501095627453583248e+01
4.238400443200424778e-02,-1.057440619567413670e-01,1.502198639848947614e+01
2.212455985187935029e-03,4.052051819520933323e-02,1.502903207628477844e+01
2.970190404622967406e-02,4.064341049375002485e-02,1.506404699193999619e+01
1.799754087384788188e-03,2.723759685459956753e-02,1.497462044625920896e+01
-5.335410854912710915e-02,4.134229187639056058e-02,1.491242728582612465e+01
-5.046068124902838153e-02,2.743490152188468589e-02,1.501207394931797445e+01
-3.564494168133214291e-02,2.860462727119608001e-02,1.498098013831790887e+01
-7.833895548551784299e-03,8.655408824223109754e-02,1.504284681840689508e+01
-4.594134969069110785e-02,2.876223271627790720e-02,1.495354096812419442e+01
7.387986151340594776e-02,2.007261080571103723e-02,1.505289361090632028e+01
9.593756340598467991e-02,-2.687628862109829250e-02,1.494940846584662353e+01
-5.314862419818883882e-02,1.188118866811478484e-02,1.499398212663952279e+01
2.403039330721944838e-02,2.714369956995878186e-02,1.503085204045845380e+01
-3.511713869796362353e-02,5.353936055683194278e-02,1.501044162948991456e+01
9.020458684624272500e-03,-4.910386036207232269e-02,1.499871843492688583e+01
3.068717613734273791e-02,-1.873807096585841658e-02,1.497022768311189544e+01
3.226932599945154384e-02,3.791673587514998028e-02,1.494653779880062849e+01
5.736339965637348576e-02,3.870137398318144323e-02,1.503663450510811117e+01
3.668761181233800434e-02,1.558129638687938152e-03,1.501807141845945104e+01
2.925761174168742609e-02,-5.201119826579754871e-03,1.498391531546227995e+01
-3.841755766889188520e-03,-2.234544981657726054e-02,1.506114074674954573e+01
4.574719212772897226e-02,3.016989991784799208e-02,1.503134351813946701e+01
6.434878737402797977e-02,-8.033040843369211592e-02,1.497830615716411629e+01
-2.516483121537753040e-02,2.543379353727304518e-02,1.500636629943096345e+01
2.177059576571650432e-02,2.747462591225524777e-05,1.498692512356817907e+01
3.187145877526521669e-03,1.281060427600382579e-01,1.493431871902340191e+01
8.425329324387859087e-03,7.384468301770545640e-02,1.505384890318934943e+01
-6.467862986062918040e-02,3.970501773018028256e-04,1.500268157277280068e+01
5.115638704413932869e-02,-4.724777690576893729e-03,1.504493103825671696e+01
9.293352884726273355e-02,-2.496521641572800251e-02,1.502053440268336892e+01
4.178596816404160641e-02,6.575214333251516892e-03,1.499070545068147986e+01
4.500565638615159486e-02,-2.979639398870468497e-02,1.500303817474130952e+01
1.359925553613210679e-02,-1.753617361472784367e-02,1.499826666107335171e+01
7.505355418761294750e-03,-1.257125401685229293e-01,1.494292774527895773e+01
-5.128264867566604060e-03,-5.620878029597164288e-02,1.500738070947066660e+01
4.578468690776460459e-02,-5.399681326354265759e-02,1.499246463069692936e+01
4.996000491274255224e-03,-2.659061653927162830e-02,1.494502786442343201e+01
1.720930801017757621e-03,3.348592526617313880e-02,1.506844979040582011e+01
3.929516761263827235e-02,3.999883137280363377e-02,1.499667187850454830e+01
-1.837207540488135574e-02,-2.870505863840275979e-02,1.504819181474168133e+01
3.926352760214356884e-03,9.087456645557682663e-03,1.501128343151668787e+01
2.098848242814316256e-02,-4.968858493968623426e-03,1.498486008989643992e+01
-2.594458861944263801e-03,-7.507450951306086570e-03,1.499471118730705577e+01
-7.013191830765697077e-02,1.598665942338219070e-02,1.501504133708769295e+01
6.364914208272137719e-02,4.623958473587556905e-02,1.492233825059004104e+01
4.944381709217200022e-02,-1.611762047456136854e-02,1.498993589325766251e+01
-1.470892790433019938e-02,-1.034002849564954855e-02,1.496167908782322442e+01
-2.409661139486001663e-02,6.212761190776538295e-02,1.498511454998276093e+01
1.064540799999223871e-03,1.632559060766293826e-02,1.497149721371242315e+01
7.745235094615036953e-02,-7.356828802383168957e-04,1.505124909238943687e+01
3.811567075936666410e-02,-1.477815034047730118e-02,1.497383780060327396e+01
-5.533874844279584870e-02,-2.244158189054552485e-02,1.494186437187475391e+01
-2.259215438256496206e-02,1.535269298630735635e-02,1.496404733511795015e+01
4.982356482361884054e-02,-2.388145904802434563e-02,1.495929651114878212e+01
-4.816551221094730190e-02,-1.864033709202585209e-02,1.493426956800412242e+01
-2.635467086572166120e-02,-8.502323587564772356e-02,1.492118666225601764e+01
2.181490369736510324e-02,-4.993496723398113159e-03,1.511453147199326352e+01
5.869021269447299155e-02,3.491106479103202320e-02,1.496503228262955076e+01
6.569496616483004592e-02,7.560084927959390654e-03,1.503281228698748606e+01
-8.563966728688707231e-02,1.102440078381300252e-02,1.494667579016782888e+01
-1.910519279024723918e-02,-2.201718350562437490e-02,1.504649135919510172e+01
1.414170842215737439e-02,1.296800729929729716e-02,1.505067380946754163e+01
-6.898174523362711474e-02,3.957560990174411458e-02,1.503485492371101806e+01
7.973506442324827803e-02,-2.643879145403235913e-03,1.499909632978782525e+01
-6.932758802067151560e-02,-2.102764870101341346e-02,1.492718373594956205e+01
-6.674759951134084934e-02,-5.058360017922612639e-03,1.498101947224933106e+01
4.657292051723726373e-02,-7.355488842617549823e-03,1.501608064065879944e+01
-6.130351793062684129e-02,-2.364721006543644283e-02,1.498255826718929029e+01
5.245590701835216091e-04,-2.528794084502823669e-02,1.500668958359641358e+01
1.717293508969069743e-03,-4.181601962975315528e-02,1.508158173920052114e+01
-3.149083402343160615e-02,6.635658670322787389e-02,1.499974838661770704e+01
-1.958968594328468205e-02,1.463482260431801275e-02,1.498398803178790750e+01
8.023320714206780974e-03,1.989448387214042685e-02,1.494392242010287042e+01
8.889444099780859088e-02,-8.450958765629980329e-02,1.486726003167434484e+01
4.835396393070075238e-03,7.026726492091538157e-03,1.501970722035910555e+01
-1.117397089462195299e-02,-2.283193083436922677e-02,1.500377664665436406e+01
7.163107511069698174e-02,-3.518050968490637337e-02,1.498662003494214900e+01
4.057203416361117310e-02,1.014883550191143097e-01,1.493726982259201463e+01
-8.500356558852634192e-02,-4.256250417838488426e-02,1.494489710608878319e+01
2.087374457309434592e-03,8.909439613712228506e-03,1.500196936941703463e+01
6.816620123378028251e-02,-4.250147852189881809e-02,1.495073425625065333e+01
-2.065231373842952786e-02,-1.361856086443796743e-02,1.496513334686279073e+01
7.342557572334443283e-03,7.252589573013544857e-03,1.507878781965601434e+01
4.104553466168476411e-02,-6.212460763030674959e-02,1.500410057294856969e+01
8.303256348527614933e-03,-7.555429084827908377e-03,1.498158272834398730e+01
-1.000400331617750382e-01,-3.281679988684321758e-02,1.498275030349357451e+01
3.351553119260718139e-02,1.502081824452641476e-02,1.499185443962132780e+01
-1.027841570886023868e-02,-3.132026958475096073e-02,1.493310362033083294e+01
8.685989943258828547e-03,-4.103924928812771600e-02,1.503374656920219898e+01
6.813326518295068079e-02,-6.986421934094828000e-03,1.496477731838702141e+01
-9.341285565649099995e-03,-7.152601031539337906e-02,1.496621677714040821e+01
-8.496078266520388014e-03,-1.716972269802493831e-02,1.498346662499045401e+01
-1.633109662999299855e-02,-1.017409302305766761e-01,1.506280482313983526e+01
5.197615869943982003e-02,-5.017596752566321795e-03,1.502530022038270729e+01
-2.217134641809897014e-02,-1.859852512982322278e-02,1.500944499100453022e+01
-1.228613041933510584e-02,-9.245795674216869195e-03,1.495093404516397406e+01
5.514306172927518207e-02,2.320900104796185925e-04,1.492516870688202069e+01
3.480089118853176011e-02,3.708703410429852604e-02,1.503278075685197379e+01
3.794825636751527481e-02,1.092045628585161694e-02,1.501186666108958256e+01
6.474145342811971071e-02,7.471085381154281280e-02,1.507286267013982162e+01
-5.147259141477183650e-03,5.398143430246542251e-02,1.497013051887094193e+01
4.927705995092836189e-02,-9.607592331598887106e-03,1.498506013708362872e+01
6.340041333146062552e-02,2.718539300243079729e-02,1.503489824000671859e+01
-1.080514227551201967e-02,-1.817374311170611226e-02,1.498413654017983987e+01
-6.903057492672041995e-02,-2.557453930020466004e-02,1.505594072484644919e+01
2.192323079597969376e-02,-3.374634351180401219e-03,1.500671521991725754e+01
-4.428310334607435395e-02,5.063277564490886729e-02,1.493618494755911286e+01
-2.591882733447017223e-02,4.961956263449357474e-02,1.503532210254262935e+01
-3.084121601048181796e-02,1.284390105261865381e-02,1.491725137588573169e+01
3.248078557046159276e-02,1.719573832458819521e-02,1.502977740657845374e+01
5.186384852466219969e-02,3.493856191502762998e-02,1.508634927675951509e+01
2.386186113299757633e-02,-5.089051473027614292e-02,1.495627620067811492e+01
2.640983226590724528e-02,8.208921782847365678e-02,1.492509785371199271e+01
1.996820627188562736e-02,2.669008177985832120e-02,1.497814200173082000e+01
7.038088621031364511e-02,-3.149052195422910594e-02,1.503229483907007236e+01
3.056838342424304106e-02,3.106195141704407719e-02,1.495080058811910462e+01
-1.684875532238031687e-02,-2.752321818948469390e-02,1.501162661356995720e+01
1.691122293438060073e-02,5.392118878079326522e-02,1.501194567315908479e+01
-4.483068006314052528e-02,-4.095798177543742008e-02,1.503756603365473765e+01
6.890522931428780251e-02,-5.393067062364273467e-02,1.499117279944453607e+01
3.040743581126572476e-03,-1.720491271581260639e-02,1.498314042610243746e+01
6.595422362361956937e-04,2.297401389241661776e-02,1.500886354820781499e+01
1.453901443153748398e-02,3.451765421707468640e-02,1.502028847752112384e+01
2.349842256049188005e-02,6.926085205303224301e-02,1.502153553483034010e+01
3.628566877142527097e-02,5.461483645974445078e-02,1.503227334019103445e+01
3.518077367860050070e-02,-6.448455236326837425e-02,1.496392885011496965e+01
2.370481646655810126e-02,1.237894493093161935e-01,1.498296664883595852e+01
2.699486055622842343e-02,2.146573633356447033e-02,1.500178999698755966e+01
-3.945952097779446615e-04,6.833423947136928710e-03,1.502149902564860007e+01
1.141869740093760799e-01,-4.870317073347166237e-02,1.493389739012679485e+01
-2.536592154178220204e-02,3.901335573328530010e-02,1.505567033560965129e+01
-1.001903380551466029e-02,-1.966513838672789491e-02,1.502536403375163765e+01
1.558942095999962460e-02,-3.589379402704159089e-02,1.498634880867251518e+01
-5.538476661531839540e-02,1.592457555761385077e-02,1.502497991679453726e+01
-3.010879777016845990e-02,9.673702752256588266e-02,1.497412373332742419e+01
9.137787253206961988e-03,6.198389386281527580e-02,1.505722762584476371e+01
-3.564361613701078763e-02,9.151070281271277834e-03,1.509030175010803987e+01
3.858973935195472021e-02,3.060563915092161594e-02,1.500822133937244196e+01
-3.096191419779524816e-03,2.771724297773655102e-02,1.501784133780064856e+01
-1.914769756778264900e-02,-1.828355944260609545e-02,1.501892501375698608e+01
2.144672558579600527e-02,-1.115841479485051024e-02,1.499265892480101847e+01
-1.833169426590013085e-02,3.451769019332365934e-02,1.503446748397828969e+01
-1.582648738358318624e-02,-5.348191605764769478e-03,1.505761150399422732e+01
1.983289083602947020e-02,-5.770909968549270581e-03,1.505637604133378638e+01
-3.291178744242789084e-02,-3.597968528722076537e-02,1.496136089081286258e+01
1.169701166906836343e-02,-2.037414996275060258e-02,1.497502573435400208e+01
1.329164339420362551e-01,-1.693637427818752220e-02,1.500784038825308109e+01
2.093901134183477619e-02,-3.630092578404867099e-02,1.497205370975470373e+01
-1.060912926645856519e-04,2.662366210481693050e-03,1.502913931292852467e+01
1.232266604064745147e-03,-2.554221766509066904e-02,1.492292393376802195e+01
-4.895861379712301842e-02,6.866325878058010534e-02,1.497419166538322344e+01
6.630344187134047662e-02,-3.655415898911201084e-02,1.513462945362193857e+01
-9.215449869073473466e-03,9.920005556182255602e-03,1.505058799140205572e+01
-4.411327635966583866e-02,8.473587553877653250e-03,1.490608229248343264e+01
-3.081053188754229958e-03,1.913738922015020870e-03,1.493577402898377571e+01
-7.821184791299307104e-02,2.151051360292075693e-02,1.502129976886369533e+01
1.997066089188374860e-02,1.124354228487295642e-03,1.502195226002502970e+01
3.778545998775974940e-02,-4.568886487112098355e-02,1.503887450204065601e+01
-2.243550910919179728e-02,-5.554903698606869500e-02,1.501147166243451458e+01
-1.979232523970503310e-02,5.241616324581131053e-02,1.500203114915369795e+01
3.445573227422392415e-02,-4.338906061648175466e-02,1.502486331845427436e+01
7.226385274165976480e-03,-2.761125534902753725e-02,1.494486772866080670e+01
-3.750589503800024621e-02,-6.171048907871560379e-02,1.513598508585128677e+01
-3.390624164289184062e-02,6.717788690760990999e-02,1.503856150121230151e+01
5.156388021513925307e-02,6.357952159190979891e-02,1.503673522232739046e+01
5.224942307692317586e-03,-2.080991489649933190e-02,1.506918739340444802e+01
5.882615806146433007e-02,-2.841541950996227112e-02,1.504801963064904946e+01
2.490352639712278132e-02,-6.967880630811941478e-02,1.494331862460533245e+01
2.370356248707210581e-02,-2.295955309454326965e-02,1.500253506112245283e+01
7.631465943775923855e-02,-3.409573189060294274e-02,1.501204933035617373e+01
3.731731612320140362e-02,3.256299271237254184e-02,1.496248950513617437e+01
-1.942008020042739662e-03,-2.322270227769402708e-03,1.496730431401053529e+01
-9.105409573984963797e-03,-1.029866849523431924e-02,1.497938927977102175e+01
3.181809215988410516e-02,-7.366580183029221296e-02,1.501816714520381701e+01
-1.202064221199062866e-01,1.320680124882077019e-02,1.504889866777691232e+01
-2.503745949316986755e-02,7.314404154747608522e-02,1.507063519552476727e+01
-6.137283697472975747e-04,-4.394808350935467539e-02,1.500361216475396731e+01
-5.810854207199506183e-02,-5.337411151069417631e-02,1.498983835243542373e+01
1.454017314639663612e-02,-7.102107830159992696e-02,1.497956874327215004e+01
-3.344200658716331431e-02,3.639359176978135268e-02,1.500585344395895859e+01
1.755041476528880137e-02,-2.295928245657106667e-02,1.495546837389304606e+01
3.733249978607049158e-02,3.979997176281757643e-02,1.506084801361370751e+01
-2.925795957000616732e-02,-9.424738887524182485e-02,1.502442280976255340e+01
4.973816671670304446e-02,-3.608683437650549858e-02,1.501375381289987665e+01
-3.961873197074564090e-02,-2.202801504527003226e-02,1.503633091765319207e+01
-1.899389347882684750e-02,-1.615811227094207311e-02,1.494126711049188039e+01
1.644128285916723539e-02,2.470980247879223449e-02,1.498563011650619892e+01
-1.234157796180423115e-02,2.698920807243953418e-02,1.496778253709266338e+01
3.724334598879827651e-02,-5.630822023876707466e-02,1.500607055209766116e+01
-5.950172534192494506e-02,7.508300213217381121e-03,1.495215208086587921e+01
1.950314873302980839e-02,-9.068765476453095886e-02,1.500252274279768194e+01
-2.012382201668443116e-02,5.113937733224618171e-02,1.501251494045917312e+01
3.608796065197203418e-02,-2.874875231211357005e-02,1.494851319722314820e+01
1.815054832598268081e-02,6.682082054844816488e-02,1.501811085249498312e+01
1.752697440712664909e-02,-4.302615534459328095e-02,1.499875097770644494e+01
4.052299564034814172e-02,-1.347822205168626268e-02,1.496660913704094931e+01
-2.304513552064458431e-02,1.539326493645020756e-02,1.500081478967003257e+01
-3.233847665643088676e-02,-8.069048057653266381e-02,1.499610084937402021e+01
3.250200736935687090e-02,1.058096321852729227e-01,1.502774729225886752e+01
8.948698875820801672e-04,-3.608384162433675435e-02,1.500834237315225295e+01
5.451561884769721977e-02,-7.088245136105746080e-02,1.510795032028243767e+01
3.873723071929444962e-03,4.975581140862087720e-02,1.500615054200711818e+01
-6.793325316489585639e-03,2.349366475420783945e-02,1.492211264250119562e+01
2.709446015759412341e-03,-5.085463885321186289e-02,1.493493764708390259e+01
-4.655113427706090296e-02,-3.956295548157618552e-03,1.500743896150830992e+01
4.223298130917973320e-02,-3.262669936101499427e-03,1.506129277949589351e+01
3.644959727957995665e-02,3.616654716124131919e-02,1.504114002618757162e+01
1.872231749230737069e-02,4.091026796851816166e-02,1.500967133330007108e+01
-2.111049834448945964e-03,2.925415554688864592e-02,1.493532845355551508e+01
3.693923029520412848e-02,2.794385902507699401e-02,1.496779752260460938e+01
-3.885583277784100675e-02,-4.206754171582645363e-02,1.497016009231349187e+01
1.399261626275288654e-02,-1.301505562291966137e-02,1.504607738364871494e+01
3.903088854068267888e-02,8.377823959189402338e-04,1.495209369047573311e+01
-5.343439129593560016e-03,-5.233976255419885149e-02,1.506313948815174264e+01
-2.601214037839023885e-02,-3.655194052130206900e-02,1.501694306770845877e+01
7.610878055330869141e-02,-4.320612950844707201e-02,1.498355020695672302e+01
-5.785034689459730983e-02,4.823992813659596507e-02,1.493014903148566397e+01
-4.160954010681269799e-02,-2.691406144512517324e-03,1.503475590537262541e+01
6.400074945150142566e-03,-4.477874531856933932e-02,1.500451081276109200e+01
4.277009809002509100e-03,3.741534551433539808e-03,1.497378557851354586e+01
-7.167391114062525437e-02,1.572473383329456298e-02,1.503472015697073161e+01
-7.690334115094953071e-02,1.320698470469183240e-02,1.496912545240131998e+01
2.106539578899671583e-02,2.182391808443415182e-02,1.506587896562501783e+01
6.604264231255838058e-02,4.575287756945673606e-03,1.497834285262479703e+01
-4.855261687500519660e-03,6.939807896923193276e-02,1.497207850531762396e+01
-4.254950619267934553e-02,-2.168045649578390077e-02,1.488649813404195932e+01
-4.258080139181884272e-02,-4.824091020508465555e-02,1.498558765632852285e+01
2.945228012559803280e-02,-5.307746003805144906e-03,1.505838409797998700e+01
5.580536151914727155e-02,-4.469941214915990058e-02,1.503394655896525478e+01
-5.817180033924580079e-02,-2.902549121843598506e-02,1.496249458142069955e+01
7.533934046187140687e-02,5.794627384964431971e-02,1.497715936609622034e+01
6.596560585308436364e-02,2.287541999659640710e-02,1.497044191385381673e+01
-5.677654359634667913e-02,3.220210780429162006e-02,1.504700668838167132e+01
-3.125285342876395200e-02,3.593387672846589526e-02,1.494999638145723964e+01
5.763088183622836098e-03,5.723678501998946157e-03,1.497849362572884502e+01
3.969077808802011151e-03,-2.468109474808740864e-02,1.492201786186741508e+01
-4.322034149664932129e-03,-6.110604132411667777e-02,1.497245856483523951e+01
6.145561421409071606e-03,-1.900972464774847853e-02,1.501885862734078714e+01
2.110693811687596941e-02,9.517760889405285640e-02,1.508085955070583850e+01
3.468801562048041964e-02,-6.608047200394167979e-03,1.502153956573439153e+01
-2.807839103275636128e-02,1.304398808139133926e-02,1.492105553030572196e+01
-1.063274108636470469e-02,2.257012496289087164e-02,1.501474217450152970e+01
1.807816299450655528e-03,5.311591476723271504e-02,1.507384592898418596e+01
3.685918066963211198e-02,1.844076251475624054e-02,1.495614251664648187e+01
1.645459704143018703e-02,-6.483149105607378948e-02,1.496758962534700999e+01
3.174239023891382849e-02,-1.482988415926636827e-01,1.497635769466712752e+01
-1.606610099487299978e-02,4.803342360239257897e-02,1.504971349358807053e+01
4.492485535544311535e-04,4.895145030419089174e-03,1.494534118450617655e+01
-1.081573378977366932e-02,8.387344145923128491e-02,1.503458242425517000e+01
7.810297800992922063e-03,6.039168667947555913e-02,1.504151564356489779e+01
7.680549245555842730e-02,-3.603197620175080818e-03,1.348790436490751787e+01
8.361969210775201458e-03,6.942049965453334082e-02,1.211880619706052720e+01
9.589099461420170318e-04,-4.396214747226387387e-02,1.082152488451500894e+01
-1.631856881634300566e-02,4.456227193966581096e-02,9.847752729033397046e+00
3.571971178591842183e-02,-1.886821925583102855e-02,8.927012617588035326e+00
-1.067519123415477944e-02,-4.228862651219433139e-02,7.916914003154596813e+00
8.440220535876377357e-04,4.729141363599288772e-02,7.136912516400677475e+00
-7.172881639177688951e-02,2.527166664311160729e-02,6.463312494877160752e+00
-6.601328233248640598e-02,4.385824502362496019e-02,5.771738428686383315e+00
-1.410694623781696619e-02,6.795295187334540743e-02,5.216194122733980088e+00
-4.660040024010685816e-02,-1.678651968854489446e-02,4.682942364680598324e+00
-2.733449639718053478e-02,-4.885887992406588026e-02,4.276762223742561986e+00
-8.898566946934909072e-02,-9.981565217802788881e-02,3.808002523492946878e+00
5.126070327424332024e-02,1.558651775101918373e-02,3.450862407191597203e+00
7.728444347713902055e-03,-3.308783146007882037e-02,3.081150141527357889e+00
-3.394788219933238954e-02,-3.078215910576792558e-02,2.793068317313116111e+00
2.092915714964511953e-02,-6.071413739761093858e-02,2.421531062319010275e+00
1.892875278251437976e-02,-4.772360273434539391e-02,2.215737988858878627e+00
3.043851109725638493e-02,-5.873989371753995936e-02,2.034737223076460655e+00
-6.244117836893790796e-02,-4.061837741688228975e-02,1.801963273486651751e+00
-4.430612252307105509e-02,6.297645622062282567e-02,1.648299857535098667e+00
6.341896164769727888e-03,-5.341649690224611891e-02,1.453499410606138076e+00
5.105513305917964290e-02,-8.872931896198114898e-02,1.319541826733035661e+00
1.715553934505769165e-02,6.019794285108803072e-02,1.222053805670089810e+00
1.285816173335026301e-04,-2.910895365955725247e-02,1.029965438987776150e+00
-3.770164948298759117e-02,2.268053874433703307e-02,9.809344993264442758e-01
3.230940640463394325e-02,2.476215377525733605e-02,9.362845963196035903e-01
2.723360563897333358e-02,1.917619685819269698e-02,7.561622410052936116e-01
1.129742265546946345e-01,7.034880258368993167e-03,7.679885416632825645e-01
-3.691372126004820176e-02,6.193325474111836815e-02,5.904483848711595817e-01
-6.912571816066147290e-02,-7.649048724798410137e-02,5.950625030464257170e-01
4.301296464126407038e-02,-5.050768762335627882e-02,4.917632465367839933e-01
8.967760332374713483e-02,-1.864092465459629006e-02,5.631405294727909183e-01
1.678393886169945656e-02,3.049294476087900316e-02,3.909821176120567010e-01
-1.454507296873215963e-02,-8.956924609443025348e-03,2.939220725326933681e-01
5.921261768256328578e-02,-5.106193291220882668e-02,2.909213968784229443e-01
-2.943266801323218655e-03,7.949699645682581362e-02,3.398581503343294230e-01
-6.905820468449867799e-02,2.081724306172348887e-04,3.448441445625631263e-01
1.789919918168147300e-02,-4.894175548807075393e-02,2.337584398281630782e-01
1.431543478249488847e-02,5.978592531085519940e-02,2.639523419700896545e-01
1.391564183095351202e-02,4.410272395050738453e-03,2.396450391749948006e-01
-2.697217443013192467e-02,-3.387730947284389033e-02,1.559758191320696485e-01
-1.969429703995971559e-02,-6.243971641128100852e-02,1.533510184863499937e-01
-2.443799185779240487e-03,-1.729025022865967459e-02,2.187653710590724832e-01
-7.692919394644144593e-02,7.233669638697075299e-02,9.887082935525833005e-02
-2.598539622572437757e-02,2.386986562762518846e-02,1.234737295635820881e-01
-5.666368773228201011e-02,4.185561743588675498e-02,1.727337197636396038e-01
-1.117262693050819801e-02,6.430500549832841861e-02,1.029794478024487758e-01
2.631453433375651602e-02,4.861557618427321537e-02,4.513574697855794737e-02
-3.391978345121793997e-02,-5.269909206052067474e-02,1.125744269546721105e-01
-3.404773357830168101e-02,-6.880919788109561563e-02,7.907030001322928880e-02
-7.297432787124252807e-02,5.133299330831575524e-02,3.874542224479742697e-02
-2.881951823678101030e-02,2.620085455350190315e-02,4.594914077100836075e-02
-8.357110155955047547e-04,-6.093837055175925499e-02,8.609588485591744556e-02
-2.707775963798248614e-02,4.508712945835652297e-02,2.307146040379197405e-02
-2.361887715556441371e-03,-6.883322444228325877e-03,7.066849770019922872e-02
2.800824710432547535e-02,-1.130512434463032817e-01,1.269512672738022929e-01
-4.513001277320212792e-03,2.361774594439464484e-02,-6.677189619264151110e-02
2.335126183885411107e-03,-2.444459789487126583e-02,-6.152377828450288771e-02
-8.575408631175363353e-03,1.111002706228015995e-02,5.964569295508023034e-02
2.722526550937832100e-03,-2.479973444041927086e-02,3.778282539707846117e-03
-2.327191647741132588e-02,2.749883633913707132e-02,-8.492387590679637693e-03
-5.287333367391268413e-02,-5.359230528166498281e-02,-7.349794482536388396e-02
-3.655444677039466905e-02,-1.098089588835250187e-02,2.109502221989961387e-02
-7.703829392056701052e-03,6.856940470591578463e-02,-4.746680789970941783e-02
-1.492826085155384876e-02,-7.908624071685588230e-02,4.967245409567703877e-03
-6.478638283950871601e-02,8.143060015814983232e-02,-4.942271237772297154e-02
-3.417205045453666074e-02,-2.018087666714768122e-02,4.965738264078607689e-02
-3.061023275498086366e-02,4.464323365231587931e-02,-1.502844681248984710e-02
6.400437681601504891e-02,4.352451225996923669e-03,3.381572685401385003e-02
2.022574916263568563e-03,5.628260474107627670e-03,-1.666063097086474673e-03
-4.722621017654481806e-02,-3.107598008989557667e-02,5.519718597951667194e-02
5.663806585343986871e-02,1.131653586039972278e-02,-2.129714928658959019e-02
3.077228535341887394e-02,3.675293355263404421e-02,7.777471894836322786e-02
1.467205669354852693e-02,-8.186796620833814569e-03,-2.794388735918176478e-02
-6.335531610781680589e-02,5.201247480510143295e-02,-1.983417609078818103e-02
2.701730093814208589e-02,2.727819184351212498e-02,1.000639171973921257e-02
1.338238365957336237e-02,-3.050624289614895304e-02,-3.743224471204601670e-03
2.965080997829450463e-02,2.697854932853364571e-02,3.518403332905627873e-02
-5.744576093200871869e-02,-7.800011602840255936e-03,1.158121117340747859e-02
4.850665766696952291e-02,7.665176214103462671e-02,-1.895055230714871169e-02
3.103230900360242489e-02,2.777734835588131432e-02,7.933185646376279907e-04
7.227494319542532297e-03,-2.751611837127151180e-03,3.812304350508857048e-02
5.439171235345353905e-02,-7.533648121080174960e-03,-3.843040744457137253e-02
-4.525790920598341503e-03,-3.729776557084803212e-02,-4.440022821906494666e-02
4.408530584641832950e-02,-1.193491058008287579e-02,-3.699074268039447694e-02
-2.510673467487133104e-02,1.329330402754339523e-03,-4.338256146474196717e-02
1.980345448897109090e-02,-1.317924005298666892e-02,-6.119727213112943071e-02
-3.507516932075462751e-02,-1.072937245404584489e-01,-3.683524837276648534e-02
2.846597993769606205e-02,6.574841449372666354e-03,-2.201665462414500139e-03
-7.623909240449053791e-03,-6.902360287272425211e-03,1.534553315352675008e-02
7.279913268948086380e-02,3.915480150832720274e-02,1.234803189182679534e-02
-2.327063835823709598e-02,2.499287912280057436e-02,-1.119504732967336290e-02
3.617368685046980920e-02,3.881149222855662800e-02,9.108360823087235936e-02
4.145011334049582968e-02,-3.826245663250205098e-02,-1.445462391548776870e-02
-1.716554035665544820e-02,4.750699112658476192e-02,-3.535822530569669719e-02
8.177602156107108278e-02,3.965006443454488494e-02,-3.843917273910483351e-03
7.801800480869587606e-02,-3.030970851202623509e-02,-4.871409367612379712e-04
6.948934959792896215e-02,-4.480744970200335048e-02,-8.772030147253492491e-03
1.145311259465674712e-02,-1.087855646149947786e-01,4.566485947512118754e-02
7.390825791155274105e-02,-1.867474217736380185e-03,-3.057173228367878609e-02
4.956429862192685692e-02,-2.741125613180417711e-02,4.531150042616904905e-02
-2.663198219320571727e-02,3.435289936215404211e-02,4.198879642231518466e-02
1.336018386549665468e-02,-3.226177434743253414e-02,5.392205915133682116e-03
3.562187283863153982e-03,5.698716516348444755e-02,7.548153486894593200e-02
-3.916987767192064984e-02,-7.983480926132490406e-04,-2.525433282739885515e-02
-1.462122256534352169e-02,5.558657632778332691e-02,3.668481940733500646e-02
-6.802927540580663845e-02,-6.979964110709943603e-02,3.749616749721042946e-02
4.086793986861950168e-02,7.573364822691110165e-02,-3.507395827053597093e-02
-6.078165052544578367e-02,-2.052531419360498557e-02,-2.507402433936999422e-02
-5.033162922685381624e-02,7.111424818005669668e-02,5.797170490865938275e-02
1.180613243406157357e-02,2.034188627886866774e-03,2.533309789231318401e-02
9.148113710547682575e-04,1.800159258868750875e-02,-4.618172940913266300e-02
3.791839892354311597e-02,-3.026341588037973276e-02,-5.477940977040118842e-02
8.253783724859839466e-02,-1.978351626703451355e-02,-1.720371569507227888e-02
-1.264339195602925958e-02,-4.826524579463311454e-02,-3.895210757437492927e-02
-2.963926287364827827e-02,4.646188351195756905e-02,1.059076271280883809e-02
-1.397027759718121390e-02,2.923093109729306069e-02,-2.385197479014735181e-02
9.104284199945690548e-02,1.402165870981620342e-02,-1.564964180707173816e-02
-1.078706726157219360e-02,-7.783767421095605377e-02,3.488336860883649304e-02
3.279251957538049673e-03,-4.304473400003389072e-02,2.021804129778921599e-02
1.089160288922244070e-02,1.959281054837610364e-02,-5.383908555276006869e-02
-6.451666122838363437e-02,3.163247168192602488e-02,8.667606502232468729e-03
-1.222753140407042971e-02,-4.885237179855726405e-03,-2.396158153294157198e-02
-8.158398634935700236e-03,1.406519859893539531e-02,-5.434689894580257974e-02
1.962486230202500903e-02,4.679054412129564182e-03,-8.711804348271273701e-02
-3.966881394749888212e-02,2.833970664766651687e-02,5.003336080447647050e-02
-3.449772850389080936e-02,5.621314362847057433e-02,1.115313535628475669e-02
4.669874511763558167e-02,5.800354304112485121e-02,-3.699064727186307522e-02
5.919008365329936350e-02,-6.584571673578089313e-02,-1.804194441468306292e-02
-2.736429926108029098e-02,3.627486035175179688e-03,1.099722452530264155e-03
6.973773267576691137e-02,-2.279723814643294308e-02,-6.872762798380867288e-02
-1.179001127625693354e-02,-3.972056254918724522e-02,-8.790948674605676694e-02
9.172705843249912006e-02,1.196405810613876235e-02,2.945342373896826446e-02
6.773252071915104866e-02,6.447157557225592639e-02,-3.830959688161303389e-02
8.834070052088888181e-02,-1.972690343275633473e-02,5.885423015360999321e-02
9.722574263188465266e-03,1.085326777174593603e-02,-4.880229947587461092e-02
-1.883518277352007331e-02,1.076564632025473096e-02,1.445705498022022660e-02
3.712073412168691300e-02,-7.574733964463243804e-03,1.795289827392224655e-03
5.997221556013398319e-02,4.945396118891115175e-03,7.035602667715852576e-02
-3.251426575873938435e-02,-4.214940568736484650e-02,7.242317867170745826e-02
5.675646185506171004e-02,1.148073470965594450e-02,5.183474342290517525e-03
1.197668918912691560e-01,1.367387239366007990e-03,4.031470629127113792e-02
-1.649388255808173151e-02,-6.772831891535643911e-02,1.697846683800248446e-03
-1.732013311940820352e-02,-3.170809564733793884e-02,-2.153702340123336140e-02
-1.240197346008987088e-02,2.708513881597857109e-02,-1.221963777894638503e-02
1.393968346259180126e-02,-5.198854555280291168e-02,7.561979791550921953e-03
2.854312627648087491e-02,4.143983982429382679e-02,-4.283195600215406601e-02
8.950830160013983905e-02,-4.823563700296794321e-02,-4.518103963819640467e-02
2.944326909845948817e-02,-8.018993511134704655e-02,-1.717619860113691471e-02
-5.832129273694756921e-02,8.765372050332863318e-03,5.573497100964550262e-03
-3.330164260572581608e-02,1.045814119943805180e-02,-3.399642099532870776e-02
-7.400161862644577537e-02,-2.560132518359907114e-02,-5.142774784314135816e-02
-1.585220380653618727e-02,2.742274356745401723e-02,4.446616061778373152e-02
-3.596645622760789862e-02,-8.543925082343232667e-04,5.899204270750767198e-02
2.207939401762597925e-02,7.510109845865803671e-03,-1.743965806218567005e-02
7.040927323168454099e-02,4.565520365620209450e-03,-4.795899065466260186e-02
3.670848684504285364e-02,2.254752124605001809e-02,-2.145762258844629428e-02
2.869756339932261202e-02,4.575691747186975272e-02,-1.804321067032918155e-02
3.408200668065685529e-02,4.896886104152821384e-03,2.591576952959471353e-02
5.982320895225000205e-03,-6.276932884780472670e-03,5.420299426389253716e-02
-7.421883939115077322e-02,-5.200438875424796825e-02,2.148347367384900730e-02
-8.597959763921818668e-03,1.862010845026238620e-02,2.775658619819950865e-03
4.881924780034300332e-03,-1.740776428629106642e-02,-4.866760628302214432e-03
-6.734906032451077121e-03,4.466669244799305327e-02,-6.630756640865180518e-02
-3.404092771035643200e-02,5.881280061398237724e-02,-6.572059835083119729e-03
7.663985241311256635e-02,-6.256836278928053219e-02,-1.717311023715111309e-02
-2.176418863928510430e-02,1.868240391104969422e-02,-9.373122766009593654e-03
2.184851311822250119e-02,2.308552211486594383e-02,-2.762902811915662893e-02
8.890943100970539331e-03,1.611144573553205915e-03,7.098067353728186590e-02
-5.083998634351051885e-03,1.190979452157009573e-02,-1.146642713820418130e-01
9.255862229363796823e-02,8.842849064534241688e-02,-1.414207435344420026e-02
-9.496418445982535150e-03,1.978528258145010113e-02,1.995801608589333961e-02
5.534390773997580754e-02,-7.273347837660990023e-02,-3.684652569918663023e-02
-1.508737348339726607e-02,6.211511358312260360e-03,5.713303608978642992e-03
2.896717057630223899e-02,5.615189370236640422e-03,3.434454758102827021e-02
5.831458865866661484e-02,-2.314439553860255568e-03,2.400077504657810792e-02
4.916860156549809902e-02,1.758869190186915232e-02,-1.053678698232140241e-02
-3.188654444878041144e-02,-5.956629105508669947e-02,7.142554633509709712e-03
-9.296450386333549726e-04,-1.065968947079008917e-02,-8.565711895874241920e-04
1.151989887088272595e-02,1.199365211042029752e-03,-4.113603880648084715e-02
3.318743877084041199e-02,-1.659651885055471454e-02,-1.143928721410965126e-02
1.398856940324004830e-02,-2.262669697451771822e-02,4.214506872339070925e-02
-2.135647727128394541e-02,-1.311803912433625804e-02,-3.662642400923138419e-02
2.375649511376390355e-02,-5.917607312279134918e-02,-4.436861025726640539e-02
-6.894865347201599957e-03,6.412961253842665646e-03,-8.798061531474707375e-02
-3.932332195226537208e-02,3.029382087902901879e-02,-1.353669295840003763e-02
2.876006381017629995e-02,4.276238568009742974e-02,-1.883162257844429519e-02
1.903457931770542039e-02,3.511457266107973624e-02,7.103378880045693733e-02
-8.338648483582719595e-02,-6.827638469121240228e-02,-7.666927544303035399e-03
6.393054876495021799e-02,-2.296113283426727894e-02,3.764262445940735283e-03
-1.221152420144698027e-02,-6.575134339822566454e-02,5.530182273308360125e-02
-1.757199484108896287e-02,2.248508485750123909e-02,6.042364549385386731e-03
-2.987391932562880395e-02,-2.706153169730532351e-03,9.630596525406959207e-03
4.677513499455949325e-02,4.766826792884674979e-02,-3.338580782578872861e-04
5.638908428694497377e-02,-3.551393559118630472e-02,2.376684273007379986e-02
1.607201852879933807e-02,-4.692468097625113882e-02,-2.695851235347396929e-02
6.681681900132720175e-02,6.166532504951407340e-02,-4.959524908487322747e-02
-2.887189243546250950e-02,1.138056559247276750e-02,-3.120757519866736163e-02
1.728299752359022112e-02,1.586911037203721578e-02,-1.424406531314807538e-02
-5.993794478700301825e-02,2.957914728470468699e-02,4.235550905294188651e-02
4.907804778483188489e-03,-9.607531618870398388e-03,-5.430411968069274314e-02
-8.439439048313783498e-03,-1.193996271572267120e-01,-6.673126150225935915e-02
9.155434544211672743e-02,-4.833671953590111536e-02,-6.250314543326458694e-02
-4.110423109458016637e-03,2.410797772665627600e-02,1.095969673409261623e-02
-3.057986622751224931e-02,-4.464040840223254536e-03,8.936320861083623009e-04
5.225577554554271253e-02,4.100129930883764096e-02,6.911375711376926967e-03
1.341844937425325929e-02,2.287007375860073202e-02,-1.491976108540635747e-02
-7.571081011446824383e-02,3.201208857026890953e-02,3.284426534268425346e-02
-2.132007397335433652e-02,1.352498658989890502e-02,-6.236588583562076293e-02
1.984127381818062003e-02,1.236842932030545773e-02,6.991597400521585084e-03
7.617646138603437200e-02,8.471707660538721138e-03,2.931553699490292361e-02
-2.426154840271638538e-02,4.880836923329270188e-03,-2.469218722560592716e-02
6.589363061728061022e-02,-1.592024224739808230e-02,1.518725773931423745e-02
-1.042486473079159461e-02,2.924590519019983070e-02,-3.010717918997765988e-02
-7.508878338202821731e-03,-7.767675289441669517e-02,-1.624594453777008715e-02
-4.695621699200242666e-02,-5.076056593315533827e-02,-4.955654763419450881e-02
-1.554858272218184560e-02,-4.754127770330604345e-03,2.979539942970995531e-02
5.020684682115607138e-03,1.047060159611665348e-01,-9.352605278921632265e-03
5.034916629840293506e-02,-1.129160154432614326e-02,1.472607969669982031e-01
-1.172529080697795427e-02,-4.408124664562662089e-03,-1.609869811119408068e-03
-8.252388401544311081e-02,1.914765100399571859e-02,3.279113410088313474e-02
1.636498462214245296e-03,2.579116925728316273e-02,1.506217268439506360e-02
6.665273954135594869e-02,-8.468793552056576301e-02,6.098926380086922699e-02
-2.130873670791068319e-02,2.309322395896712399e-02,-1.671327125473182421e-02
-6.378941137043024449e-03,2.133440136705649220e-02,9.656171673731134275e-02
-6.735772588345075029e-02,4.554102725924685791e-02,7.246917542502014954e-03
-1.228716313843656281e-02,-1.997162704384723708e-02,-3.402416935434139644e-02
5.454070255693579256e-02,-1.361483556214318318e-02,4.070830824154591382e-02
-5.687631354108564630e-02,-5.823396510378166940e-02,1.031685028068857375e-02
6.177391047760064785e-02,5.001864083928596327e-02,1.981665724956250055e-02
6.845732639533218256e-02,7.431988823645926945e-02,-1.945336046463650923e-02
-5.481325836275489916e-02,-5.509045068091887772e-03,3.171811359423702681e-02
7.333963946278113100e-02,-3.762797596504611347e-02,1.789234417176675460e-02
4.966726571283521657e-02,4.872177856484210395e-02,1.443748914060358039e-02
-1.557092242669748557e-02,1.794290092878139675e-02,1.360580386552975515e-02
6.562561762348462224e-02,-5.262914753131055223e-02,-8.297099361286528960e-03
9.137260519941486914e-03,-7.746784892648836407e-03,5.464626797798246942e-03
-2.234319192540559426e-02,7.984349949464938923e-02,4.545929069328628197e-02
-4.840716008450680896e-02,5.788647167212571977e-03,9.662506377268977736e-03
-4.057956446839629250e-02,7.139948674539159032e-04,-1.909365178621996728e-02
9.094875750912051818e-03,-9.603348146497443782e-03,1.476307084785902224e-02
-8.144505927385610813e-03,1.134822999287323289e-02,3.988612798761899392e-02
-2.412844385520121395e-03,-3.093024676781055624e-02,-4.689616355220471017e-02
-1.196033591146302907e-02,-1.579211566157841945e-02,3.708047228737373219e-02
-6.326890320900419029e-02,4.228307387655597799e-02,-1.831261392023121907e-03
-4.037886560932568009e-02,1.220174294536017189e-02,-4.351364620185745047e-02
2.001216844662598651e-02,2.282083227386281707e-02,2.625232520678411410e-02
7.012305064075847853e-03,-1.793361611847481274e-02,1.695425397004265977e-02
-4.719345941278083045e-02,-1.330104328375173589e-02,-4.163077315134412065e-02
2.111969918046082556e-02,-1.365635831416833583e-02,-7.803512023654274321e-02
-6.684905970814014609e-02,-6.540423070103654202e-02,2.347891598786913669e-02
6.040830676370573249e-02,-8.585806807145013667e-03,-1.975932194779151524e-02
-1.628194275246320349e-02,2.115072511573285255e-02,5.153537851540051368e-02
-6.359114170483857846e-03,4.578379396773669258e-02,-1.304453308005527369e-02
-5.012372187561502795e-02,-2.744689870895168724e-03,-6.346795289917571414e-02
2.565149313733351352e-02,-4.954752962427996094e-02,-2.088863083853060784e-02
-1.328093389028187077e-02,-1.826897747960361945e-02,5.281298019207786298e-02
-3.158859742379196284e-02,1.454475671841608763e-04,-1.093970401456253322e-02
6.787405504706196802e-02,-7.397281403552649105e-03,2.819845381883732613e-02
-3.837927772559673184e-02,-7.115341744534033064e-02,-1.301063104912337197e-02
-1.358037941425739754e-02,-7.273996965323631381e-02,-2.430296176304855402e-04
3.015555846657453840e-02,-7.575617179322084727e-02,-4.558889114642153406e-02
1.011334543429450866e-01,7.300938600124172451e-03,2.113834052678252237e-02
2.526927532243245997e-02,8.242417815951411098e-02,-8.402587499169550389e-02
-3.402629547007986199e-02,1.418338591008868298e-02,-8.290407363467133806e-02
1.182460791823477901e-02,5.404290410236411296e-02,-2.299754380329745163e-02
2.381421006808933163e-02,-4.573049130798748085e-02,-3.966188590523403446e-02
3.110685347929937131e-02,-7.200885982657548312e-02,-6.818342217919497183e-02
4.379332327471074232e-03,-3.719633497768563748e-03,6.815519144857264122e-03
-2.014422638883726219e-02,-4.507148725169220910e-02,-2.320859662667207335e-02
3.062795231031338605e-02,1.990809525886504117e-02,-5.880833002878282922e-02
-5.800797273717379215e-02,6.201546452303677986e-02,-4.818997569714479796e-03
6.847729103987618311e-03,4.449117495271984885e-02,-2.911654312657722954e-02
1.680028411031816646e-02,1.949054381137920247e-02,-1.394372972153494310e-02
2.586571542968790771e-02,-4.418140380412547558e-02,-4.120012899622194080e-02
2.339127514231452779e-02,3.701765946507733218e-02,7.948138790461631298e-02
-3.827685811774630964e-02,-4.386707338830771880e-02,2.783266735466502322e-03
1.855985141390978366e-02,1.131056952572275821e-02,6.715747562844147367e-03
3.389561681693913781e-02,1.925713274072732642e-02,-1.496281684571487518e-02
-5.845389412662913009e-02,-8.993777761262046477e-02,-3.106543342952652539e-02
5.254734173044381396e-02,6.117225785739185961e-02,-3.545757366466045779e-02
-2.619162981443332039e-02,7.025886488091748726e-03,-5.712287889267917557e-02
-2.065054468616279310e-02,-5.716114832324994260e-02,-2.579194574763334774e-02
-2.823658962106529238e-02,-5.421348593456477155e-02,1.197828446053894949e-02
-3.502026252686420843e-02,-1.146888620407553877e-02,-1.565836910235419641e-02
1.427807308260951348e-02,2.261153693680926710e-02,3.348216859549350832e-02
4.769835432614077941e-02,3.523172214301547450e-02,-5.667266704473650218e-02
3.837296718549818714e-02,1.942502640707686806e-03,-3.663142379395512710e-02
-3.870475215648563894e-02,-2.938911158570533047e-02,-6.455474525892289372e-02
8.725616573386121844e-03,-2.524451391957123697e-04,7.818735491983208608e-02
4.485942764535220256e-02,-1.043941725891709207e-02,-5.728871183658255928e-02
2.796815788508666151e-03,-8.462084099801595038e-02,-5.658482866868467381e-02
6.288237279650522871e-02,-5.049744894413263352e-02,9.065233684044986251e-03
-1.712689197136235686e-02,-3.412926833710220459e-02,5.055758587261463023e-03
2.427092828136078601e-02,1.885005881540489925e-02,-6.955076320303271720e-02
-7.203301901701018861e-02,-2.261335820471176497e-02,1.416139863582288952e-02
-3.014737432398690437e-02,7.890572195930525834e-02,2.478805364131139721e-02
-3.604728401535297472e-02,-2.736991569951410797e-02,3.323403532902556579e-02
-2.652769560570141655e-03,8.240452288138019193e-03,2.359066646138205815e-03
