accel_x (m/s^2),accel_y (m/s^2),accel_z (m/s^2)
-3.992943774303451751e-03,-6.402583601246510797e-03,-9.797700646280068426e+00
3.337862120107591875e-03,-5.388848908472365813e-03,-9.807362455045598892e+00
-1.521974162253150308e-03,-5.337891162608725086e-03,-9.803822678013904834e+00
7.061015256062335745e-03,1.643405172735340264e-03,-9.804053530552943485e+00
1.234288995215169441e-03,3.655144491878428974e-03,-9.822565375436351331e+00
1.618348672335287192e-03,2.520921394665410781e-03,-9.809196504278896001e+00
5.756004120842809178e-03,1.198223779146478100e-04,-9.791502168179155419e+00
-4.940984853769903561e-03,2.668185143357660813e-03,-9.806521955531655621e+00
4.057321652987480945e-03,-3.863256878672525606e-03,-9.799516605956483772e+00
2.500049917555336246e-03,-2.562242099637483759e-03,-9.789995841845207991e+00
-2.502597775319641889e-03,4.285972887684633137e-03,-9.808324960167718487e+00
3.750586821265454712e-03,5.196760902412333799e-04,-9.818160494231165103e+00
-1.863789492475716484e-03,1.738472821103176575e-03,-9.797231970205544371e+00
7.016845853517788417e-03,-4.570346378719987099e-03,-9.800005751957534983e+00
-2.767284444679552358e-03,4.291127498530479534e-03,-9.800817254827544289e+00
-6.213263781064129292e-03,-9.926214038556890797e-04,-9.799556484665146172e+00
-1.132632820912675897e-03,1.323603920478850062e-03,-9.800205453612006679e+00
1.487605299067622797e-03,5.473521788698204040e-04,-9.793423648778052382e+00
-7.255787854870341920e-04,-4.866493054312370087e-03,-9.802285553000452012e+00
-4.740003249767778953e-03,-1.978755119616404032e-03,-9.796192829872785168e+00
4.305684299427463236e-04,8.914481624957939707e-03,-9.801218966303142821e+00
-1.739257393653420320e-03,2.425433203017715762e-03,-9.805067410454313404e+00
-8.835911911645429398e-03,-3.809794535865151759e-03,-9.798386964210115124e+00
2.514647607868442710e-03,-5.053188358059321900e-03,-9.802320728678941109e+00
4.412864184769695920e-04,-5.059243274439659092e-03,-9.806595754531771902e+00
3.176155848497479693e-03,8.804914414581662026e-04,-9.787766717014942941e+00
-8.312513477832943892e-03,3.468895786402018209e-03,-9.804371572061336693e+00
5.048554862027004701e-03,3.461869380584430955e-03,-9.798506203306086348e+00
-2.882122360494567773e-03,-6.833894174018939963e-03,-9.788518115558687782e+00
9.802285975241705959e-03,-8.258976621785719605e-03,-9.781529734427735434e+00
7.105015556390605795e-04,-5.478858688206253783e-03,-9.816587810814214166e+00
-5.535221121830386870e-05,-1.211091088183538457e-03,-9.806439394911537377e+00
6.558844485397062260e-03,2.982335834679399403e-03,-9.785627495655269570e+00
-8.056810396879429681e-04,1.741760409108359569e-03,-9.799140716246640181e+00
-1.468325162956012108e-03,-1.306106709886611537e-03,-9.795023037007219102e+00
-1.726731148854461538e-03,-4.451571379990035618e-04,-9.794522409928916318e+00
2.972425177178562947e-03,6.902099669466142326e-03,-9.790614286937227462e+00
-1.803570545265751821e-03,5.847823782319318958e-03,-9.794769420399971338e+00
7.108183009053024078e-05,-3.149857924703151554e-03,-9.791592881331498077e+00
3.044772113415878095e-03,-3.230705156353282266e-03,-9.803177563009619178e+00
9.901190849970129687e-03,-7.460348094719283958e-03,-9.800438688289938582e+00
1.628338037875720363e-03,-4.567146340739294076e-05,-9.805099385344767882e+00
-8.618316768551305060e-03,-5.654202958024647343e-04,-9.808279597354340851e+00
2.260782145296400588e-03,-1.044469908942369414e-02,-9.786271510649891425e+00
-4.906334147072363011e-03,4.767021608705928302e-03,-9.782981109717352908e+00
-1.603289454354554777e-03,-8.635566895875211590e-03,-9.794440332416929351e+00
-3.687891333710571762e-03,-3.054779396771866752e-03,-9.807896280982104642e+00
6.098166173817859761e-03,1.763511617742476905e-03,-9.814863464884018285e+00
6.741718774977894851e-04,-4.567997482293985854e-03,-9.781151226584931635e+00
-2.363563506686903754e-03,-4.170432560770387549e-03,-9.799615930642392669e+00
-5.957288456650513229e-03,2.995383371592655309e-04,-9.794313417422921830e+00
-4.152753431316350170e-03,-4.828958605298982326e-03,-9.795753050684522734e+00
4.634209326076636423e-03,1.443582505211080981e-03,-9.802321098590644155e+00
-8.475467691395951325e-03,-1.273296760498689520e-02,-9.802356855227106536e+00
-4.899905202169638208e-03,3.253299327044296019e-03,-9.799760909266764131e+00
6.417382186628300608e-03,1.379274356649884100e-03,-9.813480591028632460e+00
2.302607406116433369e-03,2.118692394909746542e-03,-9.806580616786307658e+00
-5.815796317714817809e-03,3.420277249579636684e-03,-9.805173190233022140e+00
-6.782561153394310865e-05,3.277781931373905094e-03,-9.792052282278101316e+00
7.051023823929561743e-03,-4.363054367008180898e-04,-9.796149200929713530e+00
-4.381662294010569073e-03,-8.633457406137580469e-05,-9.807726729274852673e+00
1.873754925226665509e-03,7.008983897276416242e-03,-9.811119473016823633e+00
-7.146155968361430494e-04,-1.759878994601926303e-03,-9.806351006420920058e+00
4.248817449812350780e-03,-4.210107883680102442e-03,-9.797817250753123375e+00
-4.071360924688728795e-03,2.564839682235369074e-03,-9.790260785740912297e+00
-4.001428179568008482e-03,1.008179874538017717e-02,-9.797018906286604434e+00
7.550078573548358110e-03,-5.020131848819445880e-03,-9.807749575450745994e+00
1.915877103142328217e-02,-6.355532030727161809e-03,-9.807285504084179095e+00
6.262193283443785903e-03,-9.524561937627924052e-03,-9.800416624023071677e+00
1.059294794085320797e-02,-3.797528461866117068e-03,-9.808736503119272143e+00
-5.577544557219181638e-03,2.142370138057360894e-03,-9.812430268351919338e+00
1.998176599313017561e-03,-5.420418352797555690e-03,-9.810513404060387188e+00
-1.343831623270758764e-03,-3.382345868118210057e-04,-9.794497640952064543e+00
9.461959069767216998e-03,-2.643548716039263811e-03,-9.807641099022122333e+00
-1.170048645313022774e-03,1.400743466280391118e-03,-9.807428413262211819e+00
-4.905692111802612866e-03,-3.570977353833916079e-03,-9.811286109831968361e+00
-5.219290501588075238e-04,-4.688812090604020481e-03,-9.807135059273747402e+00
-1.375524657701327792e-03,-4.931493151575216255e-03,-9.803723439223652747e+00
-2.296220539371250213e-03,6.629837470939417207e-03,-9.790081039470340585e+00
-1.791287745311918866e-03,6.318959043038888286e-03,-9.779480717714838178e+00
8.053627078353685353e-03,3.401290276502202692e-06,-9.791747202934001137e+00
9.643756701312377819e-04,-1.706824745122643506e-03,-9.802282777069004638e+00
-4.899160097656583834e-03,5.246014847867807446e-03,-9.815071718812992785e+00
2.513770416919347377e-03,1.717042864188799084e-03,-9.812808890945261098e+00
7.781441853993023051e-03,-2.134781518471596043e-03,-9.802698508287418733e+00
-9.608403871051905687e-03,6.353374753291445888e-03,-9.800887367932986649e+00
9.937763926555298263e-03,7.519048866704274720e-03,-9.810082077639794562e+00
7.637811993169985048e-03,-7.833253521727793003e-03,-9.799378558524232119e+00
-3.324647673683245493e-03,-5.005203942974571427e-03,-9.797140274030470053e+00
-3.237769084761379923e-03,5.167165503027333585e-04,-9.794577294784478028e+00
-1.971336015085533590e-04,3.340635945397562104e-03,-9.800980549306988365e+00
-5.518939361192456636e-03,-3.479677410192724002e-03,-9.798230281388098817e+00
4.291690977029926496e-03,-3.844433349872039833e-04,-9.793792091273640921e+00
-6.595946657276924828e-03,-3.516099738644242519e-03,-9.789800197097592971e+00
-7.764582998227704397e-03,5.806883451174698826e-03,-9.800876716785117182e+00
5.041352599330849518e-03,-5.600582418324159817e-03,-9.808369098014072307e+00
-4.036408335154144031e-03,-2.925294540445993671e-03,-9.813748042861448084e+00
2.120965600524371813e-03,1.347961748619070982e-03,-9.813147731136306007e+00
-1.323153124059386117e-04,5.958721631849762772e-03,-9.817633708143826965e+00
-3.433737865837570551e-03,6.255133460069259126e-03,-9.799492140120683814e+00
-6.713907249023350413e-03,3.047294750777146052e-03,-9.797651693414321628e+00
-8.314080511133581809e-04,-5.151980566217601899e-03,-9.799054952735525958e+00
-2.276207847520968480e-03,-7.397683281783288926e-03,-9.801065895135661066e+00
-4.323836592766182665e-03,-5.481819969300762672e-03,-9.793858624699922188e+00
3.545751605253123751e-04,1.349049303373285645e-03,-9.802526182201484417e+00
2.839385168416724836e-03,-3.613944288409866312e-03,-9.810213086444750985e+00
-8.458057101594598131e-04,-7.554104532237867348e-03,-9.819834906519162132e+00
3.629723909394431784e-03,9.787611877353349574e-04,-9.770168304843698692e+00
-5.419533007020268731e-03,6.257780452615416614e-03,-9.798837465128521274e+00
-1.622740484093017094e-03,-1.694017498902056305e-03,-9.802949248911167146e+00
-9.383949610430547192e-03,1.052318851822236362e-02,-9.792934091344733361e+00
1.263919178562799769e-02,6.766221299333830506e-03,-9.802056130419703806e+00
-4.051424314972433202e-03,6.228077588243638094e-03,-9.808128769384266477e+00
-5.855065234405280351e-03,1.761651470638390385e-03,-9.801602664084867911e+00
-1.115865844006525172e-02,-3.437411797796099283e-04,-9.817081206090279011e+00
-3.979211270487999046e-03,-3.665155224564437594e-03,-9.795356855874850055e+00
6.491817093266534673e-03,-3.311237019539732106e-03,-9.815831555095344996e+00
2.378958435509794596e-04,-3.169037362642105130e-03,-9.800689852853556872e+00
-2.962973815169706732e-03,-8.238624894310673640e-04,-9.812289698115185033e+00
-2.899629556631840802e-03,-2.283183252025533516e-03,-9.801824322574455906e+00
2.277061357398627115e-03,1.046745254597990444e-03,-9.806750626715871277e+00
1.299273347948918730e-02,-9.301040025981388917e-03,-9.786230763160128632e+00
7.972390882024756389e-03,2.399729265454085114e-03,-9.803925174482317928e+00
2.887838567671015006e-03,-6.740337281842034844e-03,-9.801987044060897603e+00
-1.166922599599360755e-03,-6.185647588107249378e-03,-9.784480627526471963e+00
3.929153521345173095e-03,-7.858212239512701175e-03,-9.801394357704426241e+00
-5.246969395005128198e-03,2.807436232188654547e-03,-9.799066015368305571e+00
-2.146420543068606156e-03,2.973726786093283236e-03,-9.816257529512705915e+00
-2.724337972254031910e-03,-4.924199300628615515e-03,-9.786012176053644041e+00
4.725638546579462567e-04,-3.267815348821744795e-03,-9.809714272748468744e+00
5.990006205291483875e-04,3.783814339604464269e-03,-9.792506040607747764e+00
2.271158226397950852e-03,-7.418350328662700124e-03,-9.805627005026423149e+00
-2.636317459476644233e-03,4.813185263895620948e-04,-9.815659031115227862e+00
2.481446367236206721e-03,-3.706394463900633193e-03,-9.802638886964173182e+00
-6.069023249169850330e-03,-1.703239004990943911e-03,-9.809198370517886900e+00
6.772462472103877619e-03,-1.100483805653577028e-02,-9.803309523519395441e+00
-2.087679340457850551e-04,8.006647914833442273e-04,-9.799196983957823903e+00
7.725820251062303105e-04,-3.806830451972720731e-03,-9.800435375019301176e+00
-4.616702001041593333e-03,8.486141065096040534e-03,-9.804386775968215062e+00
-3.217538491774333750e-03,5.474928407481535059e-03,-9.795765125633225878e+00
-1.748812569172930338e-03,6.021482851337507311e-03,-9.809348103029078558e+00
2.743411928678487263e-03,4.463885617924914263e-03,-9.805044866844237816e+00
3.246966607015884174e-03,-6.097001729316669887e-03,-9.793205625539442849e+00
-4.203964622928774673e-03,-4.996616436777059564e-03,-9.780354411970856532e+00
1.120998969559239755e-03,-2.060811272331276086e-03,-9.809480532648235496e+00
-1.932362252922939722e-03,4.962153878867615366e-03,-9.795444905473246422e+00
5.144164503161826989e-03,2.747541652952191927e-03,-9.804652439650572759e+00
2.423416598229792811e-03,-5.215390513236351291e-03,-9.810162734174912913e+00
-7.260853105281423608e-03,-3.850287484222976366e-03,-9.808612796781879695e+00
-4.027437650724940109e-03,4.665365156009701995e-03,-9.817706828476525871e+00
6.278815982185014834e-03,4.993151738769073186e-03,-9.803505041557025734e+00
2.496363316887685504e-03,-2.651039977192882167e-03,-9.798109099064017613e+00
7.956460763703442768e-03,9.985063648444538267e-04,-9.810018545169192805e+00
-6.080992163981142375e-03,-1.360763052399957063e-03,-9.794696259801202842e+00
1.352075657311003695e-03,-4.874324538893710229e-03,-9.796237735783261513e+00
-1.856040871431995348e-03,-2.434465338467716768e-03,-9.806225909206332858e+00
8.340831002686735756e-04,-3.426369341832060777e-03,-9.806913488534988232e+00
4.525210068930840199e-03,6.208486509956029700e-03,-9.795335783007933728e+00
9.199855073187081234e-03,5.644240793382417076e-03,-9.803407501330104523e+00
1.410408284721529921e-03,-2.511978220578548263e-03,-9.800927461837048327e+00
-2.471837282026224372e-04,-8.218704172728893975e-03,-9.803368483420895174e+00
-4.761812533271912826e-05,7.807929149444556467e-03,-9.803816787629990870e+00
-1.663564486605109260e-03,-7.111008757461282324e-03,-9.799923423140002754e+00
2.602922805543515707e-03,1.884037919414855800e-04,-9.789631465095828489e+00
4.517367744711352532e-05,1.575358608069890728e-04,-9.804412419764114262e+00
-5.823074965626630871e-03,-1.697213630062205251e-04,-9.792684798471876562e+00
-2.952711299201866198e-03,-4.001263875199781672e-05,-9.808355351308041037e+00
7.715410062411582649e-03,6.155186462607450601e-03,-9.798531720774617426e+00
9.782644717000171103e-04,8.536040231882850542e-04,-9.811559691352261581e+00
5.085811429403438132e-03,1.598862144253291326e-03,-9.792065907270883329e+00
-3.183585954264249712e-03,1.136478192734931107e-03,-9.804669945404553388e+00
-3.470996905552075663e-03,-3.047252828466794159e-03,-9.800653250067675515e+00
-1.412842065074930995e-03,-2.891493199603227147e-04,-9.794700413716533660e+00
7.311346032142750084e-04,-2.927488542940958477e-03,-9.800740209509079648e+00
-5.665665384895533264e-03,-6.004789835214896336e-03,-9.802083190291819292e+00
7.344063535169470004e-03,2.660050773545012074e-03,-9.808175587852284494e+00
-3.969473510557933009e-03,7.002057775957066512e-04,-9.790585564019767872e+00
6.775645478854019433e-04,-7.825250021646860260e-04,-9.795881104500534065e+00
-5.820498983681135800e-04,2.843426055850940652e-03,-9.799054331966614129e+00
-3.605913697116717304e-03,-2.759637066783775239e-03,-9.810080836655238556e+00
2.482787536807536544e-03,1.162284092345297181e-03,-9.803020930302848157e+00
-1.354026168376567391e-02,2.059503584549853689e-03,-9.798332030652325386e+00
2.279102224313099209e-03,1.011325715408871451e-03,-9.812679460200524062e+00
-8.473844203635185878e-04,1.083461048169944351e-03,-9.805508509712163701e+00
-6.240813603445081667e-03,1.440776470612441110e-03,-9.801244644522695282e+00
8.358637089602169792e-03,-8.836157215314974916e-03,-9.801552857903054417e+00
-1.814134048310146697e-03,-2.344621496505733520e-04,-9.811271024141010599e+00
-2.037856073699826406e-03,-7.672389080022201484e-03,-9.802338182868577832e+00
2.033048615327438281e-03,-6.498341222805710873e-03,-9.802781516833245945e+00
4.462372875849266417e-03,3.827987127964031008e-03,-9.809174766430380998e+00
3.567962391586492876e-03,-1.077956771550344153e-03,-9.793163456518785281e+00
3.250106546632599864e-03,2.543888758594762753e-03,-9.787070818038465347e+00
-2.241139129821052844e-03,3.867757414003641144e-03,-9.799231727183839169e+00
4.885631167972924287e-03,-7.771845613234039819e-04,-9.806480139041237720e+00
8.645040629809943450e-03,7.750376476822774634e-03,-9.793284655219501644e+00
1.092615049853755361e-03,-1.056884320925246569e-03,-9.794397174980431942e+00
2.532122498089484086e-03,3.254045814393212270e-03,-9.800793298544618892e+00
-9.046075653213959261e-03,4.887576356659988248e-03,-9.791532008515991592e+00
2.321617433571932475e-03,1.512008280443349331e-03,-9.796396025184003875e+00
-4.885304632799838606e-04,-5.269747383557140015e-03,-9.801484631246294654e+00
-2.429082424804557359e-03,-1.335912197108633619e-02,-9.799699340593598151e+00
-6.720372445500076564e-03,7.482741284953016263e-03,-9.788363165585845849e+00
-6.349826640233596428e-03,4.292057884244616060e-03,-9.793232491348534907e+00
5.476293143664801542e-03,-2.006476582665627211e-03,-9.803313051256782984e+00
5.565402683117988934e-04,-5.366492010739549491e-03,-9.804163255994888360e+00
1.127113929508010608e-03,-3.019685937840157781e-03,-9.807898421547664114e+00
-6.706328634986648230e-04,8.252681930741495586e-03,-9.795935338426753347e+00
-8.952070927104109318e-04,1.028673402247708715e-06,-9.813752566500053121e+00
-4.512526644388135076e-03,-2.720115276143246670e-03,-9.806532626075178172e+00
1.014048358309500809e-03,-7.833698191567362717e-03,-9.800853419763857488e+00
-9.534602846922023492e-03,-1.065127021419514514e-03,-9.797387940252225036e+00
1.916421846175138171e-03,7.591061949667424636e-04,-9.796654338553501873e+00
2.971102492139706796e-03,1.505453939418453530e-03,-9.791221744010989880e+00
1.059329541849075721e-03,-2.798558413455963945e-03,-9.797919773151384959e+00
2.382687770410421308e-03,-5.683205821306815293e-03,-9.802781447638958312e+00
-4.923988059845475600e-03,3.801245196334647729e-03,-9.805339979006507889e+00
-7.682360401497965140e-04,6.888907195590186945e-03,-9.796846924516213306e+00
-2.324673018760459522e-03,4.131521865729740478e-03,-9.817474231928040140e+00
4.871764579031622779e-03,3.843146658590654210e-03,-9.791819328868921701e+00
-8.994889464635636225e-03,-1.299465085508467316e-02,-9.809907935421991354e+00
-5.676891366784284250e-03,9.774607728384549984e-03,-9.787134482410824177e+00
-3.819957798544021399e-03,1.378621174316500917e-03,-9.807147824941372605e+00
-3.750360259002154251e-03,5.845739872173225972e-03,-9.796052414797399521e+00
4.322469185343725401e-03,-8.668050533798917672e-05,-9.799886356671301257e+00
-3.319132612287116219e-03,4.440439846616525167e-03,-9.800870862824584862e+00
-9.649728064953379909e-04,3.180603063322616410e-03,-9.803472771776183592e+00
2.020381767542751058e-03,-2.328454319493592373e-03,-9.800962535492574901e+00
2.876628130131369220e-03,4.601354541411669177e-03,-9.802942265619055462e+00
4.277499789704192375e-03,-8.178982066479534990e-03,-9.799465599799477289e+00
2.277308788106629026e-03,9.670801252455162381e-03,-9.804086813232130382e+00
2.625921130360852999e-03,-6.345532339840060689e-03,-9.793082422699761480e+00
4.205990401531552311e-04,-6.666365974030990897e-03,-9.804082648163907621e+00
1.193371735491096774e-03,-1.402977100781317016e-03,-9.797771944241228326e+00
7.456455436413688678e-04,-1.822211359020123973e-03,-9.792736929640378563e+00
-2.663280893782678151e-03,6.862577001523244985e-03,-9.806978525300095839e+00
4.807712311248598519e-03,-2.045637967244458896e-03,-9.797153779562886911e+00
-4.287856808166447438e-03,3.975695249320734641e-03,-9.807014411897451822e+00
-1.037957433749865481e-02,-1.167015248443324833e-02,-9.785636926772548705e+00
5.339313040357008579e-03,7.313249308590156757e-05,-9.804527995832646781e+00
-1.319975259529968838e-03,3.526454302024144998e-04,-9.804598846515004240e+00
4.459134354027926780e-03,1.588975355178456645e-04,-9.805457673422928622e+00
1.532459070719160033e-03,-2.797625822515109606e-03,-9.811846860112618529e+00
-2.754870771775078716e-03,-1.743012155511698084e-03,-9.807723209317572355e+00
-6.828057362575390941e-03,4.689893598975439226e-03,-9.804395765832509824e+00
3.850386247031524056e-03,2.665849781231845466e-04,-9.804375523111595214e+00
-3.424739828480820401e-03,-8.715723175917337645e-04,-9.795338282139772090e+00
9.521463464529852927e-03,4.943170743439316388e-03,-9.782778362587503551e+00
-3.843778148357381019e-03,2.319783996644081674e-03,-9.787224333076196103e+00
3.567941817976622021e-03,1.865201906397468291e-03,-9.809303500055577274e+00
-1.082580374573452421e-03,-2.524519607206416466e-03,-9.796402262459322330e+00
-2.069158170726352955e-03,-3.543629586965567260e-03,-9.804576179634228339e+00
-2.785263963603715111e-03,-1.083903476400062231e-02,-9.808249390618204444e+00
-4.405379420026734705e-04,2.609855426865456945e-03,-9.803502600242941512e+00
2.213289092679848725e-04,-3.945150924274162113e-03,-9.808484942205021540e+00
3.518743755427957993e-03,3.514873248750754325e-03,-9.792187014486618324e+00
8.372933360829008104e-03,2.208767201779420365e-03,-9.804498327903258925e+00
-4.512504486942357611e-03,-1.209724655656911445e-02,-9.809286520987953395e+00
-1.053889131229610553e-02,-1.774567693671182242e-03,-9.807669018119225868e+00
-2.870273438102012575e-03,1.837712045240786404e-03,-9.802011168738518521e+00
-1.845562649626436005e-03,-6.625951637767710971e-04,-9.798770200425279242e+00
6.712035065798911985e-04,-4.360565871853016272e-03,-9.806492749128718600e+00
9.082264840106520423e-03,-6.814958294197605000e-05,-9.799429137504615639e+00
1.296933325608671432e-03,-6.540794915516368394e-03,-9.806888106464048960e+00
-2.182287787008949098e-03,1.313423971902435896e-04,-9.803141946083238523e+00
1.700976180742721014e-03,3.124338192688710415e-03,-9.805809351878744806e+00
1.023107814893484818e-02,-3.843064689726377451e-04,-9.794965917650728215e+00
6.609420161885226110e-04,7.542268531106236656e-03,-9.786170822958110804e+00
-4.482633055140217669e-03,-2.328404098457930241e-03,-9.812240726412774450e+00
4.052944780001255590e-03,-2.508634782079057369e-03,-9.808784634537470737e+00
2.102483171393916030e-03,-1.136940355874316473e-03,-9.784785439507059479e+00
-9.373860890252674882e-03,-7.637405350180898923e-03,-9.792175777884517984e+00
8.414685107839202718e-03,9.122416632733964343e-04,-9.799448320085426545e+00
-8.040637657007104755e-03,-5.448686537568083257e-03,-9.797119624849059960e+00
-2.950373569471705093e-03,6.815760479193267232e-03,-9.807636058298159654e+00
-7.037994685964699647e-04,2.161603596102627551e-03,-9.808622643876455882e+00
-7.321700115257645872e-03,-4.898107532668245952e-03,-9.797271287621834190e+00
-7.745342752610117135e-03,-7.442747241499928987e-03,-9.800686815538776742e+00
2.430584825017331318e-03,4.636306735416330024e-03,-9.796037749859204169e+00
5.238957265723299082e-03,2.042787380368918555e-03,-9.803583010783052387e+00
4.954297088638096730e-03,-5.234167587103230254e-03,-9.818283191648836450e+00
1.889370727608180329e-03,-2.630979900886370147e-03,-9.810148548870682106e+00
1.632642296715981333e-04,1.467187497934876713e-03,-9.808376904289515252e+00
8.680077667159344715e-03,-1.224144609810929110e-03,-9.809566835176070754e+00
-9.834818363741101854e-03,-6.914774222285959004e-03,-9.811990957933060642e+00
-1.164754909970188920e-02,2.375175768916236441e-03,-9.788736357210519046e+00
2.789909914397544800e-03,6.940295061417418865e-03,-9.796940487667457731e+00
-9.144509267372778749e-03,-7.592566560022993936e-04,-9.810476409435750611e+00
-2.444165508452660496e-03,-4.536530842594737353e-04,-9.802323203261892104e+00
-3.193459732613331600e-03,-4.690616614433377324e-03,-9.809106248959096774e+00
7.416667930986806795e-03,5.988249699969173077e-03,-9.797807784527467589e+00
2.508856684676688022e-03,3.055110478411758330e-03,-9.807033600485413061e+00
7.620618795725764803e-03,-4.299613992842472171e-03,-9.794873657793216282e+00
-2.680149681575704022e-03,-4.699044275435420442e-03,-9.807127884356775738e+00
3.312761016959011456e-03,-5.913575642929633919e-03,-9.808350423467420143e+00
1.941059821000124110e-05,1.994005455819305560e-03,-9.812109718772344280e+00
-8.317700147542241365e-03,-5.136683579771055344e-03,-9.807097805653329559e+00
5.677458073132337669e-03,-7.071385502353953918e-03,-9.809366169950642700e+00
3.330559756772526452e-03,-1.933987118348049102e-03,-9.799448972142110748e+00
6.289318531895175812e-03,-5.751274259344001799e-03,-9.784056736362350293e+00
4.695468580079282736e-03,2.858008125399012344e-03,-9.809222965909535574e+00
6.526765506124547131e-03,-6.559243290506619820e-03,-9.810628294633556123e+00
-2.113937865843814646e-04,-7.683603991482550362e-03,-9.809498821808084301e+00
-2.010219256803700769e-02,-4.056488934367329623e-03,-9.791111949588888308e+00
9.872556688116778181e-03,3.804060679607324576e-03,-9.800923879888795653e+00
3.905535188126958474e-04,-6.439761712749284515e-03,-9.819408793009515080e+00
1.661890204810279482e-03,-6.099930085672099558e-03,-9.796167449409377781e+00
-6.278351222432225140e-03,-4.257541757484502309e-03,-9.793960203595322156e+00
8.911273383801448025e-03,-1.031648907281476103e-03,-9.807313925105088259e+00
2.848147212798828997e-03,-6.260715635533602337e-03,-9.790372119722801969e+00
-3.822923010536339369e-03,-4.053276665709665315e-04,-9.812072431340370215e+00
1.905303677783568104e-03,-5.458047009209113232e-03,-9.797256523318406352e+00
9.492517891568639024e-03,-4.840536321230215488e-03,-9.807869595655290595e+00
-3.179949270653122367e-03,-6.172202075712093826e-04,-9.809780177104743260e+00
1.746924962822261548e-03,8.194301542885497162e-04,-9.801983191715152088e+00
4.348144705544279435e-04,-3.516422019994465669e-03,-9.810108624734324323e+00
-7.246549034869473977e-04,-2.843031524638562398e-03,-9.800617214163819924e+00
3.077923117002773559e-03,-7.064938011651210152e-03,-9.793378924036234778e+00
-2.062332151395856409e-03,-3.537425243816381872e-03,-9.797304559444937055e+00
-1.186339550349410805e-03,-2.332112790757138922e-03,-9.805004365860996884e+00
-1.402874355852307391e-03,-3.023320914400462814e-03,-9.805223027107738076e+00
1.105661526272541662e-02,1.590875388051242673e-03,-9.804058489190248693e+00
-1.682814424922760260e-04,9.975471057614163084e-03,-9.800257185359093626e+00
-1.328151000174407868e-02,1.874779438353339983e-03,-9.798082926537235338e+00
-3.884313810068499174e-03,-3.635974259340029636e-03,-9.811627567746374012e+00
1.748176052085778772e-03,7.631827585397608959e-04,-9.802984637165845783e+00
1.007515743924594946e-03,-1.183183113892822668e-03,-9.787790024458866256e+00
-9.925905539141927341e-04,-7.179526977360007473e-03,-9.803823853609669570e+00
-4.578981244514288354e-03,4.962194522156513840e-03,-9.798604552900764375e+00
-5.490057508035150850e-03,-1.404521254326506277e-02,-9.803528374558016623e+00
-2.488235859456741552e-03,2.605165594278245535e-03,-9.795748059401432783e+00
2.740896237434248955e-04,1.398039284383151585e-03,-9.793399611972835928e+00
-2.065222826377338325e-03,9.146198453579262172e-03,-9.799591775488940115e+00
4.471948477140440768e-03,-4.339927137417624523e-03,-9.806325563734480610e+00
-4.706693557690326719e-03,5.725148851846621235e-03,-9.801615697479583389e+00
-8.467126899188612624e-03,-6.049452305432018954e-04,-9.796840533977704268e+00
-4.956720153033805643e-03,-5.336327987092467744e-03,-9.801858431196649235e+00
-9.932253782015379364e-04,-1.387211580286210749e-03,-9.786796030216676101e+00
-2.121198465367991459e-03,3.698872865469597215e-03,-9.788226707631872969e+00
2.763534834187487532e-03,-2.529497859920364425e-03,-9.801491048633655723e+00
4.337293001104205580e-04,2.061751614162019106e-03,-9.801813534520194438e+00
9.839729240531899269e-05,7.760076842233824650e-03,-9.809029775083217828e+00
-3.937421164643313716e-03,5.052870263936880268e-03,-9.798548211580943246e+00
6.696040535399327628e-03,-4.771464408635335205e-03,-9.810424384375338036e+00
5.751567031435379492e-05,5.317546442810598337e-03,-9.806351849771369089e+00
-3.128343027774965930e-03,-1.116428125054874697e-03,-9.799959897913501194e+00
-2.795893841732239281e-03,-2.026397477091235102e-03,-9.813865696475112088e+00
6.643707590893094435e-03,3.502290672059005586e-03,-9.800227231947751250e+00
5.564241294953499277e-03,6.457367238593261782e-03,-9.795824981412174282e+00
2.613090694467763882e-03,-2.114065304799277439e-03,-9.810691188444488731e+00
-1.046097051007518694e-03,3.332783739124120168e-03,-9.805005139201361075e+00
6.331792478491085445e-03,1.853545050218506933e-03,-9.807405338748148793e+00
5.114167572229875655e-03,2.541282356449448693e-03,-9.797975859808806476e+00
-9.826574072688049402e-03,1.462240999602500450e-03,-9.807103232494142731e+00
-4.595402178770857660e-03,4.320856699107646429e-03,-9.817855584306128591e+00
-1.912243379737980963e-03,3.116290448031436462e-03,-9.793878707925994576e+00
-2.949970214698772325e-03,-6.948607694033752218e-03,-9.809856366013278262e+00
5.346063176077985382e-03,2.242571676749868879e-03,-9.808975145201182855e+00
1.062012685784751017e-03,-8.589104679834433723e-03,-9.811556982141723893e+00
1.534571033198035232e-03,-2.391512907964226092e-03,-9.809001671207861150e+00
-1.456931219391430004e-03,-1.384391986748484578e-03,-9.807611300701951862e+00
3.579113880237490622e-03,-4.971673984330842767e-03,-9.803309168205524671e+00
5.749161978378267319e-03,-2.523106067488560533e-03,-9.793912741915244524e+00
2.138669013533247166e-03,-7.938369596357715621e-03,-9.799669257056145000e+00
-8.250603196750661136e-04,2.236636075626902923e-03,-9.802393608192224050e+00
4.142776001399167164e-03,7.937604793010741289e-03,-9.797556100280596425e+00
9.129877936382794221e-04,9.139965275970718395e-03,-9.802277991382275957e+00
2.314551161176962597e-03,-2.888103904807481047e-03,-9.807235757338077065e+00
1.322193513435880553e-03,-8.377688807543973853e-04,-9.797984807982295763e+00
-4.751226655395741037e-03,7.679196297295590168e-04,-9.805173446088579325e+00
1.156721375808903926e-02,-1.916514212612361115e-03,-9.820977247620415795e+00
7.041901931263806237e-03,-4.471495675168305622e-03,-9.803994621008088828e+00
-3.934974090045845717e-03,6.097567034491190203e-03,-9.797402855476235572e+00
-5.342349857630575641e-03,3.986790012576234797e-03,-9.804314381914464249e+00
5.721907642116175804e-04,-5.653558146499448357e-03,-9.795175427687448533e+00
-6.792595562747548443e-03,-3.458928108323030236e-03,-9.798473217811940472e+00
3.540990445525600723e-03,3.340149258524511416e-03,-9.805476278722323968e+00
-4.763485279012946889e-03,-3.556518266515784968e-03,-9.787905177786772271e+00
-1.578196805695548282e-03,-8.886083726948090832e-04,-9.800175202312782829e+00
-3.538274583202855907e-03,1.181489205162375997e-03,-9.806452881031651359e+00
4.793701690995854324e-03,-5.806738811747050311e-03,-9.800399553016257315e+00
1.199727269277075029e-02,-4.853120431226492820e-05,-9.805318275683056584e+00
-2.984700806630321418e-03,-7.787756797523071733e-03,-9.803277049667824983e+00
6.376322662516515846e-03,5.291511401007504591e-03,-9.799484659599963621e+00
4.513398471113952599e-03,-4.722337390788840586e-03,-9.792494731849748391e+00
-2.812623412871880987e-03,4.598688411268556618e-03,-9.806639048064106134e+00
5.643289403630567455e-04,-2.016252459832891444e-03,-9.795330513266218730e+00
9.134937940369817697e-03,-1.262702209178959839e-03,-9.793327972147507055e+00
-4.210724193443605426e-04,-8.221945003683610309e-03,-9.816247306210366119e+00
2.847257966206158224e-04,6.017674871253436567e-04,-9.797499566780830449e+00
1.024053309574730376e-02,8.171605551939714607e-03,-9.812845667880118583e+00
3.842701361309615055e-03,4.061593555851295174e-03,-9.799064550335165436e+00
5.099602006988442765e-03,1.275886677713856596e-02,-9.811744341240808964e+00
3.437839930580807550e-03,-3.095888004483229091e-03,-9.796769206854476053e+00
6.319947306703787605e-03,2.197588293445376390e-03,-9.798302177263092716e+00
-5.540003137985387164e-04,-6.582241998982809629e-03,-9.796520571745729100e+00
1.057844773842018518e-03,4.683912478582367457e-03,-9.806151900005454891e+00
8.658503626602089345e-03,-3.254846183680696562e-03,-9.793858966296703272e+00
2.609780953968241553e-03,2.714634571871208865e-03,-9.798217754122649836e+00
-1.560949843641993510e-04,-1.349830556244025880e-03,-9.811027059390434957e+00
-4.330910017787766367e-03,-7.837190193046916081e-03,-9.803985535905349380e+00
-6.339374202440197469e-03,-7.007523773802423923e-03,-9.808207455550133957e+00
4.679147688716175056e-03,6.354761484817617913e-03,-9.801316871770845651e+00
2.352992959812503712e-03,-6.309790046976381135e-03,-9.821042570594237020e+00
-4.145631209523858648e-03,1.258792388579777844e-03,-9.796274591594539061e+00
4.136124746772508118e-03,-2.871683645042495854e-03,-9.801887610464721234e+00
-2.487027061679678019e-04,-8.176281208039998943e-03,-9.804553259417939870e+00
-5.675738314891955660e-04,1.993487068778825901e-03,-9.804562959236601927e+00
-7.655080174506785195e-04,8.068052351556724523e-04,-9.807040258555508316e+00
-6.633184609762331208e-03,-6.678996368259543064e-03,-9.805414884044479251e+00
-3.978232422289178401e-03,-7.188015133630432964e-04,-9.803761370345574377e+00
-6.326608191994052008e-04,-6.903740539580626064e-03,-9.808059288590699865e+00
1.059407121720071926e-02,-2.269213047168770151e-03,-9.798390646204493848e+00
-4.163420877836099959e-03,-1.981438794659021174e-03,-9.797412596824898401e+00
2.293435561279271243e-03,2.938009429229826702e-03,-9.807272860594039798e+00
2.891012149306322542e-05,3.987643273832034221e-03,-9.803003961400525768e+00
6.855842171805681673e-03,-3.322137109910008792e-03,-9.796981551460431703e+00
-1.370017565831287924e-03,-3.127171175163700155e-03,-9.794588397879376629e+00
5.182899035962001966e-03,-6.236603988660350921e-03,-9.808769039240335275e+00
-7.020629986181505834e-03,-4.459587027082958371e-03,-9.808373761134268065e+00
-5.670094409601178151e-03,3.740859162431441152e-03,-9.803564176915688932e+00
-5.778094350313779833e-03,-7.607584001420634144e-03,-9.797937169980437844e+00
3.728637409532529774e-03,5.668286336611788601e-03,-9.814039055734138373e+00
4.235710571413619824e-04,5.003187550246411455e-04,-9.803149006759893425e+00
6.070864601035862174e-03,1.057654108428921977e-03,-9.787018645744796075e+00
-4.906763034751104521e-03,-8.653180938402940539e-04,-9.805527611103952879e+00
-7.484200394794501658e-03,2.451241472554794611e-03,-9.788094512547186099e+00
-6.134322636275741075e-04,-2.161579272536232142e-03,-9.809820414848923420e+00
9.804209793198631270e-03,8.029156678998004490e-03,-9.790314225539614057e+00
1.284049403535690061e-02,8.797276254976225604e-03,-9.797528245443894335e+00
5.670293252966108859e-03,-4.140532293281569756e-03,-9.785905498878900488e+00
1.323151304483337906e-03,-8.133354762733370144e-03,-9.796148130852554203e+00
8.212643752821756696e-03,3.345693736472665682e-03,-9.814291875054712122e+00
-4.635795448411736408e-03,-9.648213503783299033e-03,-9.803329353330870077e+00
4.689637990221161984e-03,-3.636037547441924207e-03,-9.795143228878600894e+00
1.961994375337486243e-03,-3.922244967493214093e-03,-9.805215000108818302e+00
-1.056897707214886697e-03,1.436718527452235123e-03,-9.801203855084610339e+00
-4.645783589821363309e-03,-3.375321947710065509e-03,-9.801844543953292188e+00
2.492198271898315109e-04,-1.503632549023015824e-03,-9.808817593849019190e+00
2.360099530225550583e-03,-3.171528882006411981e-04,-9.809378984518415834e+00
-7.945754019274784211e-03,-1.857874261350334847e-03,-9.792112492462702988e+00
1.031752430912464332e-04,3.700339091504613754e-04,-9.813350011293529462e+00
-2.346997441214668072e-03,-7.924719203494107189e-03,-9.808982412190925260e+00
3.121641717545292800e-03,4.619548941202739241e-03,-9.793887306313660446e+00
-1.065826135670195664e-02,-4.574375497994063837e-03,-9.810531168214160047e+00
-3.839864727189202642e-03,-5.036947166214146131e-04,-9.800432463255949855e+00
-1.251148530713644923e-02,-6.686553688498353409e-03,-9.803289293560043305e+00
6.751888678518724873e-03,1.400132822639574628e-04,-9.809516442564458316e+00
2.000280571919961156e-03,8.766451609895630284e-03,-9.801995442250436952e+00
-6.544721780689644747e-03,2.355999650043403334e-03,-9.806254479322463524e+00
-2.779439552532566877e-03,-5.588016185261913786e-03,-9.799295559138155198e+00
-1.701331079249240570e-03,-5.280881295521062772e-03,-9.795858190194987714e+00
-6.967446798429591942e-03,7.867121585287788210e-03,-9.810146897925601905e+00
8.032241793493880705e-03,6.115513654756688476e-03,-9.801078150212298112e+00
-1.277349838279857473e-04,-2.102838754139537813e-03,-9.802895839387032240e+00
2.884867765471376116e-03,5.041250421994928309e-04,-9.811017975214975095e+00
3.271282788665356468e-03,2.250287381602983708e-03,-9.802868078582733347e+00
-4.405315444532526166e-03,-1.553919048545269327e-03,-9.811948982930791985e+00
2.803335854933658271e-03,-4.370943294115990641e-03,-9.793450223308814984e+00
-2.357925188003091692e-03,8.677437450676328372e-04,-9.819180266760367815e+00
9.028811032057855804e-03,1.132418895128840114e-02,-9.800758434613680237e+00
2.440658845864722946e-03,8.893156760501255817e-05,-9.792495046752053511e+00
1.825407045665659650e-03,-7.945826166077215365e-04,-9.810081702126911551e+00
-2.849120853704747644e-03,-2.893760541313438947e-03,-9.804721593683899172e+00
4.999541630073101907e-03,1.682591560941212958e-03,-9.803565284433215510e+00
1.359543831294836736e-03,2.416837214890569553e-03,-9.786919323194503306e+00
-1.448798535680872112e-03,2.034789271060608376e-03,-9.801383192920791743e+00
-2.529442721181841477e-03,6.664046622497493948e-04,-9.803859827691942641e+00
2.734619481100305626e-03,4.870060187899993473e-04,-9.819426008127692285e+00
-9.969798024424669086e-04,6.888959657066339760e-03,-9.794321385308370154e+00
-3.886123041054090690e-03,-1.338385089257002059e-03,-9.814125566288824487e+00
3.870080627658650883e-04,-4.223098538561194555e-03,-9.804709030823513416e+00
2.668737493601931483e-03,3.658755499387518397e-03,-9.808140680672005729e+00
6.410286799852844830e-03,-3.248382493970189584e-03,-9.806809987845104715e+00
1.803715945045635503e-03,1.528609311362505441e-03,-9.805661478725303581e+00
1.110231621778969349e-02,-7.794254607749155281e-03,-9.802269598679917095e+00
2.190649338713661961e-03,-3.997657891272604277e-03,-9.815324088558572413e+00
2.849550620644547647e-03,-1.199183230024590888e-03,-9.794392638020966046e+00
-4.204045026070748863e-03,1.559734867520360356e-03,-9.808720728106436582e+00
3.104764252512349013e-03,5.043276831218653986e-03,-9.801625150957072208e+00
-1.654059580088856874e-04,1.544551362537998664e-03,-9.811847059242722935e+00
-3.112418118552675098e-03,-3.152013883183901397e-03,-9.801413954828435138e+00
3.283417956707945350e-03,-5.655884207256924208e-03,-9.811588702430810827e+00
8.700143935911494814e-04,8.566532919005846215e-04,-9.814115728203351097e+00
1.954504474629267016e-03,1.043159473754609861e-03,-9.803556794448336831e+00
-9.159088332339871893e-03,4.647030456957077990e-03,-9.815805080540334515e+00
-1.801692533772081143e-03,8.103861615412601485e-03,-9.783148682292342357e+00
-2.234558475631491428e-03,-1.088730062422604405e-03,-9.809986389698030607e+00
2.548048050088390273e-03,-9.524261167406039563e-03,-9.793670941694662346e+00
7.000549107766789424e-03,-6.281459153404365687e-04,-9.804847382345119655e+00
-2.320666838667826033e-03,2.073206308245812302e-03,-9.809032322436495477e+00
5.776278028359323712e-03,2.532330508747040760e-03,-9.806192704935567050e+00
-3.028614674752976368e-03,1.079134232639097912e-02,-9.799242523521867199e+00
-4.483227589828318350e-03,1.439324389622646935e-04,-9.798338324582614334e+00
1.190118461924901750e-03,8.392443218167370753e-03,-9.795946638955927099e+00
6.252051026323009533e-03,-4.190211649119745911e-03,-9.805420668806402063e+00
4.155047003357587032e-03,-3.163853033236296419e-03,-9.800658133511971570e+00
-4.239740467947757455e-03,2.015736933142878683e-03,-9.797390457426670807e+00
2.169822441281320582e-03,-1.338948393744029746e-03,-9.804725029849455709e+00
8.237408558747910670e-03,-3.692708331820376139e-03,-9.816327434570007782e+00
2.218366470740271244e-03,-7.255222395128827634e-03,-9.820173400948656095e+00
-9.027143121791746452e-03,4.333269401383531283e-03,-9.808519552790924578e+00
3.292680462315574798e-03,1.293502300150363741e-03,-9.799148879343901442e+00
6.126481983938261407e-04,-2.725707021789645131e-03,-9.798725383441363235e+00
-6.560417148911169664e-03,-1.503646714429164935e-02,-9.801557370011758863e+00
4.602419449523864267e-03,-9.523562911155564800e-04,-9.811190503811756614e+00
6.185914953609461184e-03,2.284114015697017320e-03,-9.816509229415691706e+00
2.370539877904013441e-03,-1.992343838019749666e-03,-9.798447298349797663e+00
8.339331251873740788e-03,4.881390652357548397e-03,-9.787505159174580527e+00
-9.758909180105333064e-03,-4.292574613372898001e-03,-9.792929328187675253e+00
-6.175685643821586523e-03,-5.701255584365568646e-03,-9.816733467376275613e+00
-4.361209062643717910e-03,1.135970796194623808e-02,-9.810438347973356343e+00
1.079525183911905686e-03,-3.530115367999734754e-03,-9.802083602198539580e+00
-1.774841435788307442e-03,-4.154482712780798934e-03,-9.814982000635191994e+00
-3.381024081865072282e-03,-4.424072876091933622e-03,-9.806684673774322292e+00
5.098616842928387939e-03,-1.866077177399913826e-03,-9.797321213972242759e+00
2.067250079180093115e-03,-3.820544506645824189e-03,-9.803489962932463442e+00
-4.443962648637013978e-03,3.291086052536607801e-03,-9.806646441605691322e+00
-9.266346068335650247e-04,-4.945935674759789104e-03,-9.794292218537028916e+00
-6.731204870084256560e-03,-7.608863936096169761e-03,-9.806342617518131632e+00
5.005553074536624528e-03,-1.063292843897508874e-02,-9.800529855402555057e+00
-2.756832300764016416e-03,-1.703066342404298099e-03,-9.798281603729575906e+00
3.406533100594826523e-03,6.760071439602621758e-04,-9.808377138837162335e+00
-1.373605860622469955e-03,4.451931738366174743e-03,-9.806491178787727137e+00
-6.715316615042351937e-03,1.114179292497451644e-02,-9.802215263082857177e+00
4.069764542939349750e-03,1.055204263403812992e-03,-9.806909362090232563e+00
-1.852669783942466645e-03,4.171356557618458548e-03,-9.806317784879359678e+00
-1.643825797189767991e-03,1.177674111122362045e-03,-9.809380908556940781e+00
-7.023809550483794181e-04,-2.559809684286340394e-03,-9.794299853630780817e+00
-2.243173600612471865e-03,-4.628394256077496965e-03,-9.800987557164420494e+00
4.794942784282726390e-04,-3.878896577947450915e-03,-9.800727349488976614e+00
7.063502021562999798e-03,2.027163662205263509e-03,-9.786314726978044831e+00
4.920810113054390790e-03,5.455665658940431033e-03,-9.813945268884141981e+00
-5.723923943759775743e-03,3.988324350824084749e-03,-9.805961880334372438e+00
2.409234645720516668e-03,-4.326255439109885810e-03,-9.800586865932594094e+00
8.897432269240100958e-03,-3.231983731892496356e-05,-9.799393355246778015e+00
6.174656695331702527e-03,-1.794411589600390525e-03,-9.810572691525544897e+00
-1.744327873280108923e-04,6.939677478995169048e-03,-9.795377430043492595e+00
4.488663144130997443e-03,1.816679754929299492e-03,-9.797891231791211908e+00
-2.228221663231635258e-03,2.027674418731566491e-03,-9.801787825278641009e+00
-1.235476398829901017e-04,-6.242285057872834324e-03,-9.803118376834852654e+00
2.232956965997925664e-03,-3.027926756507945925e-03,-9.807746942646017985e+00
-2.720470786703857013e-03,-3.685456336513164271e-03,-9.801965283052872735e+00
-1.711639895310078938e-03,4.829693844885877760e-03,-9.804037523168085855e+00
-2.764351259999888333e-03,-8.385559682295718950e-03,-9.800219897351293952e+00
1.397998729094957274e-03,-4.194481861283760361e-03,-9.799973166838270799e+00
-7.067639581854826165e-03,-2.586010920684498390e-03,-9.798751557421299552e+00
-9.229460958850639607e-03,4.770113310372224753e-03,-9.809281905725580231e+00
9.945126838990035311e-04,-1.886623733919789775e-03,-9.808336455927678443e+00
-4.608876532850847245e-03,3.103575604145684345e-03,-9.801744899774915254e+00
-1.110424101880560718e-02,9.994195537658462011e-04,-9.808120372768090789e+00
-4.450729493851256387e-03,6.242449211129364600e-03,-9.806199201061765791e+00
2.602174138455736201e-04,-1.269447376357080636e-03,-9.793306946366730159e+00
-1.061838620313004279e-02,4.402335065119189830e-03,-9.805392856065155982e+00
-5.600725016660576538e-03,7.801530297962148107e-03,-9.804040278669182484e+00
-5.704879098563399569e-04,5.833311915605952046e-03,-9.815002271038327564e+00
5.398171598585830211e-04,9.973170143097166013e-03,-9.809576415811132932e+00
-5.088676814461045791e-03,-7.791270184242967117e-04,-9.797095088122397044e+00
-3.113203952574122163e-03,5.491525168031817332e-03,-9.791903247893282369e+00
1.908769902690389498e-03,-3.646327140135131786e-03,-9.804433813035188905e+00
2.006539780873013278e-03,3.909045475838170830e-03,-9.802879219961644353e+00
1.024908731432336512e-03,-4.845845898415014792e-03,-9.812331816167123577e+00
-7.497721216913173781e-03,-7.899128944148525039e-03,-9.794610933588705493e+00
4.329357273096042132e-04,3.726140648278327468e-03,-9.812261701929097413e+00
-2.968532268281476316e-03,8.270529801311009505e-04,-9.799239578862598776e+00
5.878916906831658032e-03,-3.707049185670828560e-03,-9.809821578100789807e+00
-1.652355887758851991e-03,-1.859850747807661846e-03,-9.813979621868076819e+00
-6.405974952776080297e-03,-8.332815346827945197e-03,-9.798622886579417823e+00
-1.151135204794682086e-02,4.652214122367977732e-03,-9.788893386116917839e+00
-5.704085434984986630e-03,-5.554078125544817217e-03,-9.811603219649049024e+00
-3.708361301264842796e-03,-1.455012883564427888e-03,-9.800659665163580669e+00
-3.075399099820801726e-03,6.075022689050323110e-03,-9.787679589844927364e+00
2.393620512530286390e-03,9.854901410310595508e-03,-9.793682866014972177e+00
-3.482949344833514982e-03,-3.452745850601231063e-03,-9.794205158908509290e+00
7.278032539979079063e-03,1.912010134326876023e-03,-9.790836896188762850e+00
4.179990652147892510e-04,1.212512656403127390e-03,-9.803065916627806686e+00
5.286353156963962373e-03,-5.064267013938541628e-04,-9.798378541674418685e+00
-2.735492369585665849e-04,1.673604984165741284e-03,-9.799201686877175632e+00
-2.150445648862102030e-03,4.369037101551915409e-03,-9.787116301129145768e+00
1.486083075726583880e-03,3.528555238313617597e-03,-9.802060593246171294e+00
-2.111012934257262483e-03,4.843696857758136853e-03,-9.800973901079494510e+00
-2.289791337111243656e-03,3.576790786774748480e-03,-9.803282202420605884e+00
-3.178476982254700711e-03,-4.334799186552235756e-03,-9.809195101383350490e+00
-4.422171687398911144e-03,-5.910324613693505088e-04,-9.807123573655259108e+00
6.881431763015365653e-03,3.172278158252007474e-04,-9.810369190384557569e+00
-7.948424253688019317e-03,1.369347004066482666e-02,-9.802289176640886836e+00
8.454562479412240476e-04,5.713011691331703300e-04,-9.796763908094723305e+00
3.902505831450130223e-03,3.999863894792254166e-04,-9.803255422147140408e+00
-4.436584974147846083e-03,4.522693175835259920e-03,-9.798023077730778851e+00
8.334113303930835721e-05,-2.125512329728630224e-03,-9.798989227864247198e+00
1.517826993716178197e-04,-3.489800598959953183e-03,-9.809654884808528763e+00
1.003032434295215135e-04,6.422196352045160192e-03,-9.806502306999403729e+00
-2.878987301196039416e-03,-1.273708220503572564e-03,-9.796508094653230359e+00
8.713455298414418118e-04,4.603385291639077240e-03,-9.791357186469825891e+00
5.587885999578064318e-03,2.516178451121856875e-03,-9.811529310009552418e+00
-2.555430255936126920e-03,2.169795588161243800e-04,-9.794516257468512066e+00
4.248456279497660540e-03,-4.913284035445254772e-03,-9.795408028072596807e+00
-1.164526970155674909e-03,1.259871839610576458e-03,-9.789939956761308792e+00
7.419577453624515671e-03,-1.318764164647109882e-02,-9.810796118831001777e+00
4.087603121157355399e-03,1.064768620843125312e-02,-9.804930583091444163e+00
4.303859023734661095e-03,7.778784822683139019e-03,-9.804192082760167182e+00
-9.334516861669161104e-04,9.325883181209854286e-04,-9.800931581044171281e+00
-3.038863324555668302e-04,3.784641788379912615e-03,-9.787135110335611898e+00
2.652125685546583445e-03,-7.792355162830531768e-04,-9.795578706155879445e+00
-4.113053053961486570e-05,-1.681348916912077829e-04,-9.817441429812124198e+00
4.516545122078374601e-03,4.969965066325677389e-03,-9.806687117708692725e+00
1.797816888406926895e-04,-7.200530699196848981e-03,-9.813500139927171517e+00
6.177848288932193815e-03,1.405732114820379061e-02,-9.810071307062511181e+00
-8.050299739120570647e-03,-3.473037923282682946e-03,-9.799673664922538663e+00
-6.676952128558934219e-03,-2.688157163689787032e-03,-9.817473677721853420e+00
-4.584253782215159446e-04,6.012197565043715317e-03,-9.807555064736137140e+00
8.119803504971455366e-04,-8.454078842029237205e-04,-9.808457002030943173e+00
-4.405802834871122217e-03,-9.382054627866882098e-04,-9.793316415949819387e+00
-6.605390201761412311e-03,3.589077282215645797e-03,-9.801459201280295019e+00
3.333774549280469485e-03,4.803665453575941061e-03,-9.797800982011354520e+00
2.733500173173869594e-03,-4.357791827689238943e-03,-9.794181371374481415e+00
1.805043405777816395e-03,-4.247785547919697043e-03,-9.802768520568154287e+00
2.825741823227584295e-03,-4.707613188920625920e-03,-9.825037909113749635e+00
-4.283036758863033658e-03,-6.139384995901925280e-04,-9.820317208139027088e+00
9.469661084369439263e-03,-3.117101711784523409e-03,-9.814093417825120014e+00
3.709543656704713654e-03,-2.385736111207312302e-03,-9.794613452911880458e+00
5.607753333458527327e-03,2.401168370943780432e-03,-9.792139903596483563e+00
-7.164572559622070166e-03,2.833998062354187251e-03,-9.803547225187031700e+00
3.506106885139820099e-03,-4.741201890238635856e-03,-9.799736200556086629e+00
2.149697759920863541e-03,8.029943927776644896e-03,-9.814756985847433057e+00
-5.900694704494708828e-03,-3.721458548224184770e-03,-9.798256466345543814e+00
4.881124506045828211e-03,2.759499860734771978e-03,-9.798693658411790963e+00
-7.508766100965976083e-03,-3.571159373942423866e-03,-9.810367604912284989e+00
-2.052651458276553447e-06,6.010236751941401903e-03,-9.785726136019496479e+00
4.123154008679240888e-03,6.978667508696340506e-04,-9.801177096901263042e+00
-4.155330920220167909e-04,2.084201734374640461e-03,-9.809594487334825530e+00
-2.503592024863635253e-03,-1.245884988196407136e-03,-9.810942682253784852e+00
3.188372807097152213e-03,3.914484453205187113e-03,-9.799591526087343851e+00
1.288053255194972517e-03,6.853235665286886401e-03,-9.807364965810734247e+00
-6.540142025490552034e-03,-5.014715809408437294e-03,-9.809149283691244392e+00
-5.336535953530445464e-03,-1.020745062684451148e-03,-9.801859073136263589e+00
4.759293277161516338e-03,1.258372336904640607e-02,-9.793802517053695311e+00
5.596217251566136530e-03,7.099193311450128878e-03,-9.793807093129929697e+00
7.619995728449931952e-04,8.942222700120605258e-03,-9.794805198620004205e+00
-2.713231114672450765e-03,2.999670273230134986e-03,-9.809247143608837760e+00
-7.755068185150857697e-03,9.958371447974191312e-04,-9.803779106942949184e+00
-2.895338113578025795e-03,-2.643300771716291034e-03,-9.797849557141022458e+00
4.539407405450161586e-04,1.017142454685426639e-03,-9.791009670451826352e+00
-2.722696358325782384e-03,6.438658688679616037e-04,-9.805700857985504726e+00
3.921019392325021842e-03,-3.359536888628881189e-03,-9.810363887224484714e+00
-3.993027730725576957e-03,-1.155576171082859163e-02,-9.806698109568536381e+00
4.189670031142562860e-03,1.078979212058675356e-02,-9.800889268879934946e+00
-4.325691530820218074e-03,-1.266038515155183848e-03,-9.805598394938069617e+00
-4.293235925396265973e-03,-2.445544440179126672e-03,-9.822069362161506945e+00
7.366726517368119356e-04,9.613778910265834837e-04,-9.794585830622500211e+00
6.792170183413394867e-03,-5.047591553976566586e-03,-9.802526707481185042e+00
-2.104638164187348868e-03,3.538621061996995686e-03,-9.799950159998005006e+00
1.068257169980836238e-03,2.844319775635712443e-03,-9.799971441033495267e+00
5.861249010445465472e-03,3.369554458128305122e-03,-9.803619497879951794e+00
3.158227212612829682e-03,-1.155512434166871757e-02,-9.807433040078812780e+00
-2.195219001264946904e-03,-2.828285393896890626e-03,-9.798792904710490248e+00
-1.339143218346046903e-02,3.305141125428606459e-03,-9.812769030121701874e+00
2.688808846528033866e-03,-4.010441024380619925e-03,-9.804906313645462390e+00
4.823903984639900042e-03,-1.708450457245965729e-03,-9.793426845441569384e+00
4.022616016610264938e-03,2.988660952182960705e-03,-9.804239839528630540e+00
1.244914798891521906e-04,8.111685468377814387e-03,-9.798014684929539087e+00
-2.781023817512623224e-03,7.286860186311274606e-03,-9.814147834534878712e+00
-7.163511565659451581e-03,-7.351500888484428786e-03,-9.792145366090974079e+00
9.345160372141189317e-03,2.431660000180177906e-03,-9.798546634939572897e+00
1.310368530858104126e-02,-2.206555650090678573e-03,-9.798944299754747789e+00
9.866964661772240075e-03,7.248834050671801831e-03,-9.791645331786451578e+00
3.172510846667014189e-03,1.018251238273441654e-02,-9.793954586331429013e+00
3.163288982741748433e-03,-7.262042831893445426e-03,-9.807514220640332070e+00
-7.819866804905096754e-04,-2.703659134708934295e-03,-9.802985891097206306e+00
1.447444559398160377e-03,4.403430932861035008e-04,-9.799860776802269413e+00
-7.029993980184972256e-04,-8.286415079801845787e-03,-9.815895476243563067e+00
1.106199450164598898e-02,-5.593745047363939821e-03,-9.801320935858781169e+00
2.235020523833658630e-04,-3.285574724995423378e-03,-9.812421331039427486e+00
-4.264624106346420773e-04,2.442665260863006982e-04,-9.794343143515732208e+00
5.256649338701270546e-03,-5.824260031731922152e-03,-9.811347795239754532e+00
1.031257680434591751e-03,-5.135642686265869811e-03,-9.787525602618682541e+00
-2.761064037203479586e-03,2.268681835071441506e-03,-9.804440832701610375e+00
2.035578452099849438e-03,4.802430918988728759e-03,-9.810190836120570523e+00
-3.697053663708771160e-03,2.630411255850541308e-03,-9.813239819304511613e+00
7.852537134414909470e-03,1.192390430410009312e-02,-9.808405859674595106e+00
-1.244944665775446491e-03,-2.599633662682765065e-03,-9.805136815556950936e+00
7.642144968308094317e-03,1.375241361557954503e-03,-9.804032008325343384e+00
-1.687600322470183406e-03,-7.058123443299547592e-03,-9.797927637755991626e+00
-5.961144018810096527e-03,8.143785814074872356e-03,-9.808491361921852558e+00
2.593040933283668678e-04,-1.620868685116205873e-03,-9.808548035914876451e+00
9.408870675090648047e-03,2.621008274169158055e-03,-9.807084205379050346e+00
3.519700224447818576e-03,6.894927679903881806e-03,-9.787666210417246049e+00
-8.666493483171335346e-03,-3.645973780182912901e-03,-9.791832555541056138e+00
3.497849147211624758e-03,-2.759613694202883282e-03,-9.800873374401852800e+00
-6.714913457332501168e-03,3.065675062381581582e-04,-9.809270916220738101e+00
1.659162418135554443e-03,4.581941574174091918e-03,-9.799534341180603292e+00
1.002048933732715237e-03,2.798143898084385402e-03,-9.799938874640062636e+00
-2.798033408799560293e-03,-9.170013470987108551e-04,-9.802145358716277457e+00
3.292306628787253220e-03,7.431659392864881433e-03,-9.815349830891237914e+00
2.289057293792057680e-03,5.703643048434190246e-03,-9.810610136908511691e+00
-4.459326737113689966e-03,-1.630759344966876533e-05,-9.793739072236057552e+00
5.961001080669419555e-03,-2.562011093172015565e-03,-9.804833990478647010e+00
9.194844099654049530e-03,1.616463029928257716e-02,-9.795810339544448908e+00
-2.648409381760579318e-03,-3.410541785152904504e-03,-9.790034122634322600e+00
-4.236992543143858203e-03,5.522260856535041000e-03,-9.803439584730011092e+00
-8.871524025225856550e-03,2.762502361306483877e-03,-9.805729112978536222e+00
4.244105850408591389e-03,1.122695650894127005e-04,-9.794800421223209597e+00
6.086227969374576746e-03,-5.124421287467232841e-03,-9.788866154816375342e+00
-2.750557936814833435e-03,-1.854858175189142734e-03,-9.808729430559381512e+00
-4.347722498550204637e-03,1.505509713516083167e-03,-9.802826201512102600e+00
5.895182939636914830e-03,-2.892709098435889466e-03,-9.800569023291906490e+00
-2.827434748764707118e-03,5.824723966198323166e-05,-9.802458942094085970e+00
3.583841803635795867e-03,6.200359289205772950e-03,-9.813984112871594334e+00
5.968434443822763155e-03,-5.904474487284378480e-03,-9.793895252938378704e+00
-3.022486908735996184e-03,9.190998727670693369e-03,-9.791275189924400379e+00
1.407008310160634199e-02,-6.733261388726536137e-03,-9.792245086487962880e+00
-4.033177304364923658e-03,-4.096859218402431994e-03,-9.808436168628043461e+00
-3.161926746276420776e-04,-3.065813907427941947e-03,-9.805681448233301012e+00
-6.893596997918499669e-03,-1.580884513301938563e-03,-9.794666219181838329e+00
3.336574420676796486e-03,-4.221567541932317452e-03,-9.799738987940887824e+00
-5.473556735538081044e-03,-4.022308524920188526e-03,-9.791061069232362968e+00
8.054865859437760137e-03,7.368032962702195793e-03,-9.800311592619062040e+00
5.724326605592501560e-03,1.889785629580844435e-03,-9.795861072988413909e+00
8.001567949884012820e-03,6.715967724664919855e-03,-9.800949931676170124e+00
-7.563249226684725865e-03,4.839039261564896319e-03,-9.791717091802471629e+00
-1.013334730867485739e-02,2.758597793699931518e-03,-9.798649088171512034e+00
-7.977660119915528161e-03,5.310115199430622858e-03,-9.802894706049345430e+00
-8.162051540926703143e-05,-9.335842827083958625e-04,-9.818042059474255012e+00
2.490182017975938519e-03,1.106747400836789047e-03,-9.795227897693187913e+00
4.551580461429834829e-03,-1.213392615203834042e-03,-9.797124786923957274e+00
-9.803874561204206986e-03,2.897037143959473558e-03,-9.803558833417669760e+00
6.878197125122357310e-04,-3.725768301392172032e-03,-9.802292177156530784e+00
-1.335321826633143654e-03,7.550091805613279305e-03,-9.815534322473071782e+00
1.264404787910855359e-02,-1.150797579915690400e-03,-9.789819405579248013e+00
-6.653817880114407590e-04,-7.530089667542896837e-04,-9.796426873879497066e+00
-1.036293944490162492e-03,1.043203644916987707e-02,-9.804667372471099540e+00
8.900575160885133754e-04,-1.696729340444916951e-03,-9.798217359585640551e+00
1.637572432208635317e-03,-1.007796765569898096e-03,-9.805732240457334825e+00
-7.199267703143696559e-03,-9.457370313275054868e-03,-9.811754713998299238e+00
7.550873432078177537e-03,3.650799617684750715e-03,-9.807256898334367534e+00
-8.893608507071423808e-03,6.688774761153954947e-04,-9.804210740220776543e+00
-2.771557584509263920e-03,-5.019519028911602343e-03,-9.794110675056753479e+00
3.973554418912079306e-03,5.535533763307321463e-03,-9.803340670408388746e+00
1.694512978990723139e-03,5.335578774068936228e-03,-9.796740021294752410e+00
9.447769394432562959e-04,-3.785597486076059531e-03,-9.790899958914621948e+00
1.035836647949138619e-03,8.367067591864882359e-03,-9.803111869248033017e+00
7.280237283944587627e-03,2.900199623889419733e-03,-9.804067782038664802e+00
1.133184059206519302e-02,-1.882052764711777352e-03,-9.807681160547549126e+00
2.116637435032382719e-03,3.437086790924161889e-03,-9.802356870450459780e+00
-5.263255424586562627e-03,4.311459940644384557e-03,-9.801152142460429317e+00
4.659003006442292982e-03,1.075678964840303189e-02,-9.803012689949532898e+00
-3.203753666848074312e-03,3.964942406383700074e-03,-9.804913634539284217e+00
6.641442106552574061e-03,4.086627338066352484e-03,-9.804545089379303136e+00
1.942031962679657874e-03,-2.593558925796837344e-03,-9.798449045822026804e+00
-2.100546580475952472e-03,-7.603204461494490751e-03,-9.803422028878085115e+00
5.124009071593231893e-03,9.062421498521603530e-03,-9.802294003149814472e+00
2.704258734371564610e-03,-3.200470820700898698e-03,-9.819193236732726149e+00
2.035979473924131970e-03,4.970831953857782898e-03,-9.799079461753471776e+00
-7.882703905383288759e-03,6.094213719855058256e-05,-9.810406037342785268e+00
2.163501068137844291e-03,1.258118803861902951e-03,-9.806051272095867688e+00
-3.456836447906607226e-03,3.626152774666528949e-03,-9.820347561094738609e+00
8.928778299664124739e-04,3.370506750841921733e-03,-9.802376313932741780e+00
-3.064955158837342434e-03,-8.342035552869346907e-03,-9.785390024760941330e+00
-3.408608973351671435e-03,-4.250478589854386931e-03,-9.790766557740322895e+00
1.339470139928490176e-03,-9.168559666788965792e-03,-9.803027485901662175e+00
9.200351144262628811e-04,1.535963047008728722e-03,-9.812545396668351572e+00
5.287754688106612901e-03,2.095036623050499421e-03,-9.800770129821808396e+00
5.833960867244544421e-03,2.642591163472066736e-03,-9.811662339042902303e+00
-6.684318794401568689e-03,8.197993867598132650e-04,-9.794231396914955923e+00
2.539319092517787219e-03,6.699199111128575392e-03,-9.797771072623048028e+00
-9.829591607072010653e-04,-1.005362074790303820e-03,-9.819590774214088214e+00
-4.578486750520679126e-04,8.490128777968506887e-03,-9.816669334111969292e+00
1.156222501856875003e-03,5.679057864593253270e-03,-9.810138075433266991e+00
-3.640412001342420087e-03,-4.490052520614697638e-03,-9.806833757642456462e+00
-7.877163405701810214e-03,2.539335707740567744e-03,-9.816397803770318120e+00
1.419844433950757413e-02,-2.562836974877781451e-04,-9.810274715928287037e+00
-1.234987718185825154e-03,-4.961783298522908642e-03,-9.797944156237338831e+00
8.590349712189434758e-03,6.586046331597096050e-03,-9.787458538818370357e+00
-2.049682692331692563e-03,3.591921939840952982e-03,-9.805687531795360456e+00
7.038780338397145064e-03,-5.629025085241640310e-03,-9.797446884682601720e+00
-5.883979579281220767e-04,8.434574894938702539e-05,-9.792621531362117437e+00
-1.259324749241224652e-03,-7.656977937344795889e-04,-9.794364892447749327e+00
6.607773363976221503e-03,1.297175269429152317e-02,-9.784701739041087976e+00
3.598234493224930150e-03,-5.121264697975806864e-03,-9.797711993288880095e+00
-5.335427624233104885e-04,2.277120153645248966e-03,-9.785391856391965959e+00
9.343430234122757484e-05,-1.375470069349280650e-02,-9.805959506491010558e+00
-2.059025339583923832e-03,7.500476710184845672e-03,-9.807937614561277329e+00
-9.946435628603514725e-03,3.686052598189928572e-04,-9.795405663743443014e+00
-1.562747149358414056e-03,-5.267121923965434153e-03,-9.787509828134359324e+00
2.021816374163966368e-03,7.295340178591416813e-03,-9.799644989123065031e+00
-5.053159304372635812e-05,1.038438262987554338e-02,-9.805548493671389920e+00
-1.243661703046321535e-04,1.476824291892143114e-03,-9.802769606878078079e+00
-3.963508154930297242e-04,4.917550824107223134e-03,-9.816730729310215509e+00
4.000476251829613791e-03,-1.741152485716033734e-03,-9.799276541705641108e+00
-4.456601185363744458e-03,-6.651483954149669999e-05,-9.812746730360656144e+00
-9.486089678451742335e-03,-5.134672357777656605e-05,-9.795107473675699339e+00
-4.103482655535933788e-04,1.495252838746313588e-03,-9.805156516607931749e+00
3.771790472531488889e-03,-4.883335821957474239e-03,-9.813591786723158350e+00
5.813895035978612798e-03,-7.711618764440241088e-03,-9.804322693654555110e+00
-2.771962818970746031e-03,3.044176180610085047e-03,-9.798857956874766018e+00
1.999684621952303731e-03,1.204141364145063127e-02,-9.809612686707692930e+00
-1.175857536970380962e-04,4.744628623298740612e-03,-9.801711969350799691e+00
2.633419524197802043e-03,2.369563831163363273e-03,-9.810375765226430289e+00
1.422909295322749958e-03,1.758379660607439863e-03,-9.808895694172072410e+00
4.647488024307649609e-03,-6.120532821300254077e-03,-9.802234776346214318e+00
7.178177351990383016e-03,2.555618754514336812e-03,-9.802371663842912142e+00
1.191316219834731745e-02,1.009078050514983053e-02,-9.811869109130061162e+00
-2.680481706403276118e-05,7.317513434203580091e-04,-9.792699087254952417e+00
-7.882704064905435987e-03,-3.469547420560536392e-03,-9.790911219223580986e+00
5.460520893400967746e-03,-1.193726140326354344e-02,-9.803456691549817137e+00
-2.194531574166226715e-03,-2.222543645543894816e-03,-9.817633246427345028e+00
5.423411733136325463e-03,-6.215503960287612276e-04,-9.807671327674244210e+00
-5.868117453989052899e-03,5.261388327516183100e-03,-9.803227455444410765e+00
2.344564230094830712e-03,-5.928063664362054862e-03,-9.815633144334222848e+00
4.745144596186438510e-03,-7.064950729552242799e-03,-9.791388484952420868e+00
5.250982283141162818e-03,-2.063136223519401475e-03,-9.777546400395435100e+00
-2.307592136388751658e-03,-2.740156717021034229e-03,-9.797914005432316387e+00
-4.250181346299816525e-03,9.380399912321576560e-04,-9.811828642239138532e+00
-8.134723635822441526e-03,1.926219301318437280e-03,-9.811219688297244446e+00
-1.405517610983598358e-04,1.067933240804271999e-03,-9.810999994535677615e+00
-2.173570476352452215e-04,-2.486364380245323531e-03,-9.808646728021015448e+00
-1.164525185889238052e-03,2.349700454552967454e-03,-9.797564121192628761e+00
-2.887266717939517609e-03,2.530323944164842350e-03,-9.798397328961593544e+00
-1.064287831585449288e-03,-3.680109219985601334e-03,-9.817905682916968857e+00
1.964734107044292799e-03,-1.792706522512312745e-03,-9.799455877739855936e+00
1.426911524296457486e-03,2.303096799316334611e-03,-9.805330327813409852e+00
4.114920711303509358e-03,-1.288230144543732144e-04,-9.802459953688748229e+00
-7.973165720696947373e-04,-1.958038473564818055e-03,-9.792650898982664387e+00
5.492308830533298818e-03,-6.210500951807520695e-03,-9.786622720583652679e+00
-1.601246851385804918e-03,7.236357435988904387e-03,-9.785546357168438902e+00
6.137380039618608313e-03,-4.059362981367475517e-03,-9.806750597803006286e+00
2.887440457233583259e-04,-3.835589598669862741e-03,-9.785087076602987821e+00
-1.122478400969373694e-02,5.638444651551740780e-03,-9.791497480365501715e+00
4.829236159621953448e-03,2.984897536460731984e-03,-9.786825924581126657e+00
1.675175503956067246e-04,2.373522765298745254e-03,-9.790517887011256803e+00
1.060029152865314466e-03,-5.030674739393363980e-03,-9.815373449780086190e+00
1.024967536780052764e-02,-6.258770331070046683e-03,-9.799651859361508954e+00
-5.966248715847273336e-03,-7.530804172030607958e-03,-9.810560985584226401e+00
3.637993655154792027e-04,4.226008587114505515e-04,-9.820564618954458425e+00
5.269904064055109041e-03,-2.951735264560306857e-03,-9.799506065144667488e+00
-2.158159876791639932e-03,-1.001969421609932420e-03,-9.816588376681954387e+00
2.450168177427174045e-03,-1.111032419699292109e-03,-9.808549612108015126e+00
3.150444267963889433e-03,1.610868100289623991e-04,-9.800121493081441315e+00
5.776726511765342166e-03,1.057166096919217105e-02,-9.805508318957970815e+00
-2.379278656973003205e-03,-2.168819026381470737e-04,-9.797148469547426686e+00
3.456214794985725241e-03,-5.534024609898300501e-03,-9.807494104975377880e+00
-2.617570737249317204e-03,4.585161077802485732e-03,-9.804263128443706066e+00
1.068716403801193808e-03,3.479935011539692785e-03,-9.802017080202071853e+00
7.333693099480926604e-03,-5.206749343114292286e-03,-9.802875880380053530e+00
1.614226052518202099e-03,6.170588902308414905e-03,-9.792563495658802353e+00
-3.731330353504927304e-03,2.719922543769331697e-03,-9.808081370785917130e+00
-2.400939332896953864e-03,5.811654166135906546e-03,-9.800128779202720963e+00
3.341246673366183098e-03,-5.874235226704763689e-03,-9.804169354527601854e+00
1.292196385417400048e-03,1.417475458475085225e-03,-9.808515539105513881e+00
5.984364617429269000e-03,-3.809617793349221447e-04,-9.802665997673900122e+00
-3.817698459183514574e-03,4.486580623304783216e-03,-9.796074587458241112e+00
4.708816401436798083e-03,2.696196747978877716e-03,-9.788894138860364080e+00
2.236860672084085237e-03,4.540885394337296037e-03,-9.796453093123432154e+00
-8.444471245177225362e-04,-3.756882366064738001e-03,-9.797048826356764550e+00
-4.159925713429692140e-03,3.584514373293119522e-03,-9.800086189173233819e+00
5.978012708734949630e-03,-3.309072428627394136e-03,-9.803859522525193881e+00
7.537968484521755975e-03,5.576275364495539115e-03,-9.800230963037048326e+00
3.265968094904205324e-03,-2.126204486242802127e-03,-9.799818413262507022e+00
-5.220365878226571575e-03,5.224207045465244226e-03,-9.810708625166107311e+00
-2.605280233871057685e-03,3.043413584313462220e-03,-9.790853395676954563e+00
-6.325738557982762446e-03,7.929795291619445505e-03,-9.801566054605814315e+00
1.196639014420049267e-04,-4.158113069819833682e-03,-9.794427171012214828e+00
-4.445334610559991025e-03,2.865040842172276048e-03,-9.810883816462347085e+00
3.379605249283451456e-03,3.256774640169192870e-03,-9.810647382043510945e+00
8.760350632964450032e-03,-8.545586214909027187e-03,-9.800304959532034843e+00
3.961404493358100000e-03,-8.985423267756758800e-03,-9.802012402174861805e+00
-4.800415297888493103e-03,3.033992720106325376e-03,-9.794701997614943423e+00
-1.188789889831733896e-03,-4.494893019899639250e-04,-9.808954382265307359e+00
8.495478518860709923e-04,-5.354118199928756434e-03,-9.815551441756007023e+00
6.099580519608897855e-03,1.928927317935597973e-03,-9.819506464195667306e+00
3.198845366032790957e-03,4.196068134381660160e-03,-9.792715663166147166e+00
2.085273894797378454e-03,3.558710279450465132e-04,-9.797996193471412596e+00
1.119493067534495061e-02,-4.813408989924544169e-03,-9.815017733133316824e+00
-9.727941244714578828e-03,-6.056387265334429656e-03,-9.804153915695620114e+00
-5.133761240422406516e-03,1.023029340164572244e-03,-9.807384723344650723e+00
1.319263631027736998e-03,3.109698392232315353e-03,-9.800655639204155278e+00
6.370152518026724400e-03,-3.765936655342333461e-04,-9.797876211150764902e+00
7.995208030170279645e-03,-3.174620339614351791e-03,-9.803525042983551430e+00
2.148090224461234390e-03,-2.567054883238324529e-03,-9.801702073433046891e+00
9.675078084551310114e-04,4.605761896357465565e-03,-9.802404385530424591e+00
7.993141087731924638e-03,-7.018727039344237499e-04,-9.795380606172944482e+00
2.649602740565451010e-03,-5.838712393738442266e-03,-9.813175319530682117e+00
7.467862974581681657e-04,-3.663479170275129801e-03,-9.791640878409086923e+00
3.567829376391199250e-03,4.969642073291926157e-03,-9.811665670102687642e+00
-7.336313686075910615e-04,5.421692659642153925e-03,-9.803224779205645945e+00
9.575226418751239463e-04,-7.422230935931300490e-03,-9.802766764247289544e+00
-1.046523411437325665e-04,-6.270749056092286139e-03,-9.801290793393516054e+00
5.031789335908549293e-03,-7.868649977972248018e-04,-9.791381385037245977e+00
5.215476758194672116e-03,4.385080717709878909e-03,-9.805668735679665460e+00
-1.798593855431399350e-03,2.455869642685672865e-04,-9.801933869175650571e+00
3.085443207550957537e-03,6.065456889310995824e-03,-9.812529578005026565e+00
2.589696676124875977e-03,1.887849676946906988e-03,-9.813166433992988047e+00
9.954519979435829530e-03,-7.324628374015318411e-03,-9.796920525110602185e+00
2.907254507296354838e-03,-2.491725696700427140e-03,-9.810245697960603195e+00
1.380655343736955296e-03,-4.424686800270341905e-03,-9.788078091841816430e+00
-6.594350084837549003e-03,3.057077596512339582e-03,-9.802039059333941040e+00
-8.915970465226380481e-03,-5.704908062188985586e-03,-9.804485310331795489e+00
3.334728065130879333e-03,1.434696577639663377e-03,-9.801999298782611447e+00
9.781163066587496638e-03,-3.622182698130174596e-03,-9.798300297069506115e+00
2.320634657162727685e-03,3.724156062213725658e-03,-9.804909483618931887e+00
1.071317462057606688e-02,-1.198942495932796629e-02,-9.806197927335682962e+00
9.443389605528117181e-03,1.650405419070338948e-03,-9.812166184816399905e+00
-2.883197369236108372e-03,2.112934179980463598e-03,-9.797142262667728474e+00
-5.542304990515019032e-04,-2.518676631266019133e-03,-9.799641965316443049e+00
4.770698031393830543e-03,8.617436015115425424e-03,-9.798781802456309364e+00
1.137203698828111306e-03,-3.028095463967287512e-03,-9.807007889257803868e+00
-6.887445159399071919e-03,8.182494301489817712e-03,-9.801283233388833338e+00
-1.523872939998898064e-03,-2.619931240436829123e-03,-9.804675152848401964e+00
3.934035381387977412e-03,-9.408802649222400630e-03,-9.795925126659529525e+00
-4.330007167181249179e-03,-1.544150186043264121e-03,-9.811814629909926921e+00
6.770188135022750802e-05,3.305047589699142249e-04,-9.816871809430503859e+00
-3.331307594751170987e-03,5.625921329643572728e-03,-9.790339927551933386e+00
4.750935097181116582e-05,-6.878916391187398990e-03,-9.783457706577566526e+00
4.218396343146130125e-04,1.563657273854320278e-03,-9.798873060805988189e+00
6.446847565144240774e-03,6.453170334127029256e-03,-9.816659739925205130e+00
-4.327445911047777226e-03,5.688356845154220361e-03,-9.795021423385783521e+00
2.791037583531274634e-03,8.560455161941227589e-03,-9.797441146109692411e+00
2.482535408568814755e-03,2.990517585596547210e-03,-9.789793754073679466e+00
-4.762820204282812962e-03,6.954785836080890071e-03,-9.811702117194611716e+00
1.460950308368645645e-03,2.621955693485103576e-03,-9.788762666033536064e+00
-1.056739948913616202e-02,-1.715126932328111175e-03,-9.818160430638137370e+00
-4.468357262479870362e-03,3.511778388041078992e-03,-9.802456053301199290e+00
-1.353901136133053677e-02,2.314491358986154722e-03,-9.806223462535283986e+00
5.583422794011001040e-04,6.701185767369257675e-03,-9.804052131248631952e+00
-1.904074311838420278e-03,5.926518486915142297e-04,-9.811037264263157809e+00
1.018613516454059884e-02,-2.724041416232288182e-03,-9.799327072743677647e+00
-7.626269729465520730e-03,-1.746911101788311313e-04,-9.782239102247457296e+00
1.691385524107310830e-03,-4.174260315726873740e-04,-9.804840977081809683e+00
-2.618227790840939925e-03,-2.654145762015232279e-03,-9.802717822433404393e+00
1.428596987132843424e-03,-1.957767792889043932e-03,-9.791369836165101148e+00
1.111613187562184545e-02,-3.244681730380885240e-03,-9.797676278267790195e+00
1.137546725344422676e-03,-1.024560123099807138e-03,-9.788997349640546020e+00
-4.945781166911648354e-03,-4.970855541909228147e-03,-9.805084222894560497e+00
2.994695282774742767e-03,-1.087276147385859461e-02,-9.796613981087007872e+00
-2.940325679690400243e-04,6.098632190381578222e-04,-9.795312651724591646e+00
-2.966036193149543254e-03,4.969883291718572502e-03,-9.799669840109331176e+00
5.605144249013168864e-03,-3.606989335420832717e-03,-9.787295313083539838e+00
-2.732336015505433448e-03,-3.022236536139903500e-03,-9.805695599392723949e+00
-3.894876241480369795e-03,-8.780892066134800972e-03,-9.804953204248603171e+00
-2.184894096276457560e-04,2.467004208546823979e-03,-9.785229803484137179e+00
7.543660856634572948e-03,-4.564305429836824392e-03,-9.801811578447704676e+00
7.868515967565469990e-03,1.066568421650380136e-03,-9.782786219962138929e+00
-5.526831565337562199e-04,-1.118005901255788085e-04,-9.815142189897693825e+00
1.913572754104007423e-03,-1.982810638731394379e-03,-9.814894034592811067e+00
2.289275858566384124e-03,-1.779777479533402101e-03,-9.805967823170396613e+00
9.841773446406752984e-04,-1.613277854107152880e-04,-9.799792494791589093e+00
-1.089029494051649239e-03,-5.753640903623702743e-03,-9.793461086113508074e+00
-1.917870528916929907e-03,-6.436864540602039303e-03,-9.806987406700224952e+00
-1.951889780545209467e-04,-6.355342269042805331e-03,-9.808521938893342451e+00
-3.271077744858060920e-03,2.577964552498498638e-03,-9.797987596577506508e+00
-1.321589621022146869e-03,-2.720411956071775838e-03,-9.788919665059715669e+00
6.548075562117865699e-03,4.704929133446613190e-03,-9.816139581812993953e+00
6.603525654463942521e-04,7.552130214596977989e-03,-9.798737788020961403e+00
-3.437300361056959787e-05,9.340145489740644144e-05,-9.791683752410440533e+00
-4.479906538403750048e-03,-5.473829460002818106e-04,-9.806920570745049304e+00
3.829166932030429998e-03,-4.704126516312526901e-03,-9.790229748429439383e+00
-2.652744457809010602e-03,-3.445891441845489855e-03,-9.799842231484296562e+00
-2.640338998581552837e-03,-4.389183792582694414e-03,-9.801402603962733551e+00
-1.074530070390186274e-03,2.509840995228693021e-03,-9.803039738729856012e+00
1.011906726817805337e-02,7.123484319495741734e-03,-9.806043701962359194e+00
-1.351715928031058112e-03,-1.751951162295943901e-03,-9.808161798706155565e+00
2.454128206785540812e-03,3.317003243497908260e-03,-9.802504616074573462e+00
7.523054037592434747e-03,8.445222226381346453e-03,-9.800640711976228658e+00
3.674063639040340157e-03,1.936563608181376440e-03,-9.804318349416490719e+00
-6.523650675772011244e-04,-9.545830292564007682e-03,-9.807637306937044386e+00
-5.057784931997029963e-03,4.020822169747251262e-03,-9.796556274608494874e+00
-2.025626389919908416e-03,-5.528154812695171109e-03,-9.790234097178840855e+00
1.669529668167557849e-03,-1.247987883649001291e-03,-9.814202484056572473e+00
3.787741307609401344e-03,-1.415400997004043031e-02,-9.787555599630708869e+00
-1.232367777338221840e-03,5.896038408621578561e-03,-9.789709900385142660e+00
7.325934810503467384e-03,6.453351018824981036e-03,-9.816925274901636911e+00
2.298631460600410875e-03,-6.829471702299919761e-03,-9.821677089848963149e+00
-3.339512346406369077e-03,-1.283599917100677586e-03,-9.789856497750804465e+00
3.012560840146640689e-03,1.216913128943979865e-03,-9.802780193753161342e+00
-3.677864703714542674e-03,2.302930426631178643e-03,-9.796555255767753323e+00
1.396377175677638801e-04,-5.982114944518345662e-03,-9.808380037082988778e+00
-2.619282663209493954e-03,-8.243367943077261825e-03,-9.803613316370173081e+00
5.124572908662704956e-03,6.008881313632517297e-03,-9.809173989035805619e+00
5.691939469016315395e-03,8.237206536194417814e-04,-9.807552599318016817e+00
5.192056817132030024e-03,7.941028387899519078e-03,-9.809677487337859603e+00
-3.836695981686885637e-03,4.288375628435266151e-03,-9.794492605410185959e+00
-6.206772826455384320e-03,-5.163799961530170755e-03,-9.800661949872036871e+00
2.110325617783575299e-03,-7.263921798125421228e-03,-9.798464794514556431e+00
-4.057598611107490934e-03,-4.811566221965043327e-03,-9.811195505938609784e+00
-1.225141638874183495e-03,-3.126585002867869872e-04,-9.802604596233706502e+00
-5.142244293237891242e-03,2.975878467337841546e-03,-9.803987312474342630e+00
-3.216541713049208499e-03,2.831963582300526215e-03,-9.805095412290009804e+00
2.690927012487244821e-03,5.235915801382611152e-04,-9.801357205778195691e+00
-3.207942383461303269e-04,8.745673481700829647e-04,-9.787503732521910749e+00
5.993447191027194768e-03,-1.459507337786569844e-03,-9.802868427257838135e+00
1.186139475918605163e-02,3.532468235942306904e-03,-9.809004495235777554e+00
-9.396826958839385111e-03,-4.599031027412671044e-03,-9.807701256433700721e+00
6.794865000254611195e-03,2.920391559701566823e-03,-9.793447616046289994e+00
8.768566748532178722e-04,4.641745661606027848e-03,-9.792915754741647660e+00
-5.516487617844516474e-03,3.439680230871413214e-03,-9.806743618704397036e+00
-1.068058952475387478e-02,-5.761225978225506701e-03,-9.804197665879877732e+00
-7.083482377549467704e-03,-6.960074706373634186e-03,-9.783481743173563672e+00
4.184067027133826083e-03,-9.910971342000449852e-03,-9.802634458401099593e+00
3.284268465558438498e-03,-2.972666895915530676e-03,-9.805100198181644799e+00
2.175545441045888262e-03,-6.817047883253346888e-03,-9.786898425478062435e+00
-3.725545519606811382e-03,-1.687930884274180384e-04,-9.794100663304741161e+00
-5.502260671392932706e-03,-8.664589717863196722e-04,-9.822278162642767541e+00
1.647504258360836570e-03,9.119794804430592094e-03,-9.803216379845002493e+00
4.182545852038315089e-03,1.727353469301960297e-04,-9.801474837605695711e+00
-4.491875396964455439e-03,-4.020378844032139660e-04,-9.788701772458486161e+00
1.402106948145957115e-03,2.303495110277245040e-04,-9.817396087821341766e+00
2.757174729644887301e-03,1.019715501203782718e-03,-9.820542351541984516e+00
7.615868171874248804e-03,9.012053364558630583e-03,-9.802490844771009293e+00
-5.759975882004634770e-03,3.334642529774690012e-04,-9.799142753341511636e+00
7.167491585150444384e-03,5.238950193023255396e-03,-9.801889519177420240e+00
-6.321736195046972172e-03,-7.342274822000449674e-03,-9.789360134221800180e+00
-9.872175403007757769e-03,-2.398185309822387090e-03,-9.799862823854677885e+00
-2.607103874656259250e-03,-5.748921758131160433e-04,-9.800192630392565718e+00
-2.130831960234716091e-03,-5.136519102280436705e-03,-9.801935207741291123e+00
-3.553892280790103310e-03,-7.222666488925571886e-03,-9.811988866599010706e+00
-2.252036653729097993e-03,9.011218851810411795e-03,-9.784606222460922709e+00
6.856019222190145278e-03,2.154041387064139623e-03,-9.810652485825508862e+00
-7.696885252298308645e-03,-4.201487824244740446e-03,-9.799154657435153126e+00
1.255596925617520230e-03,2.857827995593786950e-03,-9.808475001859418896e+00
-1.271182245344162128e-03,3.495750377067917847e-03,-9.788580776324685928e+00
-3.422406112614313507e-03,-4.564470496881807560e-03,-9.806371266980390189e+00
2.112511078134714920e-03,-6.207218489589248073e-03,-9.801721317857076343e+00
-3.501085211742331268e-03,3.118954305353746799e-03,-9.792888324471570982e+00
1.543510792766699009e-02,8.788208193430116152e-03,-9.815714323300408495e+00
-1.344499742466303150e-03,-1.110987595121540555e-04,-9.800827516787419924e+00
-2.912773330145758399e-03,-2.490952663816548007e-03,-9.802871460956456673e+00
-9.904404613885608045e-04,7.759771725015979921e-03,-9.790157000870781445e+00
-9.630202625030502214e-03,6.724923094511345420e-04,-9.811194227338729590e+00
-4.880725948755666732e-03,9.329008713542941546e-05,-9.813068338439540739e+00
1.259120783689859826e-03,-8.312506139050759293e-04,-9.807981432643771313e+00
5.739111756422230273e-03,4.629015266657984101e-03,-9.814075208527521355e+00
1.003416476469793338e-03,-6.381161015151687842e-03,-9.796049071991474122e+00
-2.994872558077851712e-03,4.208473904944770930e-03,-9.797543019404853837e+00
2.969476393069762151e-04,-1.911504136361060315e-03,-9.812529961920004595e+00
-1.108696800351722123e-03,-7.126275572791631457e-03,-9.810635220898243247e+00
3.724052600998782690e-03,-4.769711111775711346e-04,-9.809325994277115157e+00
-2.524259491839498000e-03,-6.357425837947015042e-04,-9.806830279130757333e+00
-4.441829356111041266e-03,5.017328571623918924e-03,-9.810458046752795980e+00
1.294735549450910100e-03,-6.766664959357339588e-03,-9.789543182490545448e+00
1.494473357104259209e-03,2.619806652451196500e-03,-9.797424711771677508e+00
2.101434475448717837e-03,-2.462285647001629611e-03,-9.799679807143519383e+00
5.753259484546630401e-03,-2.670912425265434091e-03,-9.811425048994172116e+00
-5.642967671540819082e-03,-1.239413184591123176e-03,-9.808935399511332420e+00
-2.293647181271949928e-04,2.540516965363052992e-03,-9.803402503964743886e+00
-4.680746379731141014e-03,-2.292072335958849748e-03,-9.794962659763024604e+00
5.022159908930310356e-03,6.130185616880200368e-03,-9.797610427046949511e+00
-6.057490498050834525e-03,-1.433437103422212280e-03,-9.790072028478887134e+00
7.411327079694572878e-04,-2.929289421750659421e-03,-9.801324367653696967e+00
7.260611992236861399e-03,7.456121106697028399e-03,-9.803514525302672311e+00
-6.891074347529048578e-03,8.090512679529869230e-03,-9.804388827407066742e+00
3.266414017180805859e-03,-1.435222888582468777e-03,-9.808363180055460262e+00
1.136011894787454860e-02,7.738465800824066709e-03,-9.793365948876427751e+00
1.257483964626731482e-02,5.030424604319196601e-03,-9.788404910928528935e+00
4.863079539806685649e-03,-3.533822770911578112e-04,-9.815869988583623140e+00
-6.062672357364909219e-03,3.516013189916008825e-03,-9.808138930371381292e+00
-1.844939339242120157e-03,5.436239849959527718e-04,-9.787272870871168706e+00
-4.854333921768747007e-04,-5.965353380928818498e-03,-9.816024486269050442e+00
2.982870020395024524e-03,5.384504981578166431e-04,-9.803126176810424752e+00
7.879909753681569456e-03,-5.251762397976477391e-03,-9.802017344937148380e+00
-3.176347755957859183e-03,-2.919934319726185095e-03,-9.799191723265385789e+00
-1.851314797085404579e-03,2.925457138002489875e-03,-9.803241037046372952e+00
1.402125724862309224e-03,1.132215698680182720e-03,-9.796106734192155940e+00
-2.884467069750754151e-03,9.707472007327391274e-04,-9.806029225800051208e+00
1.582604154691611559e-03,4.160180560820504921e-03,-9.801424243882255638e+00
-1.860146715839894110e-03,1.130507036179563378e-02,-9.790983299564391729e+00
-1.755379346789230416e-03,-3.768520619278513915e-03,-9.795813577769147074e+00
3.315057649319973383e-03,8.584504847496912672e-03,-9.799714812794720231e+00
3.861034324423079714e-03,1.013032540398194417e-02,-9.792843596125464956e+00
5.198169454286914824e-04,3.406777549333332017e-03,-9.790367559209068204e+00
5.492952457110446447e-03,-2.643866590751703339e-04,-9.801051442366169653e+00
-4.307964820989203768e-03,-2.180657351508859254e-03,-9.815294942637626363e+00
7.625146226075279338e-03,2.393056040617790124e-03,-9.799770422412610316e+00
-3.990016169627411818e-03,-1.773967699374206109e-03,-9.796343126220182995e+00
-7.833425331090739657e-03,4.029551213668017880e-04,-9.800543902482980130e+00
-8.990528256630180015e-03,9.368034044571579844e-03,-9.793858765588522530e+00
8.208103653934691133e-04,6.009485284461666202e-03,-9.792706880133119185e+00
-3.227957760926821601e-03,-1.264386712666272679e-02,-9.797831580893586079e+00
4.678471318687524305e-03,-7.720550486755002693e-04,-9.782257144188211129e+00
2.312049370828977329e-04,-1.633186334256177871e-03,-9.801391848312189126e+00
-5.794572602669598692e-03,-6.439318459121494594e-03,-9.816054264301262933e+00
-3.140960906027015498e-03,2.116854982365692743e-03,-9.804065596148578976e+00
3.853826466682795139e-03,6.918943662799127529e-03,-9.791737634737570417e+00
1.153014517785177530e-03,-2.744624777328232360e-03,-9.804278834286492383e+00
-2.441461888629983367e-06,2.452929780385399491e-03,-9.807776124146515784e+00
2.633555676998039757e-03,-1.037841945985116913e-02,-9.787192217741647937e+00
5.328935165567242130e-03,6.584272653449951655e-04,-9.798915063600629693e+00
-3.052766838876059055e-03,2.585637163865798106e-03,-9.803376212890320573e+00
-5.529275550744806693e-03,-2.714496902677092198e-03,-9.806625281747896494e+00
-1.218751871529851882e-03,1.543098394231614710e-03,-9.810231593124768779e+00
-6.029721465693796065e-03,-7.919038606065346986e-03,-9.801347875775125118e+00
1.661564305103383236e-03,6.423398753597784304e-03,-9.807649902604081760e+00
-2.368647922008836233e-03,3.520951905396277944e-03,-9.804045970337188720e+00
1.648356326467232931e-03,3.199582247864715158e-03,-9.806928653987728950e+00
-2.636708241242147113e-03,-8.313427827470777631e-03,-9.803551706335905891e+00
4.271220599546143686e-03,1.001039824474501917e-03,-9.806304444355932404e+00
2.963085559249519808e-03,-2.783583404324080791e-03,-9.794053861238287695e+00
-5.750662749070498689e-04,4.360124040326080960e-03,-9.802167039773529211e+00
-6.790018201053694621e-03,2.735776717936619969e-03,-9.816914997218308514e+00
-6.633119650212293550e-03,1.625074815124251740e-03,-9.812728247926374436e+00
-4.455757986103351179e-03,6.274550305286075332e-03,-9.800914830421170620e+00
5.118768118556916991e-04,8.275021188981513190e-03,-9.814427877830398828e+00
-1.524371789920664095e-03,3.118451565784936645e-03,-9.806916826713170110e+00
-1.970559872893143383e-03,-3.558457062145456429e-03,-9.793169969718956480e+00
6.524624104429605290e-03,1.599914328651172923e-03,-9.809047343156500176e+00
-1.298000275150100642e-02,-2.264672009742555413e-03,-9.800958942129664564e+00
-1.330493179495077088e-03,2.518156284474301772e-04,-9.791446326528513211e+00
3.977004510005903958e-03,-1.110474387697465894e-03,-9.792471526062373144e+00
1.375362995669307834e-03,9.662474297628887571e-03,-9.817524788040060457e+00
5.080341483247703509e-03,-4.604875997344835652e-03,-9.804403376375850243e+00
-3.792867153250920748e-03,3.256943443678523924e-04,-9.808440379339904425e+00
3.331983643786314356e-03,-1.122887977881254634e-03,-9.802200276110374588e+00
2.089548574220177583e-03,6.698188157319874027e-03,-9.804750540840560191e+00
-5.842121775758583706e-03,-3.289771472435459171e-03,-9.790145778464498960e+00
3.398480150178728124e-03,4.659615916191526923e-03,-9.782778415823846885e+00
-2.695339897724582760e-03,1.030630518681252506e-03,-9.787696891872986527e+00
-7.228669750778101213e-04,3.579559645803958873e-03,-9.795398080180534706e+00
2.076427728086095367e-03,-6.660465922179276479e-03,-9.800129586155710726e+00
5.624829020437718818e-03,6.191904990006234788e-03,-9.807835798382377845e+00
8.928619575878883260e-03,-4.991924059898987910e-04,-9.807002911535750656e+00
9.557522490168073167e-04,-3.988476266781145916e-04,-9.803302661927446593e+00
8.016447974293922779e-03,-4.703317765421658608e-03,-9.793262893971800054e+00
8.000143901862736759e-03,-3.129962054736771995e-03,-9.796788812083699227e+00
1.464573195691123509e-03,2.014785563973117179e-03,-9.806879504261496905e+00
3.325548815134323107e-03,-2.130137928866704112e-05,-9.813904223940067340e+00
-3.966311298769018348e-03,-2.763826454392392246e-03,-9.799244918221550193e+00
2.065577621881407346e-03,2.711523705382821569e-03,-9.799738402144946292e+00
1.683191392358996535e-03,-2.642548679505461653e-03,-9.813582903579861849e+00
5.594269189428078930e-03,3.340502366900632240e-03,-9.787874443239759970e+00
2.007676267330060771e-03,-3.826798211930829401e-03,-9.795680045925321267e+00
1.046930550438809502e-03,-9.388608543766269751e-05,-9.786250532978638006e+00
-1.154172760796840294e-02,-1.347564249722541484e-02,-9.819944785028205558e+00
-1.078881541760962071e-02,7.112121873898626968e-03,-9.807853966029650650e+00
-6.379430079948672852e-03,-4.350713591677741500e-03,-9.796720291189958019e+00
5.992991832252558999e-03,-3.245302124334895500e-03,-9.806416123343034030e+00
-1.073353822494524726e-03,2.715521421248794347e-03,-9.807969211394604869e+00
-3.610910659526635940e-04,4.472542117780442224e-04,-9.799373234402212418e+00
1.636387349107823810e-03,1.220188680607739440e-02,-9.802885808124491618e+00
5.662123266749129972e-04,-8.215322592509555905e-04,-9.812300241654158484e+00
-7.305803565267001212e-03,8.070798291470443822e-03,-9.793621243552216526e+00
3.003741810126551223e-03,-1.475813631081788959e-04,-9.815325607777456440e+00
8.388961625024778362e-04,-5.407398727323247528e-03,-9.804297105690288561e+00
-1.090621697599003905e-03,1.066172937798513971e-04,-9.795955517994956452e+00
-3.347795768659807877e-03,5.499850430929868750e-03,-9.808204774160637740e+00
5.296319422256995065e-04,1.968295398709436241e-03,-9.796011909732118994e+00
6.854380045647316851e-03,-9.164833008478052295e-03,-9.801186335742047007e+00
-4.306488169386405752e-03,2.159049375108696833e-03,-9.802986720149814204e+00
-7.004938975539105710e-03,-5.562082132013487258e-03,-9.810538490763015318e+00
-8.189615519050799652e-03,-2.336405148786321537e-03,-9.802454967271557962e+00
5.827323434147865799e-03,3.354899623299674081e-04,-9.812937326102948887e+00
-5.949291548094176596e-03,6.507839051912776666e-03,-9.785697370870169109e+00
5.418867155211708024e-03,-2.933900164138635979e-03,-9.799671567147914431e+00
-5.484951097422905743e-03,-4.260003404798004198e-03,-9.793761129322128056e+00
7.620279530077745354e-03,7.746025374182638132e-03,-9.807847507653260521e+00
-4.771257098479997696e-03,-2.984043486309059887e-03,-9.799816756881066127e+00
-2.279802764582660683e-03,5.907535833281474420e-03,-9.820925711358606591e+00
5.577395786673448354e-03,-2.469559876047623410e-03,-9.805049310691419606e+00
5.380543971717894301e-04,-4.500350085427820383e-03,-9.803021926567790700e+00
5.655921418655392857e-03,-4.196801418521863003e-03,-9.791975194964390283e+00
8.050911208680969211e-03,-3.459135211076895880e-03,-9.809997147717187005e+00
1.684756799406919494e-03,-3.093165879507764077e-04,-9.796254362802120141e+00
-7.898744069368270754e-03,5.419136731298052241e-03,-9.792285184504203599e+00
-9.639972757437154788e-03,-3.439964855638836042e-03,-9.788506583564974051e+00
-6.920878404704142693e-03,-4.501304159505540095e-03,-9.825034144132896330e+00
3.148606994339076871e-04,-2.990657170861759067e-03,-9.791595360299830020e+00
-3.373823111284602515e-05,-7.264699242357794753e-03,-9.801480343864579226e+00
6.848009886954727066e-03,1.205700640982738762e-03,-9.795590422849686618e+00
3.987942649339743125e-05,1.352739756882287469e-03,-9.803081423787020299e+00
2.706302915100943212e-03,1.608605880508161539e-03,-9.796672500857557253e+00
-5.600363463760779474e-03,1.195460866878765398e-02,-9.796015018187555157e+00
2.003762095608316047e-03,5.888121593118339882e-04,-9.808459968272446261e+00
-2.745763817670015487e-03,4.804996798855192680e-03,-9.794665291097734539e+00
-6.226769167142196838e-03,-5.105174296780731584e-03,-9.804277463546208438e+00
-5.161905390709234007e-05,-3.777462170451132469e-03,-9.808461201631088144e+00
2.299465722321277546e-03,-3.931880237554959655e-03,-9.808393510396443915e+00
2.675968828011885108e-03,2.876240267232243238e-04,-9.800488669189931557e+00
1.330188783688064256e-03,-8.159538442533805641e-03,-9.799456819674720265e+00
-3.486597988531228362e-03,5.072950839457423394e-03,-9.810053112753083226e+00
-1.852285569205195737e-03,4.637023218099809579e-03,-9.794088352490739169e+00
-6.516082534383345164e-03,-3.540230473067650270e-03,-9.788258345324003074e+00
4.710741240841364273e-03,1.366756559595844710e-03,-9.803356495895267031e+00
-2.713592015922698403e-03,-5.285642703910891065e-04,-9.793046642556713977e+00
4.906220870952183837e-03,-1.788016470791427021e-03,-9.805883184129266184e+00
-3.539310449686984528e-04,-6.385703779725243091e-03,-9.794165355936174322e+00
-2.681849904348956003e-03,9.770058799658254411e-03,-9.801151188784501755e+00
1.928263471051766108e-03,4.761109946474229200e-03,-9.797452295343854090e+00
-2.831546441962131278e-03,2.943778557796629825e-03,-9.805243935330711480e+00
5.616388371311237769e-03,1.111043034989511215e-03,-9.816261824379777678e+00
-5.146081833472791918e-03,3.709921155349163360e-03,-9.807425209438946467e+00
-2.770673169076001870e-03,4.014230019404833351e-03,-9.791269840177244888e+00
5.514245058011205299e-03,1.048654957329509928e-03,-9.808708107841603407e+00
3.374260211226480337e-03,-2.991531809020859384e-03,-9.789287590314636134e+00
2.964147456035429347e-03,3.845046878170339365e-03,-9.804800807266156326e+00
7.950208149144992584e-05,-4.136914682467718839e-03,-9.801666316373969678e+00
4.015013178408030972e-03,4.244248177926742728e-03,-9.809373023597791175e+00
1.033860938835128550e-02,1.026883231861056359e-02,-9.800706089502455143e+00
-4.501511424953809695e-03,4.895368976311941650e-03,-9.803799643804230968e+00
-2.207653052733505455e-03,3.422801070973620699e-03,-9.796965687598467198e+00
-2.107537777180895633e-03,-2.912443178164938334e-03,-9.795176810756382579e+00
-2.915117840012590791e-03,-4.616098714931050027e-03,-9.799154186884548423e+00
6.074484096361215668e-03,-4.026680438995147021e-03,-9.802053000764475499e+00
2.369188325348459048e-03,-1.837865770908010980e-03,-9.815688115223718313e+00
-4.722229979885530018e-03,-1.000998974086403674e-03,-9.797323961733662046e+00
-3.340809867610494439e-03,-6.302452340692171577e-03,-9.806967303634126054e+00
-1.441276398498718956e-04,-8.094762107074819635e-03,-9.788479985624629620e+00
2.638639445453664755e-03,9.038624978379549563e-04,-9.811910168709008673e+00
-5.813947410720879047e-03,5.032488004481706564e-03,-9.809461002766425963e+00
-2.035014540116554700e-03,-1.004663761983686475e-03,-9.795065266960948591e+00
2.016231508338799713e-03,3.902308644475133148e-03,-9.809235656176555906e+00
2.092857876546203727e-03,3.045390384946814258e-03,-9.797486493665031659e+00
-7.443525456486790523e-03,-2.169395246865372506e-03,-9.803929015767646860e+00
5.430947780302059283e-03,-5.488607488947201685e-03,-9.798342962875945972e+00
-1.638348815338330896e-03,-5.108633720956724453e-03,-9.793090563288993522e+00
-5.060851601147263804e-03,1.744937494483732180e-03,-9.805421691569225828e+00
4.668816085191502619e-04,-8.100450982008644898e-03,-9.806413998904851326e+00
-2.886741999908746473e-03,5.381103294596657760e-03,-9.814947028954446040e+00
-3.330600103388918921e-03,1.321856756249551856e-03,-9.805400337499664332e+00
1.406371592367628917e-03,-9.916105132265784841e-03,-9.800613425973610404e+00
8.009396775174062316e-03,-7.386810636532951946e-03,-9.805072473647417297e+00
-7.097446561563928915e-04,1.162293199339387234e-03,-9.815334882155504204e+00
1.808051356608334631e-03,3.871230996458189209e-03,-9.801289168050171696e+00
-4.497698217358461585e-03,-8.352177276518539528e-03,-9.805471965626555431e+00
2.819528978119873255e-03,4.209088067950653503e-03,-9.792616999811404099e+00
1.050276160465714228e-03,-2.794740756871151675e-03,-9.799383237972849159e+00
-7.213475587756125462e-03,-2.044568336387417133e-03,-9.799617528738851391e+00
6.942072547340691520e-03,-4.268699841648214595e-03,-9.809067974916633403e+00
1.422979872477707049e-03,3.188515663727888895e-03,-9.812173491406134929e+00
-6.617661797576550320e-03,-1.381684082513951395e-03,-9.794046511907422925e+00
1.641128494476594380e-03,8.781250530213387945e-03,-9.801358980776170071e+00
-1.526896870771570977e-03,3.585648039510916547e-03,-9.805412480276077147e+00
1.009686444249814283e-02,-4.772971578067569491e-03,-9.806162229178084999e+00
1.289074861383579995e-03,1.097909800098544053e-02,-9.809015769939616547e+00
-9.828114170796560696e-04,4.783589504174421379e-03,-9.808114392277886395e+00
-2.836384930992277582e-03,-2.720430387788008546e-03,-9.793431780558060851e+00
2.860879465039701391e-03,-3.744125643526143455e-03,-9.795766542006385080e+00
1.066544127237335467e-03,-2.422350667768062831e-03,-9.811022189305864671e+00
-8.336820147610859294e-03,-2.603284342707360300e-03,-9.797415769234964600e+00
-1.113210984003185468e-03,5.578301337274655172e-03,-9.793506723609500142e+00
3.792196077298164245e-03,3.905319619988121584e-03,-9.812014917771628930e+00
-4.605125373080601846e-03,4.239233695629018167e-03,-9.812138181369048695e+00
9.181414717470071790e-03,4.714401860697194730e-04,-9.801241241297718787e+00
4.511591129767628626e-03,6.224391938036044798e-03,-9.811487699444082722e+00
1.441362574095444212e-03,-4.303499013346905955e-04,-9.807113374139770912e+00
-8.858670578431210611e-04,-8.654009886315433206e-03,-9.801950830436734208e+00
9.206437476486806649e-04,-2.131801059450343528e-03,-9.800328728063577799e+00
3.536363836090923758e-03,-5.007294186524572071e-04,-9.807043136649838289e+00
-6.610676465200785671e-05,-5.292174848364888072e-03,-9.788312122591927178e+00
-4.676407055222956896e-03,3.547112728045659184e-03,-9.806742650940828199e+00
5.518915233126392428e-03,8.394136563917283054e-04,-9.801141270828429342e+00
-3.934690346625011048e-03,5.189382846147630457e-03,-9.801571407932224034e+00
2.874617273777252922e-03,5.583490530194889709e-03,-9.803279440491840191e+00
-7.323381566745894473e-03,7.339667776532937150e-03,-9.786292337289960841e+00
1.085092143948781888e-02,5.964555775422071895e-03,-9.818841753976272457e+00
-5.078068376833035080e-03,-3.334257620645639675e-03,-9.797846632692410296e+00
3.999062656092913781e-03,-7.755499874367033537e-03,-9.808241137553292077e+00
-4.869495334959154757e-03,3.926873933879027924e-03,-9.804439273035320923e+00
8.584354511673350215e-05,-3.352417052281962944e-03,-9.817252986464700015e+00
4.843271429835568735e-03,2.981604702751519957e-04,-9.802191307053439218e+00
2.866919016374909999e-03,2.497232762400907000e-03,-9.797623387602575562e+00
-1.824021217081215739e-03,7.481379302827649482e-04,-9.795354367592915779e+00
1.958259123778271008e-03,-5.808011750680041642e-03,-9.794930015259884826e+00
6.384174926279552031e-04,3.776509006966492429e-03,-9.814943722567999629e+00
1.538586515882610275e-03,-3.574269788919798557e-03,-9.823619809245091261e+00
-7.441977383857801241e-03,7.041334335260700933e-03,-9.791876595869769773e+00
-5.650845907383226542e-03,3.902885049682771387e-03,-9.798282574089554942e+00
5.814610179673279297e-03,-2.740627968387432563e-03,-9.809341363067847652e+00
-1.241717063216032924e-02,1.521223491056874783e-03,-9.800840557033994926e+00
-5.316658035180741280e-03,-3.665409054183011491e-03,-9.799352510911500502e+00
3.971643997300909135e-04,-3.591626790912358282e-03,-9.812964563614736235e+00
8.926453641899745805e-04,-1.253015465911742682e-03,-9.804458626531674881e+00
-1.651556302187403777e-03,4.973590097609400823e-05,-9.804047091617960064e+00
4.919133913080183523e-03,-3.371623376674127569e-04,-9.810127135511731211e+00
4.059484885267825548e-03,5.130671949184461775e-03,-9.812487221241855906e+00
-4.363261505872040660e-03,-1.087706089012170120e-02,-9.808346929946424098e+00
2.838828548094977661e-04,5.829401606759087966e-03,-9.798436938619554226e+00
2.660091512283590826e-03,-3.243800935561711677e-03,-9.797076632477038416e+00
8.838339733657094022e-03,6.791273340589736550e-03,-9.809885685986028392e+00
-8.974582351972120874e-05,2.751163374907440642e-03,-9.811658523779353658e+00
-3.112995823181977789e-03,-5.429998995308520614e-03,-9.807261436436187196e+00
5.901885297950039584e-03,3.737861676087517442e-03,-9.803362613919510693e+00
-1.291036168335181478e-02,-2.083931738549037269e-03,-9.798831372177618348e+00
-6.120436617824173697e-03,5.226030700248431721e-03,-9.804132543359509455e+00
1.361340037112906878e-03,-4.009551786796859522e-03,-9.812294275250344811e+00
6.459414346246373714e-03,5.025955669322083354e-03,-9.795381699398271635e+00
-1.584452984737403031e-03,-6.525828865981543429e-03,-9.803480345897277459e+00
-1.182527049182550971e-02,-1.546562205149336778e-03,-9.828401594161507049e+00
-4.921097960889671795e-03,-4.522648119697420151e-03,-9.804645186806663304e+00
5.735639373656352229e-03,4.914204833583399741e-05,-9.802096402023050103e+00
4.203664562707107658e-03,-2.034448808572553429e-03,-9.804586513782263424e+00
8.912848115776432836e-03,-4.397151097217122558e-03,-9.794051032824755865e+00
1.233650478133251939e-04,7.466593824472740615e-03,-9.814918439651586723e+00
5.120062896750219097e-03,-2.169764082198516898e-03,-9.797754616318695042e+00
3.955778774978578344e-04,2.923852747427192408e-03,-9.796430697875701199e+00
-2.533934330419432973e-03,4.474539662156046607e-03,-9.805924376868656367e+00
1.465641230666927999e-03,3.505565388809595180e-03,-9.821417720839257015e+00
-2.460043982842346870e-03,4.054267374188762728e-03,-9.805111986035289107e+00
5.494359206783806966e-03,2.765619266582047212e-03,-9.815694954605946876e+00
-2.881838944252752333e-04,-3.369630188828777895e-03,-9.785636360517790067e+00
-3.773104745724607063e-04,-2.281978865521525155e-03,-9.789908714492144171e+00
5.097989268320781212e-03,-4.040557287382953006e-04,-9.806462360402322886e+00
-1.578644986534107585e-03,-9.290845880952388128e-03,-9.813258768758620576e+00
1.797012507255048254e-03,-5.181343727898894518e-03,-9.810181610873362601e+00
-2.387375388751137358e-03,-3.874009885057182797e-03,-9.793856143418096849e+00
-2.403953840223157286e-04,3.504124877644486987e-03,-9.809562813829415973e+00
6.275073952002720515e-03,-1.950129666499129640e-03,-9.803891586353238097e+00
2.087312404076154069e-03,4.053126070688451398e-03,-9.810673679562206928e+00
-4.146005316582030906e-03,-7.593448127088008775e-04,-9.802767818798095334e+00
-1.623767394683223305e-03,8.272628965899572751e-03,-9.782067872624621074e+00
1.732206870947838179e-04,4.270781612818133448e-03,-9.800332557581567627e+00
3.453380168123635924e-03,-7.217996921494170643e-04,-9.814847119595125235e+00
6.396869847688308776e-03,-5.488285053660800494e-03,-9.802024257147465391e+00
5.210298540459669565e-03,-5.020511563682394235e-03,-9.790804931822817636e+00
1.489862165467758419e-03,-5.109944045293563983e-03,-9.808660055975360947e+00
1.687761429026042419e-03,-5.084422455933338726e-04,-9.803099534720633557e+00
-9.373369324390753293e-03,5.914648963441527726e-03,-9.802118198610248356e+00
4.075756014638868933e-03,-1.298985594255540289e-03,-9.786819684939267461e+00
3.237616190938239196e-03,8.832346266657608788e-03,-9.813023340669049688e+00
-3.574261048110529901e-03,-3.837578983744934381e-03,-9.794147475093570421e+00
-3.440124430589664535e-04,-8.385325999274826844e-03,-9.803197047248383811e+00
1.777436457831054395e-03,8.712540108921359300e-03,-9.827933990301136902e+00
-3.570961571057142212e-03,7.622018705629876947e-04,-9.795544127410099833e+00
-6.354299646377492214e-03,-3.829335696419909705e-03,-9.806650409189030526e+00
-1.554559157936341585e-03,-5.165559002334333370e-03,-9.800915275605031951e+00
-6.250961425980874247e-05,-1.082605762218606963e-03,-9.800869018448203462e+00
-1.575802881698274783e-03,5.252970734050638017e-03,-9.794352778894467093e+00
8.731112660670698345e-04,1.272175255135113078e-03,-9.793981225567279125e+00
-1.912035375554909950e-03,-1.783402942415138019e-03,-9.795800075595300527e+00
6.162010968555086711e-03,-9.493264569040190792e-06,-9.798268123037711774e+00
-5.187708588469835437e-04,1.174333017572696397e-03,-9.811714548339521613e+00
6.868033887280632598e-03,6.655191480176543897e-03,-9.811866148789350817e+00
-5.409489277037177885e-03,2.032872786932421374e-03,-9.813944188371852562e+00
6.208747755382105528e-03,2.707946028368388505e-03,-9.808439031886861059e+00
7.059835628299105000e-03,2.731403362389411751e-03,-9.808034280418137740e+00
5.190559660468184455e-03,8.845111425733621219e-03,-9.805382459840661369e+00
1.757774632883966404e-04,3.140384156296259759e-03,-9.813687322625813891e+00
5.132291124204106832e-04,-5.389846243431023823e-03,-9.807761637944656385e+00
-4.570854349124535768e-03,3.216502318448153687e-03,-9.787090446571591329e+00
-8.929706918112434097e-03,4.409296106688309277e-03,-9.793770557449485992e+00
-9.268389712526665957e-05,-3.106006137405660332e-03,-9.806118747370129896e+00
-3.605206163314013477e-03,-3.891206826604239836e-03,-9.797895514202172862e+00
1.303094039796189648e-03,-1.003385691021418339e-03,-9.797511573052261724e+00
-5.840052116370808045e-03,-1.516899304744538787e-03,-9.812959300895768067e+00
1.763462104199816673e-03,1.219946007301139779e-02,-9.792866044859245278e+00
-1.189016495049861769e-03,-6.328707160325286289e-03,-9.785313312418285392e+00
-5.564716319850139146e-04,-2.217324886814290956e-03,-9.796397088035000422e+00
-4.071912063808300238e-03,1.067288787805510284e-03,-9.806333436427769001e+00
8.665361046197285477e-03,-9.289237647493813442e-04,-9.807023007979127627e+00
-3.374011737477128629e-04,2.080139161341617096e-03,-9.793535778659169466e+00
-3.083427580709220857e-03,-5.972164758782200558e-03,-9.805041364483644273e+00
-4.980867940368170418e-03,-9.747877252747160284e-03,-9.789003751818018628e+00
-1.013792077155323268e-03,-4.258503288713070233e-03,-9.798560128824057358e+00
3.578073856732250872e-03,7.094207909085753667e-03,-9.812963572102997745e+00
-6.754250383559704668e-03,-5.191089364178429894e-03,-9.812711557930782647e+00
3.355095676714394369e-03,1.548849260223227661e-03,-9.810326186748547173e+00
-6.935455127676146657e-04,-1.060578022186048526e-03,-9.806078188755350311e+00
-2.860099367867257551e-03,-7.601251863477039277e-04,-9.806663900037927206e+00
1.251064195904724383e-03,5.030144804399057194e-03,-9.793427683485816715e+00
4.845915632474908502e-03,-2.121030989824290117e-03,-9.789080412464560510e+00
8.138658143760238526e-04,1.130349974762686043e-03,-9.806568347729230695e+00
-2.376294389135618843e-03,-9.540812647976714897e-03,-9.803702859523394153e+00
4.120193544117851762e-03,5.363805244550736567e-03,-9.799851607644018969e+00
-8.707888487619613524e-03,4.749748421855807048e-03,-9.808304321929064429e+00
2.099520527515982837e-03,6.004817799014169899e-03,-9.805820787860488608e+00
-1.006302318440391655e-02,-1.033805081816449242e-02,-9.819403783564304433e+00
-1.189516102406685616e-03,-4.649983268892677116e-03,-9.787211270514845296e+00
3.622305628997160489e-03,-3.379676154585755082e-03,-9.799802630199502929e+00
4.764340027685765727e-05,7.871122242438903516e-04,-9.795410577366398641e+00
-3.096266056035328908e-04,5.677102062526258319e-03,-9.803603184722158304e+00
6.481784188386588430e-03,5.933298213721509284e-03,-9.797501985326610097e+00
-1.156906769065831238e-02,-2.275369497245652382e-04,-9.820342743118466444e+00
-3.783544839875193928e-03,-8.727980550335415894e-03,-9.780726108309359290e+00
-1.296151013746952847e-04,5.381941623314805481e-03,-9.803669331036868329e+00
-1.302554427560300224e-02,5.272519732464385836e-03,-9.798580389201342555e+00
3.409104882968085840e-03,2.738922675117531728e-04,-9.803538965262035276e+00
9.201870652101782309e-04,2.137950861994490089e-05,-9.813417978143403886e+00
3.529676094444863643e-03,-7.445555255698905160e-03,-9.802592828010146420e+00
-2.736802977871590110e-03,1.340131347756467117e-03,-9.802173755515772413e+00
1.509453856136021462e-03,-2.870423967233943097e-03,-9.803395264488180771e+00
-8.721223069080665836e-04,-8.994017602997302682e-04,-9.812145941578283015e+00
1.199403668124569486e-02,8.479443869544777898e-03,-9.799518834367717091e+00
-6.279066652131203886e-03,4.812454832503569417e-03,-9.796740384958882331e+00
-4.530387221825870475e-03,2.918200356723305976e-03,-9.801226892141082558e+00
-8.257491292375330810e-04,-5.129654812789536398e-04,-9.812459881682768170e+00
-3.375473669956509035e-03,3.365143393245283686e-03,-9.808979175061788069e+00
-3.516003950022381259e-03,4.626437325069586437e-03,-9.783066363738791793e+00
4.542091801105514227e-03,4.823357791257959666e-03,-9.820418259851132703e+00
-2.160463502033113485e-03,2.295370249730591811e-03,-9.802629949029276091e+00
-2.065928726042147272e-03,3.587141334809873690e-03,-9.798364685685823972e+00
2.631200671859059478e-03,-5.675105450154946038e-03,-9.812789034842639424e+00
-7.932926454286816365e-03,2.494944198286208441e-03,-9.804006636512367479e+00
2.604413360186385359e-03,9.882831950738201615e-03,-9.793038278044322809e+00
-7.880355816770327065e-03,-5.411133879624126404e-03,-9.801987674574863973e+00
-9.777232161596057999e-03,-4.262786557608940104e-03,-9.813471533771634725e+00
-3.384140543733251457e-03,-9.233596569690859105e-04,-9.805505927126436205e+00
4.041376896436342861e-03,-5.606901227619792011e-03,-9.804580686045074600e+00
-1.458977145616182497e-03,7.720270732317998557e-04,-9.796606212467590780e+00
-2.977164764440696425e-04,-7.512428549367623906e-04,-9.823310811895661132e+00
-2.227837810479691913e-03,1.221824642848438371e-03,-9.804293072359486771e+00
-9.353178609307370370e-03,3.265145141155563046e-03,-9.799201997184342261e+00
2.187323589036597408e-03,-9.598487935042032682e-03,-9.795813520697441490e+00
9.989741216988255387e-03,-1.602005589527573338e-03,-9.800555070651959966e+00
6.931776355709230036e-03,-7.333000433886656963e-04,-9.794144474263964284e+00
-5.577960534657741554e-03,3.699948313674603431e-03,-9.801964141803642505e+00
-1.991311844824240462e-03,7.451513956754884406e-03,-9.783167811602952568e+00
3.478138395679116618e-03,-1.091050044014536813e-02,-9.801480353659171030e+00
-4.859222444962383626e-03,-7.409103106324361207e-04,-9.803699765513053777e+00
-1.688742297920094648e-03,9.411844042719100766e-04,-9.810504531392838956e+00
-4.841008254433277341e-03,-9.364766812452535866e-03,-9.798862258517702983e+00
5.963180358692438598e-04,5.481516550161465509e-03,-9.795551774156624703e+00
-2.871506118142120884e-03,-6.275867870434196152e-03,-9.805258212397390594e+00
5.936048164416532665e-03,3.161672776372820987e-03,-9.800512731051323811e+00
3.414689239591255955e-03,-2.754838857438100027e-03,-9.801432983848462399e+00
4.886169564216781037e-03,2.612054527408334392e-03,-9.785991737970771709e+00
4.831742723023064144e-03,8.857566615417093465e-04,-9.805622350171983470e+00
2.702284634215629125e-04,8.425541332206623255e-03,-9.810959760438008104e+00
4.409870984895607540e-03,2.316593772977806637e-04,-9.804357645927403553e+00
5.971032912659731025e-03,1.104837174411818501e-02,-9.807566829896250837e+00
2.499870746742130110e-04,9.682196226827475757e-03,-9.798768883025962495e+00
-2.041371320176418955e-03,-7.910599443449597284e-03,-9.801434505346829695e+00
-1.425314617639173321e-03,-1.636612103776000993e-03,-9.803691383033884321e+00
6.440198322359231599e-03,5.841976075165397804e-03,-9.796343876060243261e+00
-5.282594122293264756e-03,8.095654056078122485e-04,-9.803705461055905346e+00
-3.489948948444483636e-03,8.277771287738770051e-03,-9.797119348876798028e+00
-1.149637412565550527e-02,1.083131348446561386e-02,-9.814366056274735683e+00
7.359719793903926784e-03,-9.732675523477079052e-03,-9.806596210736985952e+00
3.611747590280710383e-03,1.919112017944542498e-03,-9.799619604864801659e+00
3.308223361529886650e-03,-1.885897905074603031e-03,-9.794151692551276156e+00
-4.822119002870486545e-03,-2.528886745406530492e-03,-9.802002505549269884e+00
1.374142588732649509e-02,-1.791736625755306666e-03,-9.804312006305607952e+00
-4.738131743172769336e-04,-6.873491459278753719e-03,-9.805519494468585506e+00
-6.637168577863858908e-03,-2.366867813956356672e-03,-9.785825507906322329e+00
3.545503823788696308e-03,-1.124622953533198182e-02,-9.799162378668061280e+00
5.430009411048838594e-03,2.156494812071587178e-03,-9.794860427105634315e+00
-2.880421255049503415e-03,7.710522551976834501e-04,-9.811238521868606455e+00
-9.114889158602694497e-03,-6.196315166647001736e-03,-9.789154623555370804e+00
5.746752125427962658e-04,3.017198185045851433e-05,-9.799920575695482583e+00
-6.862796070079201123e-03,-3.731341483664111797e-04,-9.814025023365502420e+00
4.607330148499559630e-03,2.430868362812768201e-03,-9.779295999382734195e+00
-1.722675495280431368e-03,6.841727172555678652e-03,-9.791614981909745552e+00
4.590124408883662285e-03,2.030556710117335361e-03,-9.805764826900494668e+00
-2.278144232285611494e-03,-7.269656802005126581e-04,-9.787132157227889095e+00
4.014180668715848326e-03,1.939220254513352847e-03,-9.804731387313447399e+00
-4.169237779893483244e-03,3.516907238348821688e-03,-9.807628807264418214e+00
-8.411304951318856679e-03,-2.251977098059748748e-03,-9.804047058229494738e+00
-2.425483329484656280e-04,-7.343180600332183637e-03,-9.796371516133618229e+00
-3.527405438604501193e-03,2.914687782571044540e-05,-9.803026379248347411e+00
4.429942756230137620e-03,-3.653356838154962500e-03,-9.805692692573348523e+00
2.531519629316160793e-04,-8.550689406868490494e-03,-9.800397401615017046e+00
9.993570684528572945e-03,-9.927731762431650172e-05,-9.817828273011443230e+00
2.931876723281960292e-03,-1.705568160143082143e-03,-9.803714141977959429e+00
1.730883850233499825e-03,-4.377535656608985172e-03,-9.801617599817609161e+00
-5.038827693606709457e-03,8.204011185818919916e-03,-9.796133568320314566e+00
6.855611275450278208e-04,-6.574950913375772780e-04,-9.794618795699053138e+00
-1.535981249646817389e-03,-3.979392654804942905e-03,-9.799480038084142919e+00
5.414889717172058706e-03,5.258198100457404933e-03,-9.803861255251225870e+00
-2.436938315419977068e-03,-2.087993071393237036e-03,-9.817956827496216121e+00
-1.492628952867043265e-03,1.401682537457406286e-03,-9.777099838616919669e+00
2.823025138567827191e-03,6.201328454933475315e-03,-9.809545689839865190e+00
-4.323746943342971286e-03,-2.747964708081903316e-03,-9.804782026106284576e+00
-8.989965088518623790e-03,1.409960534367223246e-03,-9.804333056756995290e+00
-2.560578212761242638e-03,-1.138794678716543302e-03,-9.806166342146266146e+00
-7.734476302907218950e-03,7.588594967138418551e-03,-9.806479194660223442e+00
4.484231089329657367e-03,4.538464782895823557e-03,-9.802122888447909688e+00
1.180230720884907318e-02,-2.520120501999009027e-03,-9.790400194830924718e+00
5.231654407131056811e-03,1.049752651659789995e-02,-9.811050593253078489e+00
1.468014877085282565e-03,-1.055008840540409658e-02,-9.807055028213273573e+00
7.801386467741622125e-04,-2.650375030974953892e-03,-9.802541547899014773e+00
2.120060092191659688e-03,-5.631957617309827106e-04,-9.792979174578659851e+00
5.256322224919832229e-04,2.013450043726540308e-04,-9.813222905578085076e+00
4.168728053484370595e-03,-3.744826140733210386e-04,-9.818982131030928429e+00
5.319767959225896181e-03,-4.127576174728518968e-03,-9.796129430786269410e+00
-2.398640723101613803e-03,6.782111761391133690e-03,-9.795539189436681227e+00
-2.507632694149242083e-03,-9.484900809932517857e-03,-9.814746213168728417e+00
9.883425282080983074e-03,1.651320196409589072e-03,-9.814222212617213614e+00
6.746479070493385322e-04,-1.508618292807328712e-03,-9.800307042389267309e+00
-3.432102901644116383e-03,9.353825064573531925e-03,-9.787576915045340442e+00
7.206392597931495815e-03,8.140540925125238497e-03,-9.795575251337625744e+00
-4.044179043895502861e-03,1.184862786579781195e-03,-9.803101542857387329e+00
-5.851893284579008083e-04,-3.231646988401924454e-03,-9.793051396214217164e+00
-3.546365297849319968e-03,2.880920330311597874e-03,-9.809570524864893670e+00
-2.536430991583606565e-03,-2.707889180592059752e-03,-9.798181891934694576e+00
4.078321510355934799e-03,-1.016806687144323172e-02,-9.791446198415265201e+00
6.780812677381963666e-03,1.604457107797306343e-03,-9.801443219723173783e+00
-1.813681915872216973e-03,-1.130799370056410902e-03,-9.811729739242185389e+00
3.148677179370539155e-03,5.792794045591781633e-03,-9.810928119703449468e+00
-8.089242975954306913e-03,2.361095934230247970e-03,-9.801867528645594518e+00
-7.976839295280091502e-03,1.163520677472772245e-03,-9.806771030268434330e+00
-3.751909847342494234e-03,1.004941906912235582e-02,-9.789481315935152139e+00
1.021236084202869007e-04,-1.991602786241613784e-03,-9.793986070643455832e+00
8.370773688522566624e-06,6.642908283027428203e-03,-9.801052806419274788e+00
9.620343192574317553e-03,4.614263271643427870e-04,-9.801017107970244169e+00
-7.420323446205747200e-03,-7.298042925956075948e-03,-9.816682869257929767e+00
5.489777937551545452e-03,7.716687191765710802e-03,-9.802224225213134190e+00
-2.827432761952595585e-03,2.666875385615957977e-03,-9.805863371999777200e+00
8.918579425496055537e-04,5.871441307485594958e-03,-9.807446371285585940e+00
-1.911706024733017171e-04,3.415245358799431051e-03,-9.808230119517553192e+00
9.331676022409812407e-03,-1.186943304576029310e-03,-9.799614080720981946e+00
3.461430694257096406e-03,-4.610592357038346099e-03,-9.794227139129757731e+00
5.443687083237443852e-03,7.165389750852817728e-03,-9.800934747733839103e+00
2.508486449173684234e-03,-1.460760076315611479e-02,-9.801888517759572039e+00
1.575331858757891747e-03,-5.332757894919516566e-03,-9.810895970515915110e+00
1.674267757425303800e-03,-1.406119241837457774e-03,-9.807619606224822206e+00
-9.677787964166371937e-03,-1.270632854897661181e-03,-9.794459346759422758e+00
-1.849540368499001924e-03,2.797844546023710039e-03,-9.808279026574005854e+00
2.767776343718609134e-03,-3.071251315387953269e-03,-9.798353981548304503e+00
7.781265524405086079e-03,-2.828134697627784910e-03,-9.809876510549607076e+00
-7.580391269746307448e-04,2.939641379346982428e-03,-9.793629749795362827e+00
-8.079582253640802889e-03,-5.719301593936922633e-03,-9.804990460188252044e+00
-7.382434100472759671e-03,-1.084631355828017622e-03,-9.816157558122592164e+00
-1.576520069908195860e-03,-4.815797832709407637e-03,-9.792350420144096290e+00
1.099748131359290634e-03,7.328125990780542248e-03,-9.797354942543542222e+00
-4.419911202821260980e-03,1.062185801522482799e-02,-9.800752251907905332e+00
8.353447830449715460e-04,-7.567899634077199060e-03,-9.795822197296613965e+00
2.111916587475409605e-03,2.759023032583345948e-03,-9.803117722079539575e+00
-3.060814565189333512e-03,2.733156197353777024e-03,-9.807570103210734302e+00
-1.035441814656969800e-02,7.475049025130452727e-04,-9.786807092945592146e+00
-5.262023839430005762e-03,3.629113836246857135e-03,-9.798896747273357022e+00
5.455635992010450692e-03,-6.308709886700126536e-03,-9.800367716327178513e+00
5.191640136245661424e-03,-5.577813825768921166e-03,-9.802803660607853686e+00
-5.035931223584046677e-03,6.653040712551478580e-04,-9.814396770081005528e+00
-1.582492761861972394e-03,1.967328551700499480e-03,-9.808089681374783098e+00
-9.482774236518321225e-04,1.476591048521032649e-03,-9.802237360699123769e+00
1.140329745790860140e-02,8.198124464706092393e-03,-9.802317043490168302e+00
7.119969534087332817e-03,-6.704755658012722178e-03,-9.805762025951878513e+00
-6.524885610822633375e-04,2.815706687392692965e-03,-9.789835716157618606e+00
1.600750397924387140e-04,6.249151974464426350e-04,-9.805550393560166000e+00
-4.788836199265084775e-03,-8.003802616831397557e-03,-9.803659515374389954e+00
9.157453578071109504e-03,5.370417860939486095e-03,-9.787179867405804146e+00
-2.890812282818800046e-03,-4.120585988413648197e-03,-9.805792896111555024e+00
5.678754147604896454e-03,9.689922457522057034e-04,-9.787772296387695192e+00
5.541201915062210839e-03,-5.877042964700747094e-03,-9.807182591651981696e+00
-6.999058277227753182e-04,-1.642535876819399511e-03,-9.806173395879621779e+00
3.440364470827050967e-03,-1.280016581335949571e-03,-9.798115273648404511e+00
2.655212528177170080e-03,-1.390068542736876654e-03,-9.818513208657860147e+00
-2.742040980061312330e-03,1.455573476492183754e-03,-9.814698499350566152e+00
1.884791537235104791e-04,5.692847301445244645e-03,-9.795983797453747144e+00
-3.610741372745264553e-03,1.450025794936498757e-03,-9.784213291456778094e+00
-3.200698775794430951e-03,4.704539473001206548e-03,-9.813489153612634297e+00
9.625615149851581356e-03,7.200702688362937628e-03,-9.816524245793024406e+00
2.062825234334994128e-04,-2.637689828461292976e-03,-9.795093665809405437e+00
-3.748633666877134590e-03,1.268255378726148999e-03,-9.815933041422850280e+00
3.861409247882508465e-03,6.563386856407798457e-04,-9.819978354754129057e+00
4.475982030229939089e-03,3.261786859018273206e-03,-9.789174185199160050e+00
2.837022504641935686e-03,-7.236599300702759811e-04,-9.797530826176279461e+00
-6.969922629864794793e-03,1.887777117489688756e-03,-9.799100259113977529e+00
-1.612299661598433353e-03,6.779509907004472799e-03,-9.794121226345117392e+00
-7.324756504319803125e-04,1.405116930274486224e-03,-9.793011331414593457e+00
-6.046298345853360354e-04,6.137117772162728815e-03,-9.798537945844927322e+00
4.456922306269536956e-03,-3.328777977114053075e-03,-9.790798417635565798e+00
1.712574874598085488e-03,2.351727507706873575e-03,-9.789224648170467447e+00
-1.104098778667176109e-02,-6.307240663532004930e-03,-9.811686033941189322e+00
-4.595142129099086432e-03,3.443551457145290796e-03,-9.797221123366723461e+00
9.715365684169039243e-03,2.740471943550205382e-03,-9.793975429879045791e+00
-8.251587284132897229e-03,-4.125071350735247389e-04,-9.800897496141235621e+00
4.074414126451502208e-03,-3.478458000876788903e-03,-9.789817277491208003e+00
1.978468435602887628e-04,-3.983944406671763652e-03,-9.808677055793008748e+00
5.806785193865802389e-04,4.397885209139217044e-03,-9.816132368951755893e+00
-1.564730413357911555e-03,4.306955007571182728e-03,-9.787998762525031538e+00
9.540389615191963374e-04,2.274722276991734092e-03,-9.795867222180307365e+00
9.869835534727310587e-04,-7.486783034071565340e-03,-9.806041810952052629e+00
