gyro_x (deg/s),gyro_y (deg/s),gyro_z (deg/s)
-1.003756828561267779e-02,-1.227069833843226834e-02,1.172815370784026888e-02
-3.997749468760411484e-02,-4.508442983032081609e-03,5.019355553793433504e-03
1.244683627004517304e-02,-3.508422665809630969e-02,-3.588108586228327956e-02
7.207582432131761502e-03,-4.850224381890417408e-02,1.685519501451255772e-02
-4.429906791566751850e-02,-6.935086766442006244e-03,-5.992683893711622800e-02
5.361614369794806545e-03,5.163383256795440329e-02,5.906126171862662033e-02
-1.597879160095158277e-02,-2.286342832617400261e-02,-6.102209154543275678e-03
2.736065875575333095e-02,-2.175344501240784184e-02,1.350541772036567903e-02
6.719314693326633448e-02,-8.808257693666238231e-02,9.394230987169586988e-02
1.788795546655522553e-02,-3.612714069691356361e-02,6.978798661331097122e-03
-2.840212070831881278e-02,-6.108227572682194823e-02,-9.233631654624807616e-02
-3.595287233019878875e-02,-2.377959243623679192e-02,-6.869835279251668148e-02
-1.936315904317235242e-02,3.219149139151765426e-02,2.572916559492527400e-02
-6.484929272556358079e-03,7.183927645154069598e-03,-5.246276741386218107e-02
-6.096101985341175443e-03,-9.837306756008807294e-04,-1.101109060357202407e-01
2.360254171954096793e-03,-9.097320719335626193e-02,7.087484927057048634e-02
-5.186117229353029434e-02,7.087650550006023391e-03,1.758696453518990288e-02
4.379956004299553896e-02,9.196093260995262531e-03,-1.226125250986211113e-02
-2.623848641734474046e-02,-1.560515809847178720e-02,5.934200365208570915e-02
2.826852515998702284e-02,3.714626279141462501e-03,5.446291011490838468e-02
9.806780710725453154e-02,1.468425145231832185e-03,3.903008416529941960e-02
9.036078160276407936e-03,-5.215622612384832046e-02,1.075730722007167128e-01
3.409149359495831921e-02,2.757739719000707954e-02,1.772904574645652737e-02
2.893989002647823217e-02,-2.979596115961446329e-03,-9.329744892096101042e-03
-5.289762991206006099e-02,6.433437483985804395e-02,-2.016683295064583895e-02
5.239215845844100161e-02,-1.585971197119848131e-02,3.825729386110505482e-03
-3.074732353437554556e-03,-6.355673980667887746e-02,1.111925489144741964e-02
-3.639029552196775680e-02,-3.823444367367400537e-02,8.873923526147083074e-02
1.658643658422890785e-02,3.218961263672336093e-02,-4.558470081212169164e-03
-1.264107102445229669e-01,-1.726910120033478546e-02,-2.787693056638721866e-03
-2.880334401655657711e-02,-6.778214663466311518e-02,3.618453167491052225e-02
7.677638725948042475e-02,-1.960898660678946082e-02,7.857284745810833027e-02
2.025607630411596985e-02,-3.205525029121442104e-02,6.519511957997105311e-02
3.505369774732521732e-02,3.895450996780602110e-02,2.558765780989219474e-02
4.407347389160425066e-02,1.107812606700666822e-02,4.087942026752968555e-03
-5.176412649613957272e-03,1.937373090173209050e-02,5.607035066350830183e-02
-1.880839243689859039e-02,7.870368552798516493e-02,4.109323243176982859e-02
3.507812985518800331e-02,-2.309499912958327961e-02,3.305833435899217798e-02
-1.796228542451245788e-02,-2.274696641123623644e-02,3.508327215806966476e-04
-4.130079720953087896e-02,5.633165585668451630e-02,-7.877422755735398463e-02
-1.635428721168453309e-02,3.313126125516053372e-02,2.625872226811597210e-02
-3.900651222655533018e-02,5.475221969507213654e-02,-1.715431735639044025e-02
-7.659744396958407565e-03,4.206848594952560666e-02,-6.001198238613331820e-02
-4.626833024523589744e-02,2.146188537064571897e-02,4.672611535306516600e-02
-4.956613269427422030e-02,4.329369240636861578e-03,2.159067639149202071e-03
-9.406298106396020903e-03,4.590402559208434270e-03,-6.119517027896956979e-02
1.849757772477963330e-02,2.536042634541836246e-02,-1.278585318814813403e-02
-6.984051481424659313e-02,-4.082067953842074409e-02,-4.955118153704235473e-02
-2.702275541076306145e-02,-5.603220833544479695e-02,-1.058926262231714779e-02
7.200974163946879947e-02,8.097724345630106721e-03,3.581683518369264962e-02
4.712174229062717108e-03,3.179832434289538851e-02,6.242228819970827708e-02
4.725161825154617495e-02,-4.474497323530342990e-02,-3.280635520440131070e-02
-5.406652362922550331e-02,6.422693602666851298e-02,5.441595060669519868e-02
-5.057784462041121226e-02,4.958505847903927483e-02,3.398967707906097591e-02
-2.995502533446081292e-02,2.135242439538946949e-02,-3.153694476060747709e-02
-4.948666111281562613e-02,1.771114038232785709e-02,-4.584101295818185200e-03
-5.196132090703917128e-02,-2.920550693803766057e-02,-7.453124650831077780e-02
7.299839118537694224e-03,9.236555242555427592e-02,-9.694544566579653411e-02
1.094900578133109828e-02,-8.920271312975611155e-02,-3.459696472747773172e-02
7.103612109548768094e-02,-3.640679345189126725e-02,2.638405266749146647e-02
2.571798040408158730e-03,2.171127726220034235e-02,6.658735597864302858e-02
-7.404458002556543739e-02,1.910727503260262541e-02,5.730717559889806148e-03
6.782031838219514108e-02,6.397656992491784766e-03,-1.116333340516616375e-02
-4.197977741499420157e-02,5.317563897976831933e-02,3.932704331716422447e-02
-4.564798145905616528e-02,-6.275237395514437523e-03,3.106765190418686595e-02
-1.309672649257548512e-02,-4.531574550459264300e-02,8.706458784585108940e-03
-5.313169763367780324e-02,-1.470264160855668141e-02,3.041917917005785080e-02
2.995410917333633447e-02,6.006903934846209020e-02,2.447549918649601086e-02
1.020012120871787017e-03,1.413855411412872840e-03,-7.375356633632583481e-02
-7.021270760196211824e-02,5.451896806763189413e-02,2.395012687213531055e-02
7.666907232150346752e-02,1.376112818083027531e-02,7.668835360168252402e-02
3.326629124560301354e-02,2.817460117173162248e-02,2.758760705287484349e-02
1.176772596013525018e-01,-2.182221590026785923e-03,-2.517076658071553882e-02
-1.002311466495290487e-02,-1.079209402891032343e-01,1.043358381672249702e-01
3.549252453681660258e-02,-5.152871626132848881e-02,6.461189940410326515e-02
-3.160332326871494873e-02,1.773033489566842175e-02,-1.415066820256904827e-02
3.686523157597258737e-02,3.621135848035710730e-02,-2.448891248174467697e-02
9.505007108764979007e-02,3.208785429354413937e-02,-6.675851172153006441e-02
3.826363764222929370e-02,7.224003278012458562e-02,2.905046896552110000e-02
4.508575340652828251e-02,4.082818808975539893e-02,5.556996610247741386e-02
-6.573700042420337064e-02,-1.733521506984796829e-03,-1.676307186987948186e-02
-4.843753636818422942e-02,-3.152202057085518733e-02,7.583598553138391762e-02
-3.094774550417988407e-02,2.725941753019259922e-02,-2.171022797508840099e-02
2.542871392010493878e-02,2.419057343958830666e-03,5.656156898515053884e-03
-6.313830732355694975e-02,6.629622956343203533e-02,-1.289089169676219948e-01
-4.983087026840137684e-02,3.852508945619662149e-03,-5.477378724010186634e-02
-2.100164180101095888e-04,7.194309818233771830e-03,-2.758493344438297645e-03
-1.550326580031390761e-02,-3.159676857402606703e-02,2.572640431361385149e-02
-6.385241135808189528e-02,-8.647768430617200353e-02,-6.598327204768955449e-03
-4.276646305348207056e-02,-4.293023628541571546e-02,6.475063067218576060e-04
7.889127419117347717e-03,1.579201167358199043e-02,-2.208336202810224150e-02
6.261825382911391340e-03,-3.310709729764811649e-02,-1.086027539806615379e-02
-1.149966436151877124e-02,-1.727034378492116329e-02,-1.574939312086750393e-02
-1.402906878361471522e-02,-4.676801075485636366e-02,-3.580332986228876215e-03
6.416989251888077783e-02,2.338393758702779143e-02,8.622200933693421887e-02
-5.942614437212155598e-02,5.239459834420433920e-02,1.495463466216909697e-02
2.713312721639529052e-02,1.152266156865416587e-03,-4.225132518050562017e-03
-5.372979370244306691e-02,5.023278379428029738e-03,4.674996951547988333e-02
-5.342691638146563476e-02,-6.171991909904640111e-02,-3.409511885851447544e-02
-9.458060059462855551e-02,2.948483300724169965e-04,8.826189564375301611e-02
7.625488742667019260e-02,4.201507910492736225e-02,-3.635926162706962922e-02
5.018998525436889520e-04,1.308947201634330995e-02,-3.933799696753523950e-02
-2.688111039325866494e-02,-1.344766245314998193e-02,2.774754456634950101e-02
3.744737013772784986e-05,-6.514624415940199753e-02,1.372353344781185314e-02
2.998999361611658782e-02,1.560538533305662681e-02,-4.912193782244601153e-02
-3.833515709716545788e-02,5.766672732301680177e-02,7.364033082223093996e-02
-4.538414831670266325e-02,-7.441175355112990275e-02,7.582370460527616644e-03
-3.634803316634912379e-02,4.168792183303810656e-02,1.208984295245941164e-02
2.123745848769094391e-02,2.875320588558015825e-02,-3.040244030401849373e-02
-1.201802580681318733e-02,-1.134693320457786508e-02,1.155324729087163493e-02
-3.095403143331552573e-02,-3.107872342057629422e-03,-4.353928733404207989e-03
1.097747191201833838e-02,4.692368827350760357e-02,-2.615433983295823925e-02
3.465492919402555355e-02,4.910125346727423068e-02,3.907026785816435088e-02
-7.576503057269683150e-02,-1.533617171515322918e-02,-4.460961412342866195e-02
9.805422850413689217e-02,-4.254071163572458597e-02,-1.912576109071671693e-02
3.392664459053285758e-02,3.381905943804740244e-02,9.757403350261288633e-02
-9.604156484959502221e-03,5.142777544408982243e-02,-5.268109806215909990e-02
-3.136737104681478622e-02,1.150045306809014123e-01,1.397072829123408889e-02
4.256106498067957489e-02,-1.258568011188013550e-02,5.023201246246652291e-02
-1.556981344592843009e-03,-1.902006770870562011e-02,-5.624950724164987093e-02
-3.095315548040679723e-02,6.537050193733738579e-02,4.594649274958154811e-02
3.780921042366090085e-02,2.826845007280639685e-02,-4.917713865262313133e-02
4.445408356544754136e-02,1.923751221940482939e-02,-8.540305196313572808e-03
-6.028325455133396599e-02,1.685574220243673052e-02,-4.439295944761412899e-02
6.104766830794994964e-02,1.801620104493001709e-02,3.753253137898626690e-02
6.409061463194226649e-02,3.291851537619215617e-02,-5.367249333718122906e-02
2.520862944421579932e-02,-1.454971383817556425e-02,3.671995299008504882e-02
-3.698827937480487354e-02,-2.857991245496659116e-02,-2.817114199972534441e-02
3.464188892878902054e-02,5.708241053316050889e-02,-6.903867941141283993e-02
-7.089783211144672082e-02,-7.102271833544399060e-02,-5.155210291444362047e-02
-3.798631359393547097e-02,6.084153806318762236e-02,-4.463811947656677603e-02
-2.447019754408030073e-02,4.138015493262933026e-02,6.236726027784696841e-02
5.267557071472315361e-02,1.313148110035474228e-02,-5.606936872074338996e-02
-5.000545914387964641e-02,5.789539621641725392e-02,5.590865839855140712e-03
-5.009842833671881122e-03,-3.102282019952935788e-02,9.241485265778044342e-03
9.178407943509831108e-05,-5.166024260910282578e-02,2.028126324543162023e-02
-3.525096327052602840e-02,4.461018746147636660e-02,-4.761535681028702949e-02
-4.407912114043992247e-02,4.332671605179451435e-02,6.110729552489520960e-02
-5.584833450051386768e-03,1.077247986584539824e-01,2.858199248511215235e-02
5.512020035338950630e-02,-1.735337658845995806e-02,3.126907946999319624e-03
1.351106031217243035e-02,-3.621466680895667895e-02,-6.105887365656439969e-02
3.258716780907326693e-02,-2.037621636582686181e-03,-1.914721287619138707e-02
2.223898131504603581e-02,-9.129824944332756015e-03,-1.361312230143526744e-02
-4.903403094115486860e-02,-1.778607566662729345e-02,-2.290197459641589439e-02
2.784970266348891013e-02,1.111350857787040368e-02,-4.628647376942296443e-02
3.892812161212529792e-02,-6.404818118994509701e-02,2.849514365581678685e-02
-1.051477393872866494e-03,-1.294008053365879041e-02,2.374304460584992366e-02
2.196728384355360955e-02,2.645034735966979300e-02,4.994542561809990622e-02
-7.984365104464867524e-03,1.925516162285534566e-03,-2.323953629755562064e-02
8.604112348634719576e-02,1.350260007507265471e-02,-9.543261627280646975e-02
1.039870448239869384e-02,5.743347153098558346e-03,1.401408222408194459e-02
4.874919124821940758e-02,4.536145670456571966e-02,-2.253898924523993486e-02
-4.591485558531800681e-02,-4.890160889564790919e-03,8.652142425416987914e-02
-3.239698315239118720e-02,-8.216030838940791003e-03,-6.297973931613724818e-02
3.616301174074695174e-02,4.294199146906747117e-02,-3.422356950797482509e-03
-4.881941982095151789e-02,5.643863004487996611e-03,1.020574796142688194e-02
-3.592347043038856408e-02,6.950972942939324939e-02,1.037707513251672799e-02
1.009300214437065281e-02,7.118964063699294298e-02,6.275113776917667918e-02
8.273966701351433140e-02,-2.105860335268218766e-02,-4.094575401856496294e-02
-1.031757792833600841e-02,2.424758183700917447e-02,5.266292607192982894e-02
4.762533009209184154e-02,2.408674167343642300e-02,-6.395727922629582465e-03
1.745136564634990235e-03,-2.458966184075193212e-02,1.114425299445959833e-02
-3.218023403244833769e-02,-4.698209585984027686e-02,-1.963187478606753106e-02
8.885076493764622330e-02,-1.060356314941314909e-01,-8.353665507795644818e-02
-4.080142634213414221e-02,-2.570000371423077426e-02,-1.165183358415417328e-03
-4.164169541119754070e-02,1.130415408755578444e-01,-3.040871664606957861e-02
5.657072804949388189e-02,7.246611009359731070e-02,-2.673739057893594062e-02
1.843667666509339609e-02,-5.633235931112469570e-03,5.735683115717616493e-02
-1.736575043570698362e-02,-1.504476010519169467e-02,3.440491423376823565e-02
-2.891501268835914781e-02,4.776381389286954438e-02,1.265035332100723775e-02
-4.395082547768313502e-02,7.463079014088985254e-03,4.297103181834227570e-02
5.408898046578106134e-02,-2.538935545783284342e-02,9.040097822804085692e-03
-4.535825455326700922e-02,-1.221057047209240035e-02,1.907494314787164247e-02
-2.617336581920253966e-02,-1.715892374855350691e-02,1.553008990839469319e-02
1.110156004808619465e-02,-8.628079630249566381e-03,9.793203726572264484e-03
4.416960406325921851e-03,4.947359504677349695e-02,-1.461689444551231287e-02
3.968244007066276668e-02,1.807041096925697532e-02,-1.623211006087716540e-02
-3.750790684083107809e-03,-2.283340885581887705e-02,-1.193262459167636520e-02
-4.532676218032848092e-02,1.135836994800023397e-02,1.854988284822461572e-02
7.566661804348093039e-03,-2.886183547949237871e-02,-1.102010704434214575e-03
4.652378985138429929e-02,7.016065372091211116e-02,-6.094913158901429928e-02
-2.745983721785539775e-02,2.670048473369187464e-02,-1.251641213800991533e-02
9.375457358442107828e-03,3.389946788634225910e-02,3.797269995310338653e-02
-1.022822021288961186e-02,2.351307257049019619e-02,-3.196403719141908961e-02
1.009942998706179693e-02,6.713034900420089719e-04,1.584338943194873658e-02
2.086545562031739964e-02,3.450199437683505038e-02,2.571064613456559497e-02
-4.745341279275578500e-02,3.949407600516374739e-02,-4.704219320402407839e-02
-1.571357149438967413e-02,4.467625430567703781e-02,2.958614312006123404e-02
2.738573829268361320e-02,2.350116199758311639e-02,1.913217244632269779e-04
-1.066351303855374749e-05,7.141771880459034383e-02,-9.418840925181803936e-03
1.984161877110139291e-02,-9.064081605044344014e-02,2.726938340499164559e-02
2.228352038051276476e-02,-5.640131233963662297e-03,-9.364650175622400707e-03
4.062718189334679764e-03,-4.447043147001304708e-02,-1.021338192603336859e-01
1.557532042273307785e-02,-3.794025025661321854e-02,1.625797522719540575e-02
1.244139873390214500e-02,4.537100509303763733e-03,8.660161054220356924e-03
1.076233324601979791e-01,4.134642949842046167e-02,3.905824115223171383e-02
-1.612923741992549915e-03,-8.136259562542247359e-02,1.221532701909422598e-02
2.519381341484580941e-02,1.204210291542052030e-01,1.456932826217940437e-02
-1.885401902972839300e-02,8.410698845293653955e-03,-2.749494288340800785e-02
1.146472965153650519e-02,2.384403594424379727e-02,-1.500176297371634548e-02
-8.071618252475865757e-03,-1.987982657673854903e-02,2.929682781849090797e-02
2.953472512455438889e-02,1.461539152349969166e-02,-5.735491280749493992e-02
-9.461847552260538308e-02,-1.475913392356676887e-02,1.066410634493669685e-02
-7.766129147169371395e-03,1.274995966226243234e-02,-1.031162808866605274e-01
7.758252169074350557e-02,1.447417081946280291e-02,-6.595398540641687901e-02
-4.434855667356055881e-02,-2.979796818558607882e-02,4.357772458368046331e-02
1.995094003119555690e-02,5.979816471866970622e-03,-9.190894736166030712e-03
-9.902236531330699254e-02,-3.018304626014577108e-02,5.582510389700239689e-02
-4.262570567662082172e-02,-5.694335996875699024e-02,6.030707414786234954e-02
2.670890101680231058e-03,1.254384903158739344e-02,3.866256817078066177e-02
1.232284728295041272e-02,-8.991454850343959596e-03,9.836709146394034819e-03
5.739689852567237370e-03,2.714780876962115397e-02,-2.764582231670673768e-02
-9.560420323238299004e-03,3.729031844931239570e-02,2.187604321615588612e-02
6.989639611188401547e-02,-1.127529210561195767e-02,4.471336450796015161e-02
2.657719373071932949e-03,9.004898381760715817e-03,-4.849256862928000289e-02
6.128955024528163348e-02,2.457200097689209162e-02,-3.616050150481296037e-04
-1.037512388959001622e-02,6.473801808248452749e-02,1.586177020856196010e-02
-1.251309233567564523e-02,1.789978602001992408e-02,-5.344185468231916342e-02
3.256341118253584105e-02,-3.284182957060192282e-02,5.769829857851063726e-02
4.805610573511165384e-02,5.789490467303312626e-02,3.133890403716086347e-04
-6.801791586148366042e-02,4.827479827775797531e-03,-3.060083776853689264e-02
-3.259508359849818543e-02,-5.370280929892180116e-02,3.885194282193688009e-02
-2.047103134566735649e-02,4.353048961314179982e-02,-7.220869400382014247e-02
8.423382000561663654e-03,1.173420723400957905e-02,-5.465613550716867317e-03
2.736188758334240356e-02,3.506004322899756304e-02,9.466410544030492502e-04
8.345289154416202226e-02,3.837379379862132338e-03,3.204868647891883499e-02
5.551605288035344615e-02,9.090121647924028284e-03,7.926358474432797230e-02
-2.734034642046100430e-02,1.072681635703146563e-01,1.650553336613256109e-02
-4.703416152726824090e-02,-3.318597758500958089e-02,-8.644030108831156356e-02
-3.775827089027014583e-02,-3.549446873009770749e-03,1.295064030489983566e-02
-6.212988784445431373e-02,2.688322055887547996e-02,-3.951075208997515548e-03
3.392277432533300635e-02,5.414385713572165623e-03,1.235727250392399008e-02
6.341884056634318478e-02,1.936183741466188796e-02,5.661978626175241235e-04
3.680194190206401150e-02,2.290765583908016545e-02,4.401078179799927659e-02
-7.618770252981468816e-02,-5.254345808148163516e-02,2.071678364764924923e-02
5.012411309986815333e-02,-1.222206639740292845e-02,-2.738458646167024613e-02
1.770861308014283139e-02,4.908036973328380043e-02,-1.839203363985900857e-03
-6.112868286319279518e-03,8.009134315610871857e-02,-5.313523539906299387e-02
3.837018195374086726e-02,3.992905271235004661e-03,2.962781834366791725e-02
-2.091632073903236869e-02,-5.500366162063715508e-02,7.991976827359334457e-02
3.793194058754400383e-02,3.722372616588968258e-02,1.995373153167468230e-02
-5.157125571196936181e-02,6.457578317881158825e-02,-3.474418584904998691e-02
-5.728178145115040559e-02,-2.955988573576184136e-02,6.370583386089881395e-02
-7.550141231538946666e-03,-7.961033537071039723e-03,-1.326601127219268622e-02
-7.717215302566285753e-03,5.350191839736893537e-03,-6.392636513773637674e-02
-5.400831878447263229e-02,3.793582002229437325e-03,-5.304474131385355368e-02
7.487531839255433253e-02,3.114700486875107352e-02,-1.093009164066453126e-02
8.344530857735438234e-02,-5.691749040837174034e-02,-1.033800193183248908e-02
-3.566738222922765517e-02,-3.354294202789335350e-02,2.027206322819329054e-02
1.074152544581715579e-02,8.490513627198225527e-03,-2.508792300121009261e-02
-5.259581240785810713e-02,1.694019143373534306e-02,-5.688378151688922718e-02
-5.607404493531754214e-02,-2.600683809956723033e-02,2.388220697112522842e-02
2.544674903787519891e-03,-7.702830459012936781e-02,1.867586368711419281e-02
-8.360020557979807448e-03,5.486209527373342443e-02,5.801355223862822430e-02
1.671083996719792755e-02,7.892495216851276585e-02,-6.769344976851821710e-03
-7.049423938273818857e-02,3.107210994277068150e-02,3.027379191016046911e-02
-5.096569544949394216e-03,4.561264801448721394e-03,-4.738975480018477182e-02
-4.174107121836224954e-03,-5.687342060640357411e-02,-1.176742827150293637e-02
3.053203375701703942e-02,-5.632056377224271132e-02,4.100016930754633686e-03
-6.464304638962255212e-02,3.109914091038874784e-02,-9.002223478878971369e-03
-2.692852215968289872e-02,-4.431100768542269724e-02,4.892558920539860634e-02
5.166212924743994461e-02,-3.455812324082590398e-02,7.631569045317709854e-02
4.645742220015076918e-02,8.905518068443373653e-03,-2.008849005953400671e-02
1.233468529490612704e-02,-7.265130214379640627e-02,-1.980539380729682414e-02
4.089954331718433621e-05,-2.042307544448992984e-02,5.603326587823102313e-03
-1.571400369308040279e-02,-5.188806492898073025e-02,3.099882636587442120e-02
4.523444825255006768e-02,-3.390376374246323776e-05,1.442107119196944266e-02
-1.116219939676069660e-02,-3.930209773598267869e-02,6.868185609952933606e-04
-5.613285052416226717e-03,-6.047401540669714026e-02,7.941763543445769236e-02
1.470233259662073223e-02,1.010528723800522763e-02,-1.962734878193850285e-02
-5.557450503220793397e-03,-1.077946566034415979e-02,-2.529777313711608494e-02
6.176932982357711405e-02,-1.293090198251219819e-02,-2.172971800250372149e-02
-9.824828358318398250e-03,1.995334745922937650e-02,-2.487627951559490472e-02
-2.724092255719779559e-02,1.424532965354309783e-03,1.116881707903120829e-01
-6.216300196169931291e-02,2.121262007500141974e-02,-1.011382306894113327e-02
-3.590246193197160762e-02,3.234067071647967612e-02,3.259693273129667807e-02
-8.710367840672773865e-02,8.512970771201307241e-02,2.041841982276437067e-02
-6.053982254146918207e-02,-9.334554038584257432e-03,-3.161541139268168876e-02
3.398283185828877839e-02,-5.246886762714100122e-02,-1.096407168391291403e-01
2.633108754465689899e-02,-1.189291984974835681e-02,-4.572476112275272730e-02
4.193514171661808648e-03,8.746022343123244659e-04,-2.356659723410424109e-02
-2.530311512498221310e-02,-5.769338691867974961e-03,-3.432281312285581643e-02
5.291226661393440972e-02,-1.261553540905696082e-02,1.176558050073743533e-02
2.729666842234421478e-02,2.325965230421984595e-02,5.242627969617553313e-02
-6.588792415985650353e-02,9.768508905039038903e-02,1.457458858052962554e-02
-3.845257983784880484e-02,-2.700635600339245518e-02,3.379644627513617855e-02
-2.261852895493359286e-02,1.543961398342221999e-02,5.315220321760690675e-02
-3.937170731231810078e-02,6.405254802019184901e-02,-5.906737811270660471e-02
4.246981996718971614e-02,-5.289375068120730217e-02,8.260150355237491290e-03
-4.162506260049640694e-02,3.782715442232066627e-02,9.833976402722943710e-02
-1.047917057191358192e-02,-6.282591258586961436e-02,-1.953692528435835990e-02
-2.240667772073229314e-02,2.690690535817244836e-02,-6.131026776908458237e-02
-9.407256219735929403e-02,-3.624992141140641333e-02,9.415221879172432431e-03
-3.077756317461574284e-02,5.517920689099324594e-02,-9.892947822655960566e-02
-1.166851696969742986e-03,3.972508558345581170e-02,-2.183137933566047743e-03
-1.511533176157696910e-02,-4.657142053517907693e-02,-6.180186857102266951e-02
1.550700450048755549e-02,-1.718223460371947481e-02,-6.225952336699884515e-02
-5.820468552229473430e-02,4.616687208747456694e-02,4.704598909217459768e-02
3.350418102973715118e-02,-7.802981293168106958e-02,-1.962414497253070489e-02
-7.308891497333237786e-02,6.043113679027821948e-03,-7.192495498429231360e-02
-5.012248259229529906e-02,1.520009359050416946e-02,2.893684962997715784e-02
5.943727693205971829e-02,-6.749148393211286401e-03,-1.044416165549375518e-02
-1.597860898367611804e-02,-1.609853674782925695e-02,4.436193687099007632e-03
-4.085119706347451612e-02,-1.822588835464773044e-02,5.001986337346123190e-02
-7.942208894639384009e-02,-1.655594750815073991e-03,9.292328168176487366e-03
-3.191156540151615650e-02,-4.250648178069332817e-02,2.765712901112917302e-02
-1.129069152606575026e-02,2.264317920595127973e-02,-1.311497978103299536e-03
1.799076766931279395e-02,-1.393994212630311202e-01,-2.521787138090910221e-02
5.920896091821531426e-02,-3.541054974754281187e-02,-8.990489318625365101e-02
2.735303229615696635e-02,1.836712589606940074e-02,6.634492551278318995e-02
-4.639376751661113824e-02,-7.067274121162124556e-02,6.854638931326000051e-02
7.825231193906958399e-03,-2.134760765647551739e-02,8.657533536084260559e-03
-3.198885461872345154e-02,1.879854332263065225e-02,6.612539268537605264e-02
-4.395701923457599747e-02,4.198624316566137299e-02,-1.937922569435480968e-02
1.698702096919061863e-02,3.975471911490151278e-02,-6.853533351808216434e-02
-4.860015792981828286e-02,-1.097480196329716703e-02,-4.062362157064285106e-03
-5.029060543895118307e-03,-2.407566427495279673e-02,7.677266815446583126e-02
-1.218449040080258824e-02,-8.656990082187701607e-02,-1.289454089514695256e-02
-5.327045814184244027e-02,2.280830424985539479e-02,-3.771767028073060718e-02
3.192651931998691933e-02,-3.021866782405015998e-03,-8.532136111911284293e-02
-4.373433908229159423e-02,-1.052885396032772307e-02,7.757227498161037814e-03
6.000420184639736892e-02,1.477733956718045583e-02,-3.581844137883185425e-02
5.223925970190350376e-02,4.296555773104548254e-02,5.631093526799770682e-02
-1.058981369382848946e-02,1.311514077076789825e-02,-1.001481679281805703e-02
-3.023099251898682480e-03,1.967351800787922947e-02,6.033480186462275227e-03
4.376901096850258077e-02,-1.057960639468653007e-02,-5.719407475051137280e-02
-2.427954899279536130e-02,-1.959906335379878878e-02,-5.437110176193578337e-02
-7.757217625899037738e-02,-7.273921142345640689e-02,2.630935072312859738e-02
-4.682620902681037395e-02,3.025167535000283098e-02,2.064428478141984782e-02
-1.461675016319007904e-02,-4.568418488752113565e-02,5.219697262774308788e-02
-3.893817526905162668e-02,-1.029016491950025119e-02,3.549123657101969834e-06
7.396967139633890340e-03,-2.208761594601206871e-02,5.983832742038831982e-03
-2.237476108229160404e-02,9.436825340040526366e-02,5.887464916605725934e-02
-4.686444098231830335e-02,1.706625184387571686e-02,-1.590408944234901392e-03
-5.012398222130756004e-03,2.488167710041435526e-02,-5.251275340175394490e-03
-2.175471123064030843e-02,5.048941362883430789e-02,-4.606308359016410975e-02
8.691482804054137881e-03,3.264181116963314755e-02,2.087116105228655275e-02
-4.580090773880054859e-03,5.231434251219174020e-02,-1.745796132144789709e-02
1.228646947901971750e-02,4.873279326686644208e-02,-3.409085373003464120e-02
6.512358988813415905e-02,-5.854439040558103574e-02,2.716929209912313445e-02
-2.933340014106705293e-02,-2.539037114900589281e-02,-1.860805650702761910e-02
-1.985291680008087825e-02,-2.009885843571222741e-02,2.723179401304048636e-03
-1.361016459511311776e-02,3.006427705955911148e-02,-1.566214528801023950e-02
-1.432191653535431347e-02,3.392061428265602269e-03,9.226647876591316175e-03
5.876599915989156458e-02,7.315570282314364783e-04,-3.176121073421779573e-02
8.526083636485914594e-03,7.070546438776226239e-02,-3.748677488579252315e-02
9.443746694565097535e-03,-4.320057070701380231e-02,2.957613764966492836e-02
2.138846265921422879e-02,-4.001599777207132114e-02,6.440341871864836698e-02
1.442645345816901022e-02,1.078440745010660973e-03,1.850281438734435778e-03
2.270484085089772772e-02,-4.624440307936499711e-02,-1.285929495948522419e-02
-9.290243312828497246e-02,-3.894289908423863994e-02,-8.076991858443266503e-03
5.868491084023996079e-03,-5.164800534553985051e-02,-7.302285433662866407e-03
4.517518758622172947e-02,1.709945481933591860e-02,3.742630854184657990e-02
4.208947684983870181e-03,2.188120070553931096e-02,-1.259915036918959029e-02
2.688880611437917054e-02,-6.221299353890296854e-03,-2.023933022299814061e-02
1.691096613440785934e-02,-3.875773265302500346e-03,4.122161772721962686e-02
1.135228215501907917e-02,-1.842178260093150360e-02,4.372065076948410817e-03
-2.454102806978882695e-02,5.231170711925944156e-02,5.930445480179240281e-02
-2.455084491152919809e-02,1.524660167420785299e-02,3.199986345201542848e-02
-1.400708532736747586e-02,-5.223882954308800564e-02,3.415242343708432132e-02
5.421570308204453487e-02,-3.962526560599054920e-02,-1.021900325469066173e-02
6.300583997030882559e-03,6.178527922153803642e-02,8.158924098267926472e-02
1.352265261699984143e-02,-1.147406344188608290e-02,1.444219942558094827e-02
-9.154884209312137353e-03,-3.147453793756541975e-03,-2.261588761832675556e-02
-8.544212304488589538e-02,-9.162214705123340741e-02,-1.614455698330285321e-02
2.028549184690636373e-02,-4.108910376340012445e-03,-1.648576580780711188e-03
6.625542108935209701e-03,-3.613107445048314558e-03,-5.946710494531661298e-03
-2.446117252769038075e-02,-6.934356319246995359e-02,-2.675313554438201250e-02
2.378971111857122386e-02,3.378025026269060489e-03,1.736097868543827819e-02
1.130373951405197822e-02,7.053039725945223215e-02,4.753534639672916950e-02
1.024949172504504083e-02,6.319693437628165489e-02,-3.720935645962226285e-02
-6.446071394633234343e-03,-9.680733950166374446e-02,4.064959525213161784e-02
7.995693313727318674e-02,2.398755527133072593e-02,3.208584209904487977e-02
4.217403028697701284e-02,5.872610541538045986e-02,-1.984973829473465207e-02
5.047830454971174129e-03,-2.267958281071626517e-02,4.893615639601369555e-02
-2.977422913987896533e-02,6.215874098031041323e-02,-1.175068780735562951e-02
-9.821221616483903627e-03,2.653738677563375822e-02,-5.595282367818164848e-03
4.134996951443749291e-02,-2.248128026997035962e-03,-3.226003593624541393e-02
-6.689276593265147675e-02,4.141982118389614387e-02,-1.837543695607303171e-02
-4.840201736699584201e-02,-1.869255223094290486e-02,-3.896346157135117255e-02
5.985499728890070203e-02,-2.356992719140624942e-02,-5.416839028584221477e-02
2.260176329670676026e-02,7.663144341914317204e-02,3.591861725026368468e-02
-7.918173795950973759e-02,1.158594343353052530e-01,1.888751107810964988e-02
-3.744461981435587283e-02,-2.074814692623579843e-02,1.023275220123046449e-03
-6.089732192661047316e-02,-1.215215613421467876e-03,-6.683638766332544723e-02
-4.550746646062274470e-03,3.105327536808656641e-02,1.264559821770617487e-01
-2.837256129162240778e-02,-3.864087662531805190e-02,1.648023234296244061e-02
-2.738806604431423541e-02,1.987538459447308822e-03,4.093573921703544090e-04
-6.406192088804292528e-02,-8.905137862803670992e-03,-2.299898361468571267e-02
-9.764167565068414614e-03,-5.141554025846727105e-02,2.731573529204181505e-03
2.306876639907683504e-02,-4.382868410889453198e-02,-4.155858899487971381e-02
-1.147499376250798704e-03,6.050506327589803834e-02,-8.554393152923969474e-04
3.277762819707025904e-02,-1.931209099196436879e-02,5.188456750015803254e-02
4.833150524775037954e-02,6.836546205461289938e-02,5.016600214502182215e-02
4.354307820932962203e-02,-2.351423041322800445e-02,-3.029642984869676883e-02
1.495180961535034873e-02,-7.432978790870709007e-02,-1.657751026738366398e-02
2.158940263973076548e-02,-8.668075866656334283e-02,2.532105955787793128e-02
1.102956019438821600e-01,2.530320963760136418e-02,-1.627773766783020479e-02
-4.205248611170734480e-02,-1.072648232765557874e-02,1.510105230398387953e-03
-4.044787343655539130e-02,8.487181685295643041e-03,2.763835789256749789e-02
4.281493529926588132e-02,5.070304507412901063e-03,-1.143685774253515308e-02
-6.820043590524382804e-02,2.099943603092015165e-02,1.103852938743537376e-02
-1.152781102008360453e-01,2.722389878580569814e-02,3.968801133903324119e-02
3.832226475948930650e-02,8.376131859145742597e-03,5.781046518325501371e-02
-5.948258103948919455e-03,2.844947058670417930e-02,-2.838507306142761324e-02
7.030707010353882958e-02,2.191162003696204424e-02,-5.716857590111225351e-02
-7.300405900427085759e-02,-2.451774911055900827e-02,-1.319094421694960891e-02
-4.285058748774987769e-02,3.839539314660431191e-02,1.665748159113701696e-03
-2.335538900802286433e-02,-1.974393645402634182e-03,-8.114773906938370363e-02
6.953432814552539844e-03,9.200557236913804726e-02,8.505090856519915629e-03
4.552751433458754327e-02,2.040881840645569073e-02,9.142523020301643669e-03
2.514259682529695200e-02,1.312845434737119725e-02,3.204021372247088661e-02
9.951366318257165097e-03,-1.605186158515018151e-03,-5.726055741167631469e-02
-2.987705662039670529e-02,1.050767811372127353e-01,4.730598434199309588e-02
1.927859342917442355e-03,-1.562990175920731862e-04,1.627538263983875633e-02
4.971750800561881151e-02,1.756540770750656191e-02,3.803548544416247672e-03
-1.014314181935717894e-02,-6.790206388803822490e-02,-1.012406621293308363e-02
9.689892776128543241e-05,-6.165017543980762932e-02,-4.164032538597412653e-02
-6.915559458082745636e-02,5.500065912661667757e-03,5.853526896713837080e-02
2.531092318673192065e-02,-2.137849373597817612e-02,-3.062019095429520388e-02
1.441128242203115750e-02,-1.110953765046610552e-02,6.577751504694119566e-03
3.257768586678268762e-03,-1.329220181433506294e-02,-2.047333466744399519e-02
3.949102599541504804e-02,-1.747017291072555613e-03,5.808112293054177450e-02
-2.954314979987963247e-02,-5.717506492822650721e-02,5.365774082725136701e-02
-2.251771755779785611e-03,-3.596956451301063472e-03,-3.122232995854157950e-02
-4.895714518935416482e-02,1.037806199440341123e-02,1.376134821036499242e-02
-7.895315566523039563e-02,2.406840756292457847e-02,6.215543973738971162e-02
-3.593560974923826201e-02,-6.226239284812752108e-03,-6.451295071578599070e-03
-3.939861859248062342e-02,-4.530136790348503195e-02,7.619903597200340661e-02
-5.558041733516618649e-02,1.401391416546262335e-02,4.662849249025252663e-02
-3.206294362142871838e-03,1.637430116646214351e-02,6.434010683062263425e-02
3.272729621187831037e-03,1.517350280416495875e-02,-1.155188401195945437e-02
5.416866058034820741e-02,2.670010218178271028e-02,3.985114787918257739e-02
3.449267372765030953e-02,-3.833416001383727761e-02,-2.491622360276543255e-02
1.290751455781478062e-02,-4.731693136268631111e-02,3.249978427255551666e-02
-8.737987919352159516e-02,3.079103758338082655e-02,7.483301401753587358e-03
-7.378879368472404665e-02,8.607471252490759422e-03,9.176646659669301931e-02
-3.001768973907592564e-02,3.084533129462116441e-02,1.926433167335892677e-02
-1.222057570791752756e-02,-2.920452073338079477e-02,-3.052422736111948948e-02
-1.694198601126856857e-02,-1.858547503061978162e-02,-1.124239767924716665e-01
3.598028374572270760e-02,6.382387145774198745e-02,4.116586386979378259e-02
1.533175292816334190e-02,-4.207366105903102144e-02,-4.763800414512249504e-02
-2.245127784022326461e-02,-7.240989697067034062e-03,-1.420405340601858107e-02
-3.851399360897989066e-02,6.707894225136261379e-02,-5.667130404407269215e-03
5.037128605651535612e-02,3.338833882708685391e-02,-6.029784194416556997e-02
-3.333632095908527909e-02,-2.705474491340617918e-02,-5.013694623667877548e-02
3.731526755950452523e-02,4.988033660172103839e-02,1.631043951984780319e-02
3.338964147435507374e-02,2.206074179123386145e-02,1.525288908178929793e-02
-1.773978739337823962e-02,-7.452530000916637865e-02,-4.680517279152191651e-02
2.372995966562860271e-02,-6.064445767891345207e-02,-1.347071815065172505e-02
5.293193064058432373e-02,2.054414268657442019e-02,-1.253967228281507341e-02
4.397582407740369820e-02,-3.633898256729442555e-02,-2.330221246809764321e-02
-7.730367399660782908e-03,6.347686252447481969e-02,-2.366066178301348688e-02
-6.711889278977274664e-02,-2.821805225872868819e-02,1.253076158043469820e-02
-1.060473233331338597e-02,-4.970954784118368497e-02,4.519038446147449761e-02
-3.580241439367768536e-02,-8.906598835435203601e-03,3.977676530790950210e-02
-2.356242460396310370e-02,-1.196481680402340913e-03,5.750824615945047263e-02
-4.107681315621550255e-02,6.345076429070213575e-02,6.123495223839381385e-02
2.069997073950892788e-02,-1.055292481490342771e-02,3.794271878142294746e-02
4.853412911154896675e-02,9.082055063274863116e-03,-1.476220097728441795e-02
4.349114671533411275e-02,-2.443892983374881551e-03,1.245420945069613053e-02
-6.446662114526101328e-02,2.974007687488742363e-02,-5.944807492823852776e-03
-7.272733420715703223e-02,3.372367979354472939e-02,-1.293655688456879851e-02
1.620824194610938698e-02,6.518203083121519581e-02,-3.770345294764355926e-02
3.110230042044606624e-02,7.662650192066253196e-02,4.524675743025299152e-02
6.603097500864319250e-03,4.503997850341314758e-03,-6.244973114097589206e-02
6.885094952518147626e-02,1.858918640108587692e-02,3.062303771388207377e-02
1.297998105002335680e-02,-2.826091350048276149e-02,-9.383178444505004684e-03
8.441788224902600779e-02,7.799225645134677531e-02,1.833679367186245510e-02
-5.288002041629379091e-02,-3.157695771926401912e-02,-4.631779456330895745e-02
4.489160336238416649e-02,-5.687581573922245379e-03,9.975906833708282628e-03
6.729326371428370757e-02,3.930207905381578859e-04,-9.149245705832718956e-03
-1.710314055446466794e-02,5.235448154935164883e-02,-2.840204994272064673e-02
1.631075165229120549e-02,-1.241784785795663031e-02,-3.561250270955560598e-02
1.065460934466008237e-02,-1.436390545280535197e-02,2.349733266234393936e-02
-1.249591948877871658e-02,-5.899468213149848539e-02,7.119638060971364424e-02
1.550143266859318678e-02,6.443059247456930927e-02,-5.401963096919072671e-02
-4.357861258818045841e-02,-2.354048484970614266e-02,-5.733184753919409737e-02
4.955887711703314824e-02,-1.445661800155487002e-02,4.203486097146375000e-02
-9.659798359999088868e-02,-1.262739622619398795e-02,-1.041295650305594095e-01
-7.194309257307671124e-02,2.565462469390841641e-04,-1.396207697996309539e-02
-1.554967113261017733e-02,1.909850239167504640e-02,4.163608178570438190e-02
-2.279304987049415518e-02,-1.334305185832967543e-03,5.267830974521897636e-02
2.221283490075360093e-02,-5.418873010513352434e-02,8.755963383123779864e-02
1.118806427725656423e-02,7.089385361842295841e-03,1.917600291047479380e-02
5.228572988863318394e-03,-5.874964568092956238e-03,-1.283828112987269073e-02
3.905218483302845545e-02,7.843174584421942763e-02,4.267016996725695593e-02
-1.586921195270012824e-02,4.331786390304009221e-02,-8.001851749068893127e-02
4.595273150340553614e-02,-3.336976707042140292e-03,6.963511531683201508e-04
-1.510589149634741432e-02,1.855488310970177641e-04,-1.417971669570745538e-02
9.817301592176610765e-04,1.266747175247890343e-02,1.159112017223680284e-03
-5.888754587538565927e-03,-1.844996960613156864e-02,8.070458940507516457e-03
-1.278275818508087074e-02,-1.742807342767243098e-02,5.454462516971961272e-02
2.348418070051063594e-02,-3.724756799862451867e-02,1.027165516784637883e-01
-2.405236443578593480e-02,1.155869301365419766e-02,1.890607122481200580e-02
-3.539605655637943077e-02,-7.177790866844461527e-03,7.993429176074388909e-02
2.184971656051941033e-03,-2.458705128553823060e-02,1.840524367904814579e-02
-8.790576807723443284e-03,3.787923315481324382e-02,1.778652079706543113e-02
-2.312579987286618455e-02,1.139249875720959974e-02,-4.497245085858703195e-02
-9.035910591124086608e-03,7.310352377756348941e-02,-1.616162523251302163e-02
5.910255559383002788e-02,-2.460207327839573910e-02,2.180462994948003871e-02
2.788162007769441966e-02,-8.972138686653580511e-03,-4.099223635309451330e-02
-5.574441622800681284e-02,4.456030001553162867e-02,3.574659212235758304e-02
-9.464695680568381564e-03,1.483062585808699908e-02,-1.007273792876131092e-02
9.454273877735556997e-03,2.187468465598137179e-02,4.533885851963468175e-03
9.689381928674302424e-02,-1.578944448102219400e-02,-1.620763686374914695e-03
7.743647767391127756e-02,-9.810369918872562447e-03,3.115859388798217222e-02
1.664978513529984452e-02,-4.592962772455114889e-02,3.990149004012022438e-02
1.840985003204685666e-02,5.639662827909996262e-02,4.006629553083361495e-02
-4.314934370826341986e-02,9.296182977682465598e-02,3.157001626026095104e-02
2.047055158677779305e-02,1.907151508109901014e-02,-4.211690061038191740e-02
-4.920160801094643904e-02,-4.867604846499924698e-02,-2.387695026892144856e-02
-3.364773225958714309e-02,-4.289439894246024204e-02,-2.067140082862530676e-02
9.893578705440780538e-03,3.378453871485663507e-02,-4.448758196618708000e-02
3.223024750024805485e-02,1.630064333462415485e-02,-2.529628887549685567e-03
-6.594427595610577453e-02,7.378142086963403179e-02,-2.719610092787740942e-03
-3.652468392247486262e-02,-2.444367902469254256e-02,-3.022197538539530756e-02
5.853851172814377585e-02,-1.068617155917598281e-03,1.413512669656680383e-02
-8.502174547959807233e-03,7.839435473864696247e-02,1.493005270888106938e-02
7.173596859747032040e-02,9.934556478322026721e-04,6.378465777842041995e-02
-9.500965304250364590e-03,1.681894807400999975e-02,-1.108539443611279533e-02
4.621416121296589852e-02,-7.665720522570250439e-02,3.733660321846691416e-02
-6.115219193733673064e-03,-4.019706442427099097e-02,-7.147026484723902062e-02
-1.076471496739622447e-01,5.777386196892040672e-03,4.897264924370112182e-02
2.306867759747962404e-02,-9.805772984858131605e-04,-2.266851129401176515e-02
1.281868883920975546e-02,-3.112611798292591256e-02,2.987394143820362377e-02
-4.894071795054625446e-02,5.640593035080234893e-03,2.408185445765259960e-02
-2.545067743242510061e-02,1.204716917671809495e-02,-1.409283032903188050e-02
-1.938571895831867412e-02,1.764227486860587765e-02,1.367229516783243122e-02
3.424840083644396099e-02,5.055515981103404083e-02,-1.182560342252148185e-02
3.666949019179589070e-02,2.557061914326092672e-02,-1.129864155252224443e-03
2.056676806013221087e-02,-4.081744323749205566e-02,-4.534933287933003154e-02
3.300132569127604137e-02,1.257835678590447231e-02,-1.011711309587924081e-02
9.702390014249125073e-04,1.110102096043818626e-01,5.214396613358023708e-03
3.989495579519043711e-02,-1.048858892340299130e-02,2.050979813600548735e-02
1.438092063161489596e-02,-9.080009128309805833e-02,7.275282356859091859e-02
2.226860985113744001e-02,-4.641990265131789445e-02,-3.836141336242744615e-02
-3.213930773073314390e-03,-2.462088910823812676e-02,2.646265202507023725e-02
2.252001547210796817e-02,-5.527671748784862560e-02,-5.226403771885096416e-02
-6.541390253207758632e-02,-4.556541227555303136e-02,-8.636876214024098719e-02
4.532092261186842358e-02,1.823263049266945005e-02,-7.513485984394174984e-03
6.518703242004959299e-03,-6.083821514862455078e-04,-3.232017927423450759e-02
2.780404875439381612e-02,-9.788039518387231519e-02,-1.916713568404409401e-02
1.072577356730648745e-01,1.190575852116606929e-02,7.350785211795383967e-02
1.087293546822074540e-02,2.915757756901671618e-02,4.245715272265087464e-02
-1.702981271748783137e-02,-5.106512832511655650e-03,3.092863596952050848e-02
6.396062801042129431e-02,-4.216346711379533041e-02,-3.806252898913964344e-02
2.105113911996430234e-02,-1.964878206387319845e-02,-2.197794472763123924e-02
-1.254325916035392043e-02,-1.370735750440771339e-02,-6.571942004194665336e-03
1.991300472047649595e-02,-2.534589449665648406e-02,1.844615451751041926e-02
1.673375473471576044e-02,5.442313315818771147e-02,3.532918703937033833e-02
6.271245747123377345e-02,-1.084493592485456237e-01,5.389274981579891474e-03
1.276062036881982610e-03,2.410690359427912141e-02,5.602790811857735753e-02
-5.686425506757310233e-02,-8.248833663347805711e-02,4.092911853553542895e-02
5.480184225974176621e-02,1.391573332142970708e-02,3.969082955877486357e-02
-1.860857294963290170e-03,6.243411662498773995e-02,-1.622493258615483394e-02
-3.123528242941761221e-02,-1.043183834316441239e-02,-2.452093626570060400e-02
-7.383293566967955024e-02,-4.625346176726783526e-02,-2.349389662840194529e-02
-8.240237674002512738e-03,-4.229750804937121994e-02,-9.822179243764710133e-02
5.322825532052213177e-02,-1.915328868090125647e-02,-1.139202130966489486e-02
-1.918288460817469190e-02,-1.209088712173080060e-01,3.606284303828501125e-02
3.471707402670606846e-02,-1.003509179118862588e-01,-2.683498749470064962e-02
5.226400456761796931e-02,3.103023837084890879e-02,-4.649629830868276699e-03
1.239494046527276835e-02,4.070857751521527595e-02,-7.346460736232123846e-03
3.739242963049003304e-02,4.422600630554429646e-02,4.253675488788552441e-04
9.112991369869587188e-03,-9.114299072119597112e-02,7.766486489310497898e-02
2.516548274796366180e-03,-1.013305830018906492e-02,3.479742087231230824e-02
5.950230980976055351e-02,6.482763047242270926e-02,2.743372793704435333e-02
1.840968379062055474e-02,4.709653064950523882e-02,-1.076610709904022092e-02
-8.712010391135812173e-03,-1.431732298000871605e-03,2.640036248912751987e-02
1.744630478572491844e-02,3.168640625039564895e-02,3.519109217231542082e-03
-5.859535724461163025e-02,6.194737848162467850e-03,7.269036958696357964e-02
-1.470179065145336972e-02,-5.597034671758325912e-03,-6.558100928362449455e-02
-6.851352151372705479e-02,3.937920005216882791e-02,1.654722461009203865e-02
1.907560151213485294e-02,-1.237114514755271273e-03,6.260943417523634306e-03
-2.036855701347984118e-02,2.499284806324083771e-02,4.982100624501879620e-03
-7.950854871951714212e-03,-1.625349818513744868e-02,-3.171012217924889035e-03
-2.430242370568415355e-02,-2.978628056575834473e-02,-1.195916924390402238e-02
-4.932564875090315187e-02,1.858439072067179579e-02,1.085420426083767015e-01
2.154289093998982066e-02,-1.984294889735813139e-02,-5.098690693118843043e-02
-9.406296496022684139e-02,-1.139303225683700174e-03,3.871115044841456215e-02
-7.042928475079721085e-02,4.697681422466632589e-02,-3.213011976010968912e-02
-1.276369162908409273e-03,-2.630328283959314922e-02,6.854313637605431719e-02
-2.555829370374863158e-02,-3.143954385564112775e-02,-5.512343184039381061e-02
3.030442231126475542e-03,-3.371414856656979389e-03,4.894262076040722248e-03
8.375341212477191780e-03,-1.880454903477854489e-02,2.874781648152541225e-02
-3.730929147423549079e-03,5.067597930989455740e-03,-5.255293737393327419e-02
2.522852898273261757e-02,8.515386321696519212e-02,3.926641102070180245e-02
-1.357174035384564430e-02,3.285608022542180120e-03,-2.738182294121660823e-02
9.411516696664026793e-02,-4.497900001452699581e-02,1.014157555771541368e-02
2.368906657291909232e-02,6.179185664606957895e-02,1.459359359979961468e-02
2.068122398288253436e-02,-1.960984337435512856e-02,5.671965019831023275e-03
3.053587840921116389e-02,4.694822561462368149e-02,-8.169851195659373622e-02
-5.167506372447603497e-02,-6.531784557375176770e-02,-1.104408909490370988e-02
1.050258713663629849e-02,2.915200202669573221e-02,7.082605135350557302e-02
8.304774526881797403e-02,-8.915312441006548877e-03,-2.715836099825324340e-02
-7.719031175055950100e-02,-2.695478183140993800e-02,5.101047576781145461e-03
-2.723082279314957208e-02,3.739703503875280860e-02,3.419603651361097924e-02
1.768796331366211810e-02,3.634816991550272186e-02,1.523189134280217572e-01
7.275351099511342956e-02,-2.424995214688228928e-02,6.795983649024008380e-03
4.447761923708100362e-02,-5.750143643945355466e-03,-4.518268393072040479e-02
-7.391747930589714910e-02,-3.500778589006518088e-02,1.096519393759703108e-02
4.181821948363825120e-02,5.301345507394762679e-02,1.145839592742233827e-03
2.901196901694363950e-02,1.118618815050368212e-02,6.249035383838068974e-03
3.491199639462188448e-02,-3.470078970678296820e-02,-3.551289788894897853e-02
-2.119086233448765153e-03,3.360651812820269341e-02,5.021353374416726023e-02
5.479622516903819712e-02,1.785701951653926450e-02,-8.638498139179627338e-04
-4.087536914200707444e-02,-1.095153893629702453e-02,-7.239268380890226395e-02
5.925834660912636387e-02,-3.209872784761394482e-02,-5.486632611969489287e-02
2.480128505077109496e-02,-2.630829498260923646e-02,4.838925689566445087e-02
4.464779089356922352e-03,-8.357190767287356326e-02,4.056565667453398971e-02
7.790300633851134776e-03,3.463584237162064400e-02,-1.297960093464554585e-02
-4.890448594275152022e-02,4.429403404033896777e-03,-6.125480575480367340e-03
-6.195356172211636397e-03,-4.326893781938284038e-04,1.408984030910142259e-02
3.404553447750836848e-02,1.523689282662763801e-02,1.225623839313090373e-02
3.534925156540365265e-02,-7.292233864849069491e-03,-1.035271127256391296e-02
5.086684124130206458e-02,-2.558154481039333003e-02,-1.238155986547033807e-02
-1.181811472763474001e-02,7.141507464070537270e-02,-3.515724956160004577e-02
3.691276847892408647e-02,-1.817017426477636824e-02,-3.717261444735088516e-02
1.488853883968701587e-02,-3.959730100562985737e-03,1.717086517149616146e-02
7.577325319469366098e-03,-2.584733218118012363e-02,-1.064434097820578760e-02
6.527753201958857998e-02,-6.128231789115054506e-02,1.945205072625744375e-03
-1.989366518940466691e-02,-3.437689204841853224e-02,5.089295689144963941e-02
-4.241876450542686472e-02,2.782732105713294889e-03,2.531838962213093722e-02
3.176133462054879508e-02,-1.271715633547530581e-02,2.593007952928268536e-02
6.978332114456072509e-05,3.175279600355293552e-02,-6.604398352035653619e-02
4.344216120801743658e-02,-3.388843826473728060e-02,-2.402187081517118128e-02
-8.418806212869032329e-03,-1.008013599806260527e-02,3.938790384847031911e-04
-3.926381348488326706e-02,5.207961240336105718e-02,-2.004186592380799176e-03
2.798515349861644894e-02,-1.182944774740107147e-01,5.924689197924958711e-02
6.481245061146809205e-02,6.773373767016260816e-02,-9.411514159221337494e-02
8.377388232500660586e-03,3.790166262116186763e-02,3.235279703651731259e-02
9.981815180179957545e-03,-4.469172661711069000e-02,-6.681753031311154535e-03
-2.365923834784186899e-02,1.851163231690503702e-02,-4.135437314162612038e-02
-7.374500906869398131e-03,1.791236072950838296e-02,-1.287192449918679767e-02
-7.743474839333812365e-02,5.440824796397587121e-03,1.472605682414031628e-02
3.134219659720803575e-02,-3.102167220612704612e-02,8.798472894348079165e-02
1.383491783260907930e-02,7.877435185030196019e-02,9.253800555720611415e-03
-1.795969537926522114e-02,-9.620298417506507882e-03,-6.718981229664632536e-03
3.422558050783969241e-02,-5.159146303530967592e-02,1.228193499660770738e-02
6.940791967985933397e-02,-2.997503359453054447e-02,-4.184652778344043894e-02
8.046794302576026903e-02,-8.675909746616796911e-03,3.892257022628002605e-02
5.966727251017095446e-02,-4.090965373076733969e-02,3.996257386855227994e-02
9.343578858855352024e-04,2.291421725776273885e-02,1.839624423802267011e-02
8.651734968335893575e-03,1.008214940810747556e-01,-3.020354723996687349e-02
-6.681058420981648982e-02,-1.663429073184125723e-02,1.747022700834006048e-03
2.860537076478717258e-02,5.450587943520595474e-02,5.579739812496728457e-02
3.095871124671491226e-02,-3.839114987116259980e-02,-2.893440280700440917e-02
3.181919355840719110e-02,2.837256814154540466e-02,2.031773264044363370e-02
8.718630635610750967e-02,-3.405231998718647596e-03,-4.675607479465947180e-02
-4.388266032137420371e-03,6.769844395620901178e-02,1.781039641675590673e-02
-3.795024136702796619e-02,-3.731487757784792553e-02,6.387649235263150038e-02
4.959075309235883716e-02,7.870937137692808616e-02,-8.921973476040583051e-02
-2.334106070305567646e-02,2.234131028008982164e-03,-2.443223065806685718e-02
1.106578580146303642e-02,-9.048908204759729609e-03,-4.085533590931637871e-02
-1.282846453105332754e-02,7.758411138366447420e-03,-6.886776320801522855e-02
3.143543793012909537e-02,2.077356956179885264e-02,-4.072095328486918103e-02
-1.958022735721834731e-02,9.391129688397052699e-03,-5.894484724952760157e-02
4.413562706485194692e-02,-6.505647514956541810e-02,2.344186578333096529e-02
-1.472968068536810969e-02,-1.195762393141345040e-02,-2.471906004415958327e-02
-2.801871673758723341e-02,1.379820991354578467e-02,1.119449887383684554e-02
3.779395656904195600e-02,-1.093594511911097529e-02,-5.782824502522640464e-03
-9.095157429458584561e-03,2.355664345760203823e-02,-5.507006882977245193e-02
-7.903321639728346296e-03,-5.836731673279785607e-03,3.316977346980575642e-02
2.359838946994325531e-02,-3.270304859621202265e-02,5.206210603241846063e-02
-2.796527301496768564e-04,-3.077254583010906666e-03,-8.674889649412275555e-03
-5.488074584060966161e-03,-2.244319571860626736e-02,6.598634438235097439e-03
1.272203886272828093e-02,5.255323032414578599e-02,5.944551037244028002e-02
-2.552410750561453362e-02,3.326832728669443847e-03,-3.611434479942106368e-02
2.224324432749754527e-02,-5.990989426238013671e-02,1.565457142059824627e-02
2.699680890336514025e-02,-3.192571243773474881e-03,-4.235149901304866016e-02
1.282850634662802873e-03,2.817380211123518552e-02,-7.765700193323996081e-02
-3.124547110302533515e-02,8.202572951932853712e-03,3.645537726372406577e-03
-4.069927048369695322e-02,-3.228434369578251327e-03,1.036953715948638922e-02
3.405454515460088621e-02,-3.195719914867895667e-02,-6.671996917035265783e-03
4.832921130164574697e-02,-4.499683426691034743e-02,5.254188452350992689e-02
-2.126235568372112587e-03,5.597295331043576627e-02,-1.768990684487792980e-02
3.150507802033033350e-02,-7.655323210719595928e-02,-1.549317775158592925e-02
-2.136046782309479822e-02,1.027345219082187802e-02,5.648233144207068235e-02
1.895930606881997662e-03,-5.295857355959765478e-02,-5.472468110618604331e-02
-2.070968954574649648e-02,-1.194988689181034243e-02,-1.537326896026407035e-02
6.027596352031680538e-02,-3.026647696801587281e-02,-8.631269205211992979e-02
9.277031813334819452e-03,-3.839173506007987485e-02,6.579778016026618936e-02
-5.038813198997350862e-02,-3.538340852962755523e-02,-6.489390542540706200e-03
8.617390664660729005e-02,-1.537016877735975298e-02,4.527951198379114028e-02
-1.042840509120410847e-02,2.536357587935910915e-02,-3.310983731467215252e-02
-2.004538011909770198e-02,7.576690765686475669e-03,-1.437846436702133919e-02
3.806592085418233906e-02,-9.018837494952267053e-02,5.325596560059071838e-02
-4.148244696252013919e-02,5.698439275548879135e-02,1.600316399058855643e-02
-2.786399857472591363e-02,8.350239765676177595e-02,-1.487127625407706939e-03
7.712920431447516101e-02,3.314802222625959274e-03,-3.331704443696559964e-02
-6.658439151153096487e-03,-4.681101024946825867e-02,5.127592525321167903e-03
-1.237694596639669041e-02,1.919291915192464573e-02,7.406139340042540431e-02
2.028725943630920250e-03,5.828838981395109697e-02,-1.569485377714902735e-02
3.573303394441139369e-02,1.013893752307465541e-02,-4.053175725498682491e-02
-6.058921728860137967e-02,4.600646679480774326e-02,-2.288547261282765019e-02
-6.650332594331332531e-03,-3.197197873234264298e-02,2.298278379157431273e-02
-1.665484236889944875e-02,2.744624745583455760e-02,4.924175587468974935e-02
4.468241806940452532e-02,-3.266331272386230247e-03,-8.088820837902131744e-02
-1.275233512442432333e-02,6.110908255051932881e-04,-2.292237632983355755e-02
-6.814022469979173942e-03,-3.105744887143944630e-02,4.544211220766670827e-03
4.632402184473383838e-02,3.462041475313797079e-02,-8.258285654301741885e-03
-2.959425336467178327e-02,5.102096543741103246e-02,-3.579963046795094084e-02
4.232152303773235869e-02,-3.943568892924773084e-02,-2.230350000813530534e-02
-2.431435856553538707e-02,-6.827650279863876903e-02,1.414948929774292570e-03
-5.523476050043699820e-02,7.827478803546025765e-02,-1.060156500032417293e-01
-7.251491516581880237e-02,2.167110418917134358e-03,-6.153499268816684659e-02
-8.968169814287185737e-02,2.498987934331197217e-02,1.092113719958749543e-03
-1.593543540275525056e-02,6.091264981616679314e-03,-3.186954432143410988e-03
1.654445177563463806e-02,5.932268584831889430e-02,-1.168580609810732258e-02
-3.511957226844290847e-02,4.516386429660558532e-02,-4.207532795558210394e-03
-1.949559127686034329e-02,-4.008955583138629208e-02,-1.718565124454875595e-02
2.775721687250043423e-02,-3.831125725333411891e-02,-4.064225233292535072e-02
-5.400121183803144494e-03,3.379153012477168361e-03,9.848554651671766191e-02
-2.679970053301161670e-02,-1.574688075771104451e-02,-2.300171808059935444e-02
-6.457759949972302627e-03,-4.016032952681285878e-02,6.373631002414052726e-02
6.559008201016554296e-02,5.102228412844548450e-02,7.523793039584172719e-03
-2.319914172849159989e-02,-5.129777799114536123e-03,-5.872847799854266637e-02
-5.005545997484522197e-02,-8.547055665513851944e-03,6.459068279058519102e-02
-3.131541391249541284e-02,1.253941677612848207e-02,-4.509118893037299819e-02
2.489045987139214960e-02,2.309089797670253394e-02,5.633844535370043788e-02
-1.147399799454893420e-02,8.926754129087161038e-02,9.780409058015178403e-02
3.742639740324224529e-02,2.147673556899492350e-03,6.675833326408496526e-02
4.241220799343747849e-02,2.275053633629725916e-02,-2.920753731163019604e-02
-1.533084847282057545e-02,-3.262806931017591533e-02,1.339381086640495204e-02
-3.890646034325351971e-02,-1.751352654180259039e-02,-3.542286234247327831e-02
-1.718438351888942200e-02,6.723357587894633614e-02,8.081542982316919366e-03
-6.217654893991594878e-02,2.690234906899305334e-02,-5.240558555703109939e-02
-3.016927805623717887e-02,1.211541136522973211e-01,-1.656300755805909311e-02
1.726225651691637789e-02,1.331652708488089039e-02,-8.074923462404146046e-02
1.307805041293695018e-03,-8.951635643402120965e-03,4.285810839531642435e-02
1.080248058276702360e-02,1.004960740295965035e-02,2.421265808966156438e-02
2.635789200689653625e-02,-1.504164402995841754e-02,-4.007839676306744481e-02
3.587299378950285084e-02,-4.272043747788555057e-02,5.550918097037207954e-02
-2.057578067692826182e-02,-4.362366114052232402e-02,4.840469882601731305e-02
-7.966719399938694546e-02,-6.542596899458692772e-02,7.881944002732925447e-02
-3.956157626755207185e-02,-1.271862564990034698e-03,-7.856719361389789824e-02
6.564424124454348863e-03,-4.589583622120740718e-03,-3.083273229212528388e-02
-2.712019764211459974e-02,5.191299387316820196e-02,-3.138981581775294322e-02
4.125023748145219965e-02,-6.582754915212415958e-02,-3.411035129088914319e-02
7.189580304694044577e-02,-6.958558950311324529e-03,4.118139079450319068e-02
4.070108738777454549e-02,-4.742008921261345322e-02,-1.348964776443153241e-02
-6.395267017566018397e-02,1.988448123048649346e-02,-5.538718888820767100e-02
1.648372271544463726e-03,-4.426628012006224300e-02,-2.119460266149720412e-02
-2.220732861972647340e-02,-1.028780709287971037e-02,1.211736512077156436e-01
4.140068407064380687e-03,8.042673006649528333e-02,-8.110230923615269205e-02
-1.106607502219232042e-01,1.711212039754768030e-02,-1.361142939697360804e-02
5.016111103794557158e-02,-7.226525461914967696e-02,3.995143950118494602e-02
-9.134030174332121235e-03,2.835146619416409677e-02,-1.595845763402969214e-02
2.365725827137958592e-02,-8.794203955657063643e-02,3.473452228989629131e-02
-2.860841649764190101e-02,7.610273610731232811e-03,2.748977982160576497e-02
5.037996688574106902e-02,4.935099864998790387e-02,-2.078758052439852455e-02
8.816682179423510068e-03,-4.052414399854166460e-02,-3.144128044590040194e-02
4.734850863509366264e-02,-3.804515633879727854e-02,7.151827150730673266e-02
2.031112186212518517e-02,2.176274758637734494e-02,-9.696454571229352198e-03
6.493234384548833560e-02,1.243259683023797925e-03,-5.053102272730577993e-02
1.703568560987273398e-02,-1.780423732682485591e-02,4.091689513512325460e-02
2.294247298177045161e-02,-2.709374021533712817e-02,-3.108600888041624516e-02
3.102113789586253764e-02,-9.015914598916914199e-03,-5.690919265783594971e-02
-5.795095316183885605e-03,-5.606950387652645529e-02,2.271675393001697935e-02
-1.813438975247325807e-02,-1.791913711906277865e-02,-6.050267402404218469e-04
2.331612052834766691e-02,-1.341169698719303811e-02,5.730183152819029457e-02
-5.369139686563916686e-02,5.534902715132117984e-02,-5.604733533158792746e-02
-1.428711244756722051e-02,-8.489311103586768756e-03,4.231117048580559231e-02
6.299843878416654108e-02,-7.594547191182824016e-03,4.635250626576919997e-02
1.908164460149291627e-02,-6.990674489781817380e-02,-4.462631649523533806e-02
-3.433599797663548781e-02,4.680132049819376097e-03,5.374362208875205216e-02
-7.739192228716915622e-04,-3.710950411846791058e-02,1.763030751474040786e-02
-8.883185718376583953e-03,-7.338345115351543879e-02,5.528904804457036859e-03
-1.073155835751195275e-02,-4.441002040817686181e-02,2.177680979010293907e-02
8.091210247899289359e-03,3.429987578049629310e-02,4.101473966371676355e-02
-3.187083845042359281e-02,9.792959659838437747e-02,1.367649444062006905e-02
-2.500750177853342665e-02,-4.670161376710011553e-02,1.878833263209469520e-03
-1.477546835753898750e-03,6.013254391586401321e-03,-1.732088721056926350e-02
5.375048699541863130e-03,4.600353924504017866e-02,-2.488098207455435862e-03
3.741949677715616322e-03,-3.852823610550749206e-02,2.020915167518207850e-02
-2.050804911791810625e-02,3.851678841179860535e-02,-3.751257374088041996e-02
-4.785573961218613642e-02,-6.183441764996460560e-02,2.075306000863000669e-02
4.658720724721856360e-02,-2.765768116172857404e-03,-2.981776047331709256e-02
-4.897623052980315528e-02,-8.909229224578246037e-03,7.659784391712946838e-02
5.339860415212212968e-02,-7.218762837971576252e-02,8.537111820316344371e-03
-3.306709360357026894e-02,-1.824478148188923496e-02,4.138644028839712913e-02
3.110794138792518163e-02,-7.080619561584827922e-03,-4.067930632724472279e-02
8.089538638403814472e-03,-1.214109963144611309e-02,-6.418062923791227614e-02
5.841627742437383031e-02,3.596649226606098843e-02,-1.505449961841383820e-02
5.047714097562092800e-02,-1.132357776784812323e-02,-1.013387951236295430e-02
9.414287603360724233e-02,-8.662821406758912379e-03,-8.196798917007842855e-03
-1.938309224490379623e-02,3.596512826403291258e-02,1.109546453859392399e-02
5.334985546121964045e-02,1.927781805401394550e-05,5.293001757970936319e-03
2.644158825669761480e-03,-3.250537595304504174e-02,-9.039486240496743619e-04
7.784370276077511031e-02,2.582350094865159314e-03,2.135769219765068158e-02
-4.945092797301837290e-02,5.006121068488000869e-02,-2.958033708582024496e-02
1.254864523489314550e-02,2.023570751143838299e-04,-1.366573430549299605e-02
2.138951278533256228e-02,-3.647956931902220264e-03,-4.699954178043101033e-02
2.889634661244802616e-02,1.976984849483323300e-02,4.478339888972499017e-02
8.012028923101773004e-02,-4.228260204046327408e-02,-4.493655085816005389e-03
4.878250762646739458e-02,-1.591206149447059806e-02,-1.782010066976740317e-02
5.885658088041644670e-02,-6.253330401218652745e-02,4.064702165366916586e-02
4.980851225436711688e-02,4.740917629025457464e-02,-3.838512763234229463e-02
5.827157246572019222e-02,-8.715010076613920534e-03,2.727342724883168382e-02
-4.681224914287863970e-02,1.950697375993961161e-02,-4.922501194380213968e-02
1.728329888981728485e-02,-6.990617149864165533e-03,2.904321832846252366e-02
-2.690962262275023789e-02,-6.781095362847568836e-03,1.019255388239529020e-01
-4.666643876754909825e-02,5.224374669229544382e-02,-4.538253275043700741e-02
-3.418569225217316793e-03,-2.375023225467920093e-02,3.257040689227987118e-02
-1.250064169615854037e-02,2.874889220316749830e-02,-1.600886096427490274e-02
-4.235468882564148545e-03,-4.035246153976362188e-02,-1.707822485635767870e-02
-1.052461145125373936e-03,-3.383558370727695122e-03,5.324706586235566225e-02
-1.503730044282840933e-02,5.041512230706324260e-02,2.192235259187539503e-02
-1.737177270187681768e-02,1.410122612582172946e-02,-4.756350694864600742e-02
1.096358394752507820e-02,3.800920077504473665e-02,-1.301972878378561058e-02
-1.451589731106345260e-02,1.414475076735902809e-02,-5.736503998507776203e-02
-2.181647581933376587e-03,-4.415890832846246228e-02,-4.008930456088351246e-02
2.253058057050440557e-02,-7.310969050574022896e-03,-2.621870836871112442e-02
4.222336055908920433e-04,-5.936407117633375058e-02,-8.172767591729535042e-02
8.831480270409401701e-02,-1.279575647787331918e-02,6.444415862380783316e-03
-1.071499528854605310e-02,5.219919347980130075e-02,-7.190472771417115438e-02
-8.879911033291931766e-02,-6.625768482034226532e-03,1.554816898435172103e-02
3.390851045688645510e-02,-3.715936098722624065e-02,4.546849717677323155e-02
1.431710286936853718e-03,-2.207444619591017801e-02,2.361668717074892274e-02
2.997228676897232061e-02,7.518861082692913922e-02,2.843555729096462672e-03
-8.922082421112313699e-02,1.520680641954843398e-03,3.127007341260841511e-02
7.716119776467345731e-03,-3.430200465384359090e-03,5.862355445137579918e-02
2.364593653280306924e-03,-6.170374600657019737e-04,2.816739250503283790e-02
-5.338186276667285929e-02,-5.266540320735068476e-02,-7.395452445271445858e-03
-6.614905087718953025e-02,-5.187015675002356468e-02,3.854149465925615220e-02
-4.015902599862261613e-02,-6.496829906159527768e-02,3.489129238849274228e-02
7.200884264586010497e-02,5.469028174020342664e-02,-2.344967837287406653e-02
-2.537092570188425461e-02,-2.088684138311897899e-03,2.388850433134764861e-02
2.494906781204211249e-02,-3.010146632772275205e-02,6.332143276424201384e-02
-1.685625968842154390e-02,3.141327918439787079e-03,-3.250720864483643002e-02
4.910870679462340897e-03,-1.386902860965334369e-02,-3.781218454746639729e-02
-7.110074692143775188e-02,4.388279444397991114e-02,-7.132813090750766971e-02
-1.334348586089376641e-02,-3.600179059956592348e-02,3.610764156003815062e-02
2.929720388758703942e-02,-6.363414259778205073e-02,5.912324496631479048e-02
-7.316860201616462445e-02,1.011876699707340080e-02,4.027495624712311428e-02
-2.302138195457117953e-03,-2.620746359061790556e-02,-7.288026091546151441e-02
6.662383646212247101e-02,8.192029079916238188e-02,5.103091405815572690e-02
-4.572196545115200794e-02,-1.369567257460321819e-02,-2.263362221611079500e-02
8.906749784926816516e-02,5.664030098794177459e-02,5.157041005067167921e-02
1.012508063773719276e-02,-8.784997444792320932e-04,-2.075696897584154016e-02
-1.628413019999380013e-02,6.846935274362708074e-03,-2.885297742931625109e-02
2.100582622614132616e-02,2.248117623714255414e-02,-5.001001719389627787e-02
-4.407380885635325818e-02,6.550205135671521676e-03,-5.811672007020042899e-03
5.112639193099273102e-03,8.271776739676155177e-03,4.832118579441473799e-02
-7.432225567742155141e-03,6.224739575827041398e-03,3.443524519317035099e-02
-1.640178660440878150e-02,-5.745206706287706369e-03,-2.297908043641052125e-02
-1.470621101076300535e-02,3.360685065981362102e-02,4.385522896127947573e-02
2.375598214366119246e-02,1.019345174810298016e-01,-4.944493341560265987e-02
3.782916949044960123e-03,2.432128351248849171e-02,1.921769475792618059e-02
-4.795156281934701351e-03,6.498392240828992916e-02,2.314872446599575834e-02
1.610702009535681586e-02,-5.308860409241662748e-02,-1.701796879903076307e-02
-1.049504759028589349e-02,4.680054286132874497e-02,2.945228814807742193e-02
5.065143855286095842e-02,9.343016673235577524e-03,1.346808827327740897e-02
8.760128429683014528e-02,-6.319135794384547755e-02,-4.903735117884945940e-03
8.937930178890593491e-03,-6.923986224622345753e-02,2.617468691878132442e-02
3.406263670723403553e-03,-2.447793192439332022e-03,5.715296018945594143e-03
-2.426144603456553694e-02,-5.037048214853709349e-02,-1.336958596336459970e-02
-1.090504865928589907e-04,-1.348097437264758613e-01,4.468183351425405320e-02
-1.011511159366647317e-02,-1.134933451498124773e-02,-1.192989159741369015e-01
-1.251042449002643699e-02,6.456611178384696892e-02,-9.578358106639672798e-02
-1.610596577971875470e-02,2.957809915695367234e-02,1.200652433410574760e-02
-8.151659841797453954e-02,4.708212055926380701e-02,-8.298635147701657888e-02
-1.408897827611349171e-02,-5.437261782677770341e-03,-5.588678843335246477e-02
1.717577422679507143e-03,-2.816471824936447876e-02,6.578564593357258579e-03
2.992420559974002733e-02,-8.459364993070286193e-03,1.878531153323390393e-02
6.502506741431542114e-02,-1.364727779650981403e-02,7.816093099495359520e-02
1.777831547801830836e-02,5.801641379446846949e-03,3.333555941689575475e-02
4.559094657576243798e-02,1.557006132222485233e-02,5.836327408307747516e-02
-2.495570346593528610e-02,2.856385154527570774e-02,-1.910084114399015348e-02
4.172722263957660827e-02,-5.689441089417008462e-03,-5.148123934487377346e-02
-3.285715589904909893e-04,3.697949242979539641e-02,2.452139543596628876e-02
-3.804203115322669221e-02,-1.354464168028258683e-02,2.825837261481716628e-02
2.830741133787017041e-02,1.488458469137536044e-01,2.734600637744476377e-04
1.516350216313748674e-02,-3.832078374831780765e-02,5.448763052341520224e-02
-1.806418868643497669e-02,5.608493572523313986e-02,-1.113807387470314159e-02
-1.206820045836619337e-01,-1.635525763763038404e-02,-9.104536908696706302e-03
6.043780654985915490e-02,5.779230440649037875e-02,3.510355098486546421e-02
-4.034525776019666499e-02,-1.170328243898851803e-02,4.183623247741035528e-02
-7.612278760535463873e-02,-3.383077214711246311e-02,5.451445626209217021e-02
7.408256063799356639e-03,1.917670853037672235e-02,-6.144040596124360210e-02
-1.323017297231614438e-02,4.430355463646736859e-03,-4.225671031161039315e-02
6.540169567022861841e-02,-2.888051593475175760e-02,-5.097400451513527109e-02
-3.308597739130657214e-03,7.886221850956923185e-02,1.457952873236213059e-02
-5.973754966576003654e-03,1.263941859188281308e-02,-9.640517343528934302e-02
-1.624243103145177683e-02,4.217950264189038179e-02,-9.598010029607412230e-02
8.034380217021441783e-02,3.018454663358481962e-02,3.938649260512997602e-02
2.944024299942352152e-02,-4.154093551100031950e-02,4.838502081963958618e-02
7.662077058618069376e-03,-3.762178280588522172e-03,-6.460162821300876462e-03
1.150409356676759115e-02,2.909519538624984886e-02,-6.023511505900180918e-02
-2.148236612610513602e-02,3.959981588548093512e-02,-2.179934856711092037e-02
1.124174067848844327e-01,-2.653600592526852639e-02,4.079648644191750245e-02
3.637738930632877093e-02,-7.880302868560555563e-03,3.427710534085290361e-02
-5.042944626451612011e-02,-1.947205618192539289e-02,5.059886820298865190e-02
-1.929322953020357057e-02,9.784205969185465201e-03,3.994890147780658443e-03
-2.778712489300682025e-03,2.526253795388775161e-02,-1.456224906682625567e-02
-5.199193268106892980e-03,1.813142034579792727e-02,3.550959474222476625e-02
-6.595158812361957834e-02,-7.413080001944771791e-02,1.786888139955147142e-02
3.253162903958289193e-02,6.267873944871452108e-02,-2.354790975271616599e-02
-4.333508048035374094e-03,-7.955571648507249460e-02,8.892304774690204527e-02
-3.972692913452481080e-03,3.990215181810732870e-02,2.295713283556274908e-02
2.908543748749510896e-02,4.678692045309197634e-02,-5.696483841595539888e-02
-1.162093483277569783e-01,2.557502157516472474e-02,-5.073360710751477487e-03
2.118854638389904357e-02,3.179930467494031937e-02,9.009998143098192636e-02
-6.984124487101919972e-03,1.632437720446770768e-02,2.054918679312264448e-02
3.677384589536255438e-02,-8.331108263210626474e-02,-2.094338397406601479e-02
-2.624565474248394953e-02,4.096228937175032392e-02,2.962787369104024401e-03
1.379184909994641065e-02,-3.461812678539927940e-02,3.816497791446011451e-02
2.619079931507725407e-03,-1.797180223880640720e-02,8.019025706543346510e-02
-2.079857529755292297e-02,-3.494103562020058756e-02,-1.924402782646302337e-02
-3.738397433886150867e-02,-7.653909787222520911e-02,-3.199442845842831451e-02
1.003295170961010507e-02,8.465652401088602161e-03,-2.734292234167529784e-02
1.859619224194733814e-02,1.290833551510754511e-02,-1.383269298510158077e-02
-5.404137945985710428e-02,1.469862815155928946e-02,-9.984801703608462472e-04
-2.411799168819042660e-02,6.002304179223567904e-02,1.387199396825648280e-02
2.961815252056147763e-02,3.048653695239611841e-02,9.621454679945965621e-03
-1.757699005861107847e-02,-1.739819839623278977e-02,-8.063818082654482591e-03
2.606139603469050450e-02,-1.668960553568139826e-02,1.958214394292465479e-02
5.441942070757080363e-02,1.864999041547892034e-02,8.356236880578199466e-02
-4.288283411088848751e-02,-6.182768524884409318e-03,-5.232677987932257517e-03
3.693499119232463573e-02,2.795338064106596410e-02,2.086805030835250235e-02
-1.451763500200888186e-02,-1.426658958908480664e-02,-2.751738543811020274e-02
3.125059159020307509e-02,5.391141434927065879e-02,-8.090412745467574773e-03
6.532939629677815552e-02,-1.032849003808499894e-01,-4.113300285101206127e-02
6.989462067009720447e-02,3.247974693625365478e-02,-6.676114871377732130e-02
-1.070228371884093532e-01,3.957824416470143158e-02,-1.801326829735394944e-02
-2.052963238710535029e-02,-8.374106037106503198e-02,-1.007006623512255172e-01
-2.681875462843220578e-02,-3.693301433859074584e-02,1.482891501404360983e-02
1.661778979539774853e-02,-3.940148109267489762e-02,1.917801045263524927e-03
-2.800415173556753887e-02,4.492359287854239686e-02,4.633645836370877541e-02
2.169032517327009260e-02,-1.186456337739001526e-01,8.111689330765252393e-02
-3.353600568791966527e-04,-6.201833197973524031e-02,-1.850670298484072274e-02
-1.791423122171214091e-02,2.645109281364833517e-02,-4.304921520577861815e-02
-4.453203510448588975e-02,-3.139951207541669120e-02,1.583382085904605149e-02
-1.014311857575693476e-02,-3.772014729886775941e-02,-3.896957452304932595e-02
-1.624909451998611531e-02,-7.878400142754543589e-02,1.877769617764530772e-03
3.343172504050589272e-02,-2.824514364153097104e-02,-3.170970098965031434e-03
-1.798556094670046568e-02,4.888987452203421430e-02,-1.377045262502146761e-02
3.285685591292740459e-02,-4.200423046059124227e-02,1.709241384230095542e-02
2.803563722825446608e-02,-1.624526300620242683e-02,-5.783646581088452455e-03
-8.011117153998785489e-02,5.007088513096627502e-03,9.576748066102806767e-02
-2.365522956107751242e-03,9.821409435677627350e-03,4.294117037755890154e-02
9.009465728673296536e-02,1.266162761430234852e-02,6.503135860945585822e-02
1.493295872975365819e-02,7.757543711538620115e-03,-1.556273888593814360e-02
1.562372761800901767e-02,4.421517763609919549e-02,2.645826673375510640e-02
2.674625582492039938e-02,4.328459226542014093e-02,-5.555812315104070864e-02
5.122675665767501690e-02,1.799635849224469689e-02,-8.029564857259753607e-02
-1.037545713967255936e-02,-1.070247822679246986e-02,-2.150632002423553263e-02
4.452239950277582514e-02,2.749883149670476548e-02,-3.127573981413563770e-02
-4.234723890155574905e-02,6.275528173752037420e-02,1.163016079998457561e-02
-3.310972840483794588e-02,-4.058442387269562551e-02,-3.226732585546278950e-03
3.981576486747417931e-02,-2.698696367325576287e-02,6.725166722191491808e-02
-4.428118936323338639e-02,-1.834960920046719082e-02,2.710392256147471299e-02
2.358311121184360898e-02,-3.186555634407723520e-02,-6.617915088148159167e-03
9.592425970127864410e-02,-5.039451262966750805e-02,-2.427359892526036872e-02
8.412875950137297179e-03,-7.165511562648070772e-03,4.396376720489580253e-02
1.077108591505651497e-01,-3.043816675003071029e-02,-1.880042944198631258e-02
-9.378045173998244416e-03,6.029956147377536768e-02,-4.818243011860291747e-02
4.658545262082527255e-02,2.192919182057258276e-02,1.171354592844878325e-03
6.901621380628859825e-02,8.259908658802209147e-02,9.617566031897303511e-03
-2.862133254238121913e-02,5.139042757229505404e-02,-5.516920014612958223e-02
3.064213673079347472e-02,4.629912110798532071e-02,-4.659650149544726505e-02
-2.438195452168604848e-03,-3.267941948379739919e-02,8.528989614922837317e-03
3.135868255782811153e-03,-2.879181009050929205e-02,-2.432056297297159608e-02
-5.346299033094860376e-02,8.468564603844287719e-02,-1.201801401816622768e-02
-1.095295094569833164e-02,2.221600906104470585e-02,5.772974146666388917e-02
3.237827071561808628e-02,8.696140119461968909e-02,6.496541438439515370e-03
-1.489816043319271664e-02,-3.058184440153627337e-02,8.282165919192577275e-02
2.660851110509434084e-02,5.078246127265728140e-03,3.780537577463904259e-02
8.478467425186379108e-03,-9.597944379902322021e-02,-2.423935374653365515e-03
1.189491793714107619e-02,-2.713926624802508528e-02,1.154354285870007601e-01
-5.674818546453792682e-03,-2.960020178095630963e-02,-9.929888257432172363e-03
-1.407949524264964260e-02,-1.817784945490934700e-03,4.721879812087976386e-02
-3.053150710561573083e-02,-1.988931279347041711e-02,4.184393130816216333e-02
-8.759972371991662718e-03,1.176317911641695801e-01,-2.061226684097778802e-02
-9.588846782672506494e-03,-5.956340275505446653e-03,6.705329590089650904e-02
5.381247366412144142e-03,-7.305860491158616687e-02,-1.913743476451677111e-02
-4.594182997739078463e-03,-3.614575521983310474e-02,9.891240324475063239e-02
6.779335899450021630e-02,2.411502917730080128e-03,2.273766496355928216e-02
2.077141171376630652e-02,3.868949701756699278e-02,3.198460616628242409e-02
-3.146075651040238647e-02,-5.497235288548642934e-02,-7.420676472844156546e-02
-1.056836483647417418e-01,2.606459065631238931e-03,5.731288376797366579e-02
-1.284271800684959330e-02,-4.953671973357139102e-02,5.968846117507163596e-03
-2.962539003431382406e-02,-2.973888629732928529e-02,-5.568353151568526671e-03
5.790872068339951440e-02,4.727537542146763305e-02,-1.877655480518207118e-02
-1.324633313431170314e-02,-4.169885249991802344e-03,2.043837971790699037e-02
-2.948332814779865488e-02,-2.204654622996327779e-02,-3.212142622512785973e-03
1.280081256308686355e-02,-9.940961500159698275e-03,2.881636925239677849e-02
8.835967986502590854e-02,3.154090104553985974e-02,2.862576166061876412e-02
-8.302044113421509774e-02,-4.902997454075616601e-02,5.637018962369990706e-03
-6.934657715872902251e-02,-1.135629516862792648e-02,4.651884476025965401e-03
-1.895142471385261040e-02,-9.801017277766056746e-02,-9.623140325386936311e-02
-4.660320501150385514e-02,-7.028762816445199846e-02,3.956721353953492060e-02
-5.361452615946915579e-02,-3.455381480788789067e-02,5.598345316375371444e-02
2.967325101140373678e-02,3.024363530340714451e-02,3.690827971791146075e-03
1.152418751261406193e-01,-1.119815320565898005e-02,4.146275290403347857e-02
-2.651644127234350015e-02,-6.587147597833151180e-02,3.653759626980664782e-02
-3.814398768934998407e-02,2.989092374056574394e-03,-2.174005152616926423e-02
-1.211563965474910833e-02,5.549589091603448522e-03,5.869167100989588354e-02
2.328931775268413759e-02,4.115841117804747151e-02,-2.518006140624730674e-02
-2.723557767700656232e-02,-1.733912252645449306e-02,-1.122363634820263897e-02
-5.612729591303022153e-02,-3.818691425673498979e-02,4.339379482840216573e-02
-3.497441933428316330e-02,-4.107029212055175738e-02,-7.795998642536142512e-03
2.118085274871498586e-02,-1.195271982747794087e-02,-2.767066881835511180e-02
-2.577131121922818235e-02,1.603943852080442697e-02,-4.295109154081694532e-03
-3.356080179353775755e-02,-4.915448900125252152e-02,-2.360617792869628903e-02
9.406666827156410365e-03,-2.872418119443755427e-02,-6.354796013546035183e-02
-1.748650523021499231e-02,-3.765994735930853349e-02,1.005140404090213054e-02
-1.176702536604407046e-01,-5.805520193801511769e-02,1.123343533077802298e-02
2.232243166745841861e-02,-1.968369202862050790e-02,1.029422239294127718e-02
5.065596193661581897e-02,-7.750093433166605449e-03,1.602956897392249919e-02
2.729401609628300668e-02,4.256208986508915049e-02,-1.330365070041683584e-02
-1.697124896746480399e-02,-1.719111915587482470e-02,-3.608391636135167835e-02
-6.124647811635402540e-03,-3.390779627812877395e-02,2.349147618535477391e-03
-2.518000511646031198e-02,-8.157760546475540178e-03,2.589057879758460343e-02
-1.955186418752281191e-02,3.245559515173842419e-02,-7.234828790059771864e-02
-7.368730189386861473e-02,5.749518741973749097e-02,-7.322153765804188807e-03
2.362745285759007899e-02,-2.161966724076557975e-02,-5.230163889236615765e-02
-6.660053328463186317e-02,-3.705059346173141671e-02,3.647634538881269067e-02
1.583002275796627917e-02,5.607526247912854311e-02,5.289922521800200991e-03
3.428253984598943205e-03,5.151101318308609622e-02,-2.222330974323681249e-02
-5.478917996598896972e-02,2.435893585792978100e-02,9.867799310349631425e-03
1.876584123127283954e-02,4.725691464775911427e-02,-8.789717722864115457e-02
-2.950331738157420738e-02,2.722252887666137475e-02,-3.186084214787993779e-02
3.357538599089780577e-03,1.068912960939972373e-01,2.595558864678381220e-02
-9.888552839970080055e-02,-3.753841386740422621e-03,-6.088426502847830296e-03
-7.444946891438324055e-02,6.852225870093808791e-02,2.826224386119482318e-02
-2.820142467087612386e-03,5.015426709214564072e-02,1.136176482285355081e-02
-6.482437396293125320e-02,8.562150585342186149e-02,-4.455177920111570711e-02
6.369438363125257130e-02,2.883900884460931582e-02,7.134108913030050986e-03
-1.085186542763472151e-01,-4.193681682501517426e-03,-2.381569401460859395e-02
-2.632617688469743658e-02,2.330293364566260808e-02,2.917071400578656257e-02
-2.024776994124163551e-02,-4.494529897540432833e-02,-1.120770022252286641e-01
-4.205637247255231137e-02,8.934611617306230380e-02,8.693495590017806182e-03
-4.878210193833461272e-02,5.761961166700822062e-02,8.946207293521340337e-03
-2.003591904635082001e-03,-3.962197732771102245e-03,3.753338100101258346e-02
-4.119162962040485293e-02,-5.133892811921282086e-03,-4.033722380700680704e-02
-3.664393726195690898e-02,-6.545719456658523339e-02,-3.766036372765539739e-03
-4.829836666552596997e-02,6.528515809010233817e-02,1.015721047552619423e-03
-3.644034203660500345e-03,3.917502308954019796e-02,-2.518615181126819882e-02
-2.148655523713355309e-04,4.544135149051266309e-02,-5.886622884947325524e-02
2.836435676659582530e-03,-7.117365771311709444e-02,-3.507247375271475148e-02
3.789714935983173882e-02,6.759198658772544444e-02,-3.988670951558440265e-03
2.930801219842006991e-02,7.164392872051279608e-03,4.439536382979199919e-02
-4.842369298963407342e-02,-4.214054422453206161e-02,1.839996983669298786e-02
1.577385402219007825e-03,-3.555618481005219135e-03,-2.857767063878974625e-02
3.136362339371829427e-02,-1.451746449821683313e-02,9.856983029651215922e-02
5.022762927576271928e-03,3.735480976978284434e-02,-2.699287375073023722e-03
-5.432089732933682164e-02,2.341553833863056853e-03,-4.786793299164043836e-02
-3.570788950465413752e-02,1.027374893985364690e-01,2.203424423735247592e-02
-1.518100693733289742e-02,1.388320061700850684e-02,-4.706145900788263892e-02
3.362199681353662123e-02,-4.607850201471723472e-02,-4.736974489994805887e-02
5.406285047078869532e-02,4.106219988935667226e-03,3.585561825997563012e-02
5.027474368422824025e-02,6.937426859187873635e-03,-2.944373384232655197e-02
-3.618091663447717699e-03,1.390880418867303410e-02,-7.765009204750548955e-02
-2.621825472621048050e-02,5.255403739411241421e-02,-1.672601173600631388e-02
3.961237310411717949e-02,-2.242866576269744727e-02,-8.583458195191188272e-03
1.559642863475017155e-02,5.641462189839658442e-02,-2.599393064101596443e-02
-4.020187126937942168e-02,-1.412795432325450289e-02,2.479845405725827900e-02
-1.338444302515635724e-02,3.724525905552778654e-02,-2.144536327029014297e-02
4.403696518714215330e-02,-9.639904971696876962e-03,7.494910174108184928e-03
1.927887574730578063e-02,2.257542843067157634e-02,-4.598752095738167789e-02
-8.094611405913594224e-03,-4.115300507934450264e-03,5.193867856926021910e-03
1.008855747637162244e-02,8.907374107190330070e-02,-2.415935309704650077e-02
-3.695342741797356251e-02,3.330721291362377656e-02,-1.967170094135135480e-02
3.707976283112180815e-03,-4.819033999539776986e-02,-1.327575168120415051e-03
4.686235187396259327e-02,-1.188888323977858874e-02,4.416240455195821063e-02
-4.064751181801335572e-02,3.283939579019286986e-02,-3.253796619466562887e-03
-4.198164925074553827e-02,-1.345680034513454734e-03,-3.108385163741496024e-02
6.783281672410482188e-02,-1.945602488753926922e-03,4.826342786271246854e-02
3.437838568074245982e-02,-2.291897370111433546e-02,9.924258147894741630e-03
9.000751597247769881e-03,-3.823206430469650030e-02,-1.317494235136084171e-02
1.473884868897851544e-02,5.152294825754986235e-02,3.705702784562801833e-02
-4.388424382562579329e-02,-1.116553089726831857e-02,6.223094785932974061e-04
-3.476622018587584295e-02,-2.365818636775997991e-02,-2.185760697980296610e-02
-5.111637101077160135e-03,-2.483516728843505189e-02,9.353325352197846415e-03
4.141327010322516482e-03,-7.719404325894653474e-02,4.491953074310384695e-04
-9.738962717522215568e-03,-7.384522486258940366e-02,4.847103962203681837e-02
3.250811565829438577e-03,6.756218691381120356e-02,4.615431238946920284e-02
-5.524625658583164761e-02,6.160175860573690459e-02,4.552511709435652643e-02
1.625202027603060012e-02,-4.125505631057210798e-02,-5.961269432822703662e-02
4.176750408332565584e-03,1.410791447189714727e-02,-3.594588202329138810e-02
-4.033175489968734290e-02,-1.078914647289632434e-01,-4.292254342094876940e-02
4.975528144691184276e-03,-2.717151862585692051e-02,7.182284950103982879e-02
5.176987892117469736e-02,4.137135708354255578e-03,-5.682984010641833200e-02
-1.640971003973539302e-02,-3.401703526509258085e-02,1.403712404912569114e-02
1.908788480673093493e-02,-5.118019320386162779e-02,-3.192821251026818630e-02
2.186324397062774580e-02,-9.008341720043583356e-02,-2.926761265959362986e-03
2.662933666023026974e-02,-4.396855826771909476e-02,4.750763761953124414e-02
4.483346075877529119e-02,-1.208481149989894948e-02,8.820827329538663553e-03
8.095933820149865678e-02,-5.340874500229254168e-02,1.105854548552767311e-02
8.944124789460143610e-02,-4.445182049634393423e-02,-4.182909858805376746e-02
-1.583941323422549327e-02,3.948326613979833387e-03,1.738154741074196541e-02
-2.996893901330523538e-02,-4.580590152142310217e-02,4.124633400225128504e-02
-4.593684756175434730e-02,3.150904065744538490e-02,1.730404682910025678e-03
3.584301004938978286e-03,1.832727097388422294e-02,-5.944107026986801545e-02
-7.933265949150404214e-03,-1.645507866014185377e-05,2.218701337699335169e-02
-2.408994165025439907e-02,8.326223787001596488e-02,3.902789943662934510e-03
1.869763666261606630e-02,4.098932253686758675e-03,-6.224099448778441096e-02
2.535537089909017591e-02,5.028749328838089463e-03,8.050978647139387517e-03
-3.336116766675191470e-02,2.534554133236092618e-02,3.904577253067276904e-02
4.369134684878882985e-03,2.227127733336289883e-03,-7.326435036810273471e-02
-7.753106371562641652e-02,-2.512045800186924263e-02,2.121141752779863443e-02
3.971552354432208998e-03,5.639221994951781197e-02,-7.753984220668948268e-02
-7.201236083954696242e-03,3.729332966325744902e-02,2.500513270643843142e-02
-1.587759180404775886e-02,4.960576581391161477e-02,-3.744556840810126658e-02
2.520417999251107349e-02,2.262557345309388832e-02,-4.737963603550079950e-02
-2.057108675228250250e-02,4.384355080587154507e-02,-5.796756563182345334e-02
-2.998758757078414522e-03,-5.331716405466174757e-02,-1.226854137384596720e-02
-5.281495667159147311e-02,9.634742720457113718e-02,1.446515386496226817e-02
-5.578865500397045540e-02,8.958442970527784495e-04,-3.103161332781172524e-02
-5.536047578326053903e-02,-1.672056957634294669e-02,-4.198156003386348256e-02
1.557077744160571819e-02,7.919817393805402006e-02,1.379482718968893379e-02
-3.761400695141758205e-02,-4.392265248925828099e-03,1.761648797109601275e-02
-3.615689667342447677e-02,-8.920762453815832271e-02,4.365901067233561583e-02
-1.639920864264890130e-02,4.488774439532212945e-02,5.025986176545538947e-02
-8.328520216441117480e-03,-5.284385607016529873e-03,4.628941136040837928e-02
-3.199925849244213832e-02,-2.327365299831858636e-02,-1.541637825561211275e-02
-8.512908600940612830e-03,1.927174402988911933e-02,-4.278492496026116421e-02
-4.080117317796107951e-02,-1.255756244585076037e-02,9.661489812474909067e-02
-2.216916779457945089e-02,-1.861625002828446937e-02,-9.641703605457088710e-03
8.495258571628643007e-02,1.888187028804871187e-02,-4.877212361764497045e-02
1.169274943300414350e-02,-5.389377369762574088e-02,-2.857870630130245407e-02
1.046303536713273294e-02,2.848834383695708281e-02,-3.708819293011239582e-02
1.687631208277022565e-02,-6.304067536703671093e-02,4.126251155655536823e-05
-2.432548009330282382e-02,3.290280116423679319e-03,-1.817463372010923867e-02
4.139467545795598447e-02,-3.188010845806698440e-02,-1.567472047150038524e-03
-5.826111973112025472e-02,-3.116052809782303770e-02,5.214512539692674892e-02
4.419778148851073035e-02,8.567819400510068642e-03,2.922258523698780582e-03
4.011341244316384003e-02,-9.773233477444633055e-02,-3.162926971092811651e-02
-2.247983260680308862e-02,6.697608419081522990e-02,2.548048261920398891e-02
4.110275373111488967e-02,5.011305226191503648e-02,-5.753609506004519342e-02
-2.009512758029748797e-02,-6.323689770524235088e-02,2.640057222627048908e-02
-4.863370093138164735e-02,5.115154744596552179e-03,2.524924004093269045e-02
-1.974988930535911610e-02,1.407210071931501091e-02,-1.211116892044042034e-02
-6.483143062378168842e-02,-3.282989357712891992e-02,-1.550747872108673361e-02
-3.946286040313520121e-02,7.287445634041156417e-02,7.253074224799613799e-03
3.621251752411812352e-02,3.372564216955765970e-02,7.612814525730962970e-03
-5.151539696884235159e-02,1.248047324301074408e-02,7.138858997127923989e-02
6.331041975963515311e-02,-6.163486911585285000e-02,1.371748957655735852e-02
-3.443777951977886054e-02,1.625665923823121570e-02,7.320762242745271556e-03
-2.164675783408349583e-02,-4.136757135088500043e-02,-4.026695301071018217e-03
1.698030669961976546e-02,-3.316909455291861680e-02,-4.716291727367787762e-02
5.699498727817554899e-02,4.316066625060204637e-02,-3.275550779405958512e-02
3.963452900269315488e-04,2.013647112704373618e-02,-3.278323672704332170e-02
-8.651714419071185108e-04,1.586450419400435227e-02,5.021309793866490789e-02
1.297214012183193869e-02,2.802922272187594044e-02,-4.290428456372554628e-02
1.366144596105458436e-02,-4.334701050876110101e-02,4.011262382054531922e-02
-2.905283215313004402e-02,-5.096127030758583476e-02,-6.774953875348389484e-03
-3.174780713435795560e-03,-2.037498764409706453e-02,-1.630591952980333520e-02
4.154742051276965643e-03,2.630141169911291016e-02,-5.165125512182443951e-02
-2.761535927789392220e-02,1.966442406144233365e-02,6.866274679277992177e-02
-3.846082726905005605e-02,-8.390042915979495364e-02,8.026525465027849193e-02
-4.766301430432193925e-02,2.856908950811394218e-02,4.244632187175925719e-02
2.694462997042099128e-02,3.875827312510343042e-02,-7.105406597152390258e-02
3.374791610837937772e-02,1.605730953459566708e-04,-1.967089509981170565e-03
-3.482166520341566790e-02,3.551591445371952982e-02,-1.375695905842313771e-01
-3.346348287329291727e-03,-3.570521323741278341e-02,-3.799838572597635106e-02
3.661960166570576297e-02,-6.578724301300049870e-02,3.087345981002460535e-02
8.045837400256043714e-04,-1.476735800501462713e-02,1.339545356000314096e-02
4.856584000851998234e-02,3.046702771063791379e-02,-1.002576970791797945e-01
2.686040620878801105e-02,-2.210711596312877128e-02,3.083607639661236841e-02
3.673458196606167736e-02,3.156193117198204806e-02,2.126254085071415528e-02
-2.980836964416319970e-04,5.547876443212102632e-02,3.770315841850267660e-03
1.312209985049862630e-02,-2.900507094370672820e-02,4.635933491531117612e-02
2.454135784323153296e-02,9.318945178978980948e-02,-1.028934580129615695e-01
-1.398782127833499665e-02,-4.044582311505640071e-02,-3.029995063504208400e-02
8.090150607440936906e-03,-1.810553505288948345e-02,-5.951943757528218443e-02
-1.187698037516629092e-02,-3.637641184743844319e-02,-8.260108491868270453e-02
3.652604257339392424e-02,-5.602934498105616168e-02,5.005244657995429683e-03
6.128395740265313481e-03,9.084443994368910117e-04,-2.998009934026339002e-02
7.861562518399706212e-02,4.439484171051613637e-02,1.420543651791270241e-02
2.658617103139752913e-02,2.592122362081693276e-02,-6.565292998313861095e-02
2.424144116838156462e-02,-3.382408874353000361e-02,-2.512366372838572420e-02
-5.892323809255950451e-02,-3.972790682546655655e-02,-4.487265201874103548e-02
1.473869589523943598e-03,-8.763414473849543557e-03,-9.190827218073521418e-03
-7.673275827069886423e-02,-7.138884408129526904e-02,-1.570167480869003734e-02
6.859157382097120711e-03,1.453181114995788677e-02,1.146341772983792799e-02
-2.769068994731517172e-02,6.702857739091580905e-03,-3.606766945066589014e-02
-1.402854039495506425e-02,1.380010221394421463e-02,-5.403450756120933840e-03
-2.481306362714624791e-03,-2.709427924184223610e-02,4.025069680621851803e-02
-8.918474690497892043e-02,5.473127667220056489e-03,-2.684282470003118704e-02
-3.137175689337685924e-02,2.137389488165369195e-02,-1.571281205764373965e-03
3.156799284805038991e-02,-3.652262129457315570e-02,-2.029791178026629783e-02
1.403824055277470492e-02,1.914859516229376959e-02,-1.251423963216841823e-02
3.817125021385934375e-02,-2.059740254275707963e-02,-9.075084003509592545e-03
-9.968745453446226090e-02,4.396041393734870066e-03,-8.068077714503921194e-02
4.020544613386414778e-02,-1.624656961013256490e-02,-1.060248270405158948e-02
6.018669909157512571e-02,-2.636422971741340243e-02,-3.086606713513086815e-05
-6.340909094859628614e-02,-2.476325886927373959e-02,5.449447485194236409e-05
4.020434631606763232e-03,5.175488984505555862e-02,1.675477648927798865e-02
-1.932423319903936801e-02,3.410137471282816309e-03,-4.478500765062715799e-02
5.838616869343574156e-02,-1.408568712177852775e-02,1.320995595693336654e-02
-5.038559397910411658e-02,4.794722839120889313e-02,6.181099933876028386e-03
-3.228426286080235408e-02,-4.184371130155468098e-03,-5.331675692585188808e-02
-6.481458308569060245e-02,3.418603027304922826e-02,-9.393765865060825157e-03
-5.087281459343154233e-02,-3.450829849692382822e-02,-7.155796316936856305e-02
6.958497033870139625e-02,2.436134469269205308e-02,5.882456780275377439e-02
5.405219521799237842e-02,4.677513738040518093e-02,2.040087919433131863e-02
-2.203958562710218658e-02,-5.097289096471276093e-02,2.062175358975391545e-02
2.271710735493230691e-03,1.084671768385391151e-02,2.695406635306390672e-02
4.566612164407512359e-02,3.423544113632127212e-02,-6.227641402703690612e-03
6.540193458387132119e-02,-3.618718304010851150e-02,1.681283668742839909e-04
-1.082543447622078166e-02,7.571231977782469022e-03,-3.196272450399186005e-02
8.436418554920545321e-02,-1.602027936790274701e-03,-7.601039655371885639e-02
-7.357688896017686945e-04,-3.119116595680362231e-02,-3.106449944215430164e-02
1.622987084458048582e-02,8.372614229362984606e-02,6.117424507267912870e-02
1.093568358396384763e-02,-8.181425769715867935e-02,3.828527411154500348e-02
7.790558863766462380e-03,2.420810264863570635e-02,-2.204425781649823474e-02
5.137510424086590144e-03,-2.378022381110321548e-02,1.706445469461656539e-02
-4.877085735070378625e-02,-3.606643702600241530e-02,1.393154469025704827e-02
1.227924436412963609e-02,3.382411720654002890e-02,2.763232202274714527e-02
-6.660608642480196628e-02,-1.534025170457873830e-02,2.092504574539042969e-02
2.914273231425790547e-02,-1.527105177313222220e-02,8.694596074524581567e-03
7.465311867115338599e-04,1.941899187049994299e-02,-3.017869539066107831e-02
1.444252623892497422e-02,-1.273145563186618007e-02,-3.559355041032939010e-02
-4.948559210162002675e-02,-5.305180664214051434e-02,-8.583510992345446192e-03
1.043499377575672904e-01,1.555565840224507231e-02,-1.482548917239802193e-02
2.681822579315448069e-02,-4.677165382869923754e-02,3.667175131462650089e-02
1.580380384108926936e-02,2.026967050143187871e-02,-1.702051060583101294e-02
-9.117212791817495441e-04,-5.214575575486553316e-02,-3.539011821846054645e-02
-5.669219137109670487e-02,-3.895243610395170836e-02,-5.136233105807677668e-02
4.508029958486528543e-02,-2.081079001005507051e-02,-4.114306023054285777e-02
-1.166221092323928461e-02,5.415393536407654695e-02,5.861017850452381744e-02
-4.473882985781934413e-02,-3.291873998898153103e-02,-3.508979177200702640e-03
-5.236790408261329799e-02,-6.338081788921362536e-02,7.666011514219399185e-03
-1.922095866453664426e-02,4.008585405073322727e-02,4.354749616015297572e-03
5.943311513700654664e-02,4.412178478190230575e-03,-1.924736010923184387e-02
1.043213953976787622e-02,1.346390744052852924e-02,1.074500014227647814e-02
-2.818881317575468518e-02,-3.733268867036206029e-02,-2.441258011182605159e-02
-5.414138618462223385e-02,1.740477915614100507e-02,3.049482649712087837e-02
-4.123725618920045383e-02,3.742314401517587985e-02,-4.604161073732843806e-02
-9.165700710893663616e-02,-2.308378490189097031e-03,9.109556020717496719e-03
-1.728946309220899535e-02,-3.930843504521355954e-03,-2.823641076983739173e-02
-3.115895778143180569e-02,5.178347276956721951e-02,-3.790218467429141980e-02
-5.881729808675079801e-02,1.238543208342173310e-02,8.023682752306408872e-02
9.286043335089803896e-03,-1.570927584043344330e-02,1.397613827299594089e-02
1.430453806563411132e-02,3.889253824186372430e-03,4.485201103955315134e-03
-5.443264234373301758e-02,1.297703916749897053e-02,-3.343262839366409334e-02
-9.107847758687684370e-03,5.570310633544493101e-02,-4.307031676167987627e-02
-2.151787589805871995e-02,-2.011743782180795692e-02,4.728652554326562805e-03
1.430182437647337448e-02,1.696168952922677900e-02,-5.002140063852205526e-02
1.211800267376974584e-02,-7.475812258709305580e-04,3.957885320036384769e-02
-2.961951137738915926e-02,-3.010357314376251384e-02,-1.715142150315592667e-02
2.239063466072912026e-02,4.282129656505963972e-02,-2.139959708365690022e-02
4.564131247785054718e-02,-4.756818754910201869e-02,3.799842166382385450e-02
4.467335272967373067e-02,1.227058953008004077e-02,6.179008639577489304e-02
4.162031754605145101e-02,-2.138880487833702201e-02,3.735650713095414049e-02
-1.881442779508491620e-02,6.057298127826993284e-02,-7.017973022844554987e-02
-2.364244216933489295e-02,5.565492568034840354e-02,4.809330234542749660e-02
1.713982405431402345e-02,-1.320703306998584521e-02,5.073696243663206734e-02
-1.846126717298344003e-02,3.920505536680695541e-02,-7.394846161837332656e-03
5.632991645353409293e-02,1.319907108854555255e-02,-8.108493964978613980e-03
3.301332521404804626e-02,1.041180356873920923e-02,6.429801939324188143e-02
-6.371349030753817137e-03,-9.313725154637511258e-03,-1.137111887287668884e-02
9.040695036119164585e-03,-1.816056429195126191e-03,3.764263300749896152e-02
-2.360974616502552192e-02,-2.323754559305934303e-02,2.728633290022028021e-02
-1.419930065944750679e-02,3.566072044630402837e-02,8.676570285460184773e-03
-1.953575941465753377e-02,5.024711901775901629e-02,-3.208154467700617685e-02
-5.730761378023327933e-03,1.908141243244228236e-02,-6.789837701722682695e-02
6.723695074548081269e-03,-3.231084140657866643e-02,-2.005101068827213132e-02
-3.589903843414134210e-02,-2.868283657519918664e-02,6.063213370315487065e-03
-3.037786218830607760e-02,-5.644371912727345897e-02,7.400547838492090025e-02
-7.188059812362226908e-02,4.060788007603965272e-03,1.522111278069630076e-03
4.460181293565664007e-02,6.078649682258421144e-02,4.137488245061981401e-02
5.488267834368810820e-03,2.205909605711097420e-03,-3.565173179381059265e-02
-4.416157576098132809e-02,4.955965651345178857e-02,-1.393723332424375190e-02
-6.335106814154035926e-02,-6.930593041473577520e-02,-1.878015453615155747e-02
5.108299850560960031e-02,1.690091680849402714e-02,6.026848053796923961e-03
-7.729570004617081734e-03,3.935584776346339603e-02,-3.256924855780830852e-02
2.619390516303432906e-02,1.946564804033450516e-02,5.916162174165313231e-03
-4.033917480653120315e-03,-1.992233845842245055e-02,-2.682123038390982553e-02
5.062137987835736708e-02,6.060041015310023600e-03,-3.384338394088717838e-02
6.258383162394588750e-02,1.842915527849653401e-02,2.210566949516093796e-02
-4.742449725448952269e-02,-1.777728372270332216e-02,-1.218860098492756568e-02
6.103385488160403133e-02,3.037817454609399986e-03,1.247223209735253031e-02
-1.799166986990166639e-02,5.123811519689446675e-02,1.443975123370114591e-02
-5.899827131228807531e-02,-8.904908940065972556e-03,1.910426694489433114e-02
-7.406268193635748287e-02,-5.478937502531444625e-02,1.954753623741082788e-02
-1.222012605680963121e-02,3.008339083526966225e-03,5.766347104933718798e-02
3.688322325449031047e-02,1.682072958955221215e-02,3.865133524938342991e-03
-1.388076957860184119e-02,-9.528468624031366518e-03,2.387849117924335709e-03
-2.297470758876309083e-02,-5.056383002842040203e-02,-3.317885718444172488e-02
6.168239058369111294e-02,8.844562317943225824e-03,3.483213868873644148e-02
-8.494559818191013689e-02,-7.416955516248142921e-02,-3.620408286706916501e-02
-2.455374602766168673e-02,2.689914052247482229e-03,-6.539682728941238754e-02
-1.957927051688133219e-02,-1.897990276822753009e-02,2.626491146462165555e-02
3.470195151201097700e-02,-6.403117624776831496e-02,-3.552538243740958196e-02
4.336378207440811511e-02,-9.251633192579253318e-03,5.007551168699109212e-02
4.719375355824815405e-02,-3.363139500832139361e-02,4.371022243119177669e-02
4.563998338827986861e-02,9.962683396931860599e-03,-6.931219260008786298e-02
-1.204901272601298368e-02,1.718719168026650382e-02,3.260933617631493753e-02
-3.030624974764816598e-02,-1.745364745077295767e-03,-1.374923738592241131e-02
-2.219040501211209243e-02,-9.509355191403764951e-03,-7.108349772711243519e-02
1.238315858436065189e-02,-1.138324250882943867e-01,6.873851686736612288e-02
-2.534710872224101366e-02,4.558695150909558569e-02,4.195914013997344323e-03
3.933567631300974310e-02,-2.860790789190918032e-02,4.147682280768424934e-02
4.251832172673336574e-02,-5.520636030426570584e-02,1.622365504634415770e-02
1.930292203701042611e-02,-5.789142022941589499e-02,1.767282827737350070e-02
-7.874381623222936888e-02,-2.080810559007972155e-02,6.532298535251933325e-02
-2.534888898347820857e-02,2.560895697573189328e-02,5.332173054968476766e-02
6.880869538050640721e-02,-2.511140824716157766e-02,-3.927461552085071556e-02
7.148677625195522245e-02,-1.598019971734770256e-02,5.861140972983149705e-02
-3.073925985694380553e-02,-2.323708315329125942e-03,-3.213768157569266148e-02
1.650944429450818679e-02,-8.731753658488522474e-03,6.300965606125151497e-02
1.973153046608950439e-02,4.164131586551903658e-02,5.881555619973838356e-02
-1.410793778059551713e-03,5.254995905745976637e-02,3.106238519485914409e-02
4.779213851937668019e-03,3.384596799762004671e-02,-4.260930216012243088e-02
4.117177187074391731e-02,-5.905852454244183564e-03,-1.294737769503810946e-03
5.752117720284374847e-02,3.945286172405812930e-04,5.706226277284545678e-02
4.836978062526990640e-02,-1.165591419535964152e-02,5.752634809355305218e-02
-1.753105612708811406e-02,-5.403005711713187997e-02,-1.968453870250283511e-02
1.785319650607673433e-02,-5.736921895363134016e-02,-3.685511591108569379e-02
-6.137387050645514569e-02,-8.481476510902145188e-03,-7.319092935907199615e-02
1.917427871436417144e-02,-2.931968715141975573e-02,7.293384023657455140e-02
1.131586505463043173e-02,3.654629521182099772e-02,-2.224778725605921353e-02
3.499965050376657033e-02,3.647420517257254913e-02,6.710803169653489775e-02
-5.274430875716496631e-02,1.725593818643646193e-02,-3.277869609355800462e-02
5.072757812057011179e-02,5.225674257686927643e-02,-3.262987723186118461e-02
-2.770975633910174526e-02,-7.011763955105349000e-02,-2.961321474317944735e-02
-1.719882899734995196e-02,-6.538067126468906365e-02,9.771622432995959173e-02
1.249981591883223171e-02,3.933052823531708875e-02,-5.071022376782734035e-03
-7.414301341372455355e-03,-3.714388085137347584e-02,6.585714524634138541e-03
-5.498032595214736445e-02,5.207093466935455717e-02,2.136721886632239956e-02
2.003980782062440846e-02,-2.295672789269918163e-02,7.573561939310749502e-02
6.176824488755232323e-02,-1.239149458961113018e-02,-3.600713747595383346e-02
5.130787638278557113e-03,-2.190791190447916731e-02,3.000002695689513860e-02
3.385815998513237290e-03,2.851929097463944043e-04,3.518285686076497859e-02
-3.784355165406011034e-03,-4.359552963495219591e-02,-1.887960848411356085e-02
-3.796999680662418997e-02,-3.672530776574992051e-03,4.234075179295082592e-02
5.105727939307774799e-03,-3.288070496431699276e-03,2.642569483816975193e-02
5.336223722289704791e-03,6.048853079005606093e-02,-5.761685715304123989e-02
3.704667525537372330e-03,7.201637585552669862e-02,-3.084117132267724659e-02
-4.561444511001282176e-02,-5.660652324719813583e-02,1.204407528825551972e-02
-5.673033244881594411e-02,9.881267919532546462e-02,-1.245332667252869313e-02
1.514600035391003123e-02,-1.936841239790851668e-02,-3.321135596719447091e-03
-1.203859430382395353e-02,-1.010876958568507518e-02,6.236189911832812002e-03
8.887943577566245756e-02,8.335317994063095801e-03,4.431352262377970946e-02
3.403781744087123334e-02,-3.135817476578155183e-02,8.347095085558341176e-02
3.399279349419315893e-02,-5.594301628517741459e-02,-5.365052933666516338e-02
7.517489194474958301e-03,5.418158701264948196e-03,3.386208527918890127e-02
-6.170175517992849273e-02,5.777857746908783565e-02,-2.053871599745053442e-02
1.191066832293470601e-02,-6.011330285625009900e-02,-2.282209971970699993e-03
4.602785716437940433e-02,7.001020125533381766e-02,-3.652903178991112609e-03
-6.196302194560875110e-03,1.924249794448861656e-02,1.692750624560528799e-02
1.356540807215867242e-02,1.423317933717041517e-03,5.489422909955677526e-02
5.018349425232573879e-02,-1.387308397801367832e-02,-8.141164237611583920e-02
9.794466140061087664e-03,-3.795074637252847383e-02,3.030919162056731897e-02
-1.355204928754508500e-02,-2.252119779830817625e-02,-2.188691627200379727e-03
-3.234959888865787669e-02,-3.097416048071350257e-03,3.419395653799364460e-03
-5.168448322654347477e-02,-1.575377059864998056e-02,6.387496499977080022e-03
-7.002834270517364033e-03,-1.415216573089843055e-01,3.957794957260762220e-02
-6.071911445552168746e-02,4.121209730449214986e-02,-2.970941524959365421e-03
2.566715345688615202e-02,9.992658523701158924e-02,3.786544357622270707e-02
-8.537271696720004355e-02,1.080899241953599092e-02,-1.861511079976738148e-02
-2.686508164283133576e-02,-7.115893979679108194e-02,3.791399504883381788e-02
-1.705440499815388420e-03,-2.827387597838891542e-02,3.508954606673908485e-03
-4.962125915026729256e-02,5.221368599252924902e-02,-2.304799931509224700e-02
-2.210200638500109394e-02,2.567159612435568339e-02,-1.497692501106255049e-02
-5.408739519860499001e-02,3.613112578190567220e-02,-4.331657313328785008e-02
3.283206468010376605e-02,2.015046351774992667e-02,-7.280771834635815787e-02
4.620507574829886555e-02,2.741601141826601959e-02,-4.247339210069526333e-02
1.207850307175482689e-02,-2.494466394204068044e-02,5.415716022438384764e-02
3.395145926841496020e-02,-4.881882670759474241e-02,3.485230207721454893e-02
-1.839699316114049021e-02,4.126427737657595296e-02,3.895030235725405882e-02
9.121862751116523171e-02,4.230602756180590340e-02,1.620512575136201158e-02
-3.740846315681715939e-02,5.167269070334144093e-02,1.791877366827097917e-02
-8.927774599122917376e-02,-1.154523278047213664e-01,-3.079764395736990165e-02
-6.000724298454474664e-02,-3.104880175643310106e-02,3.781368960042116867e-02
-7.838433052641207918e-03,-7.720997958823036522e-02,-2.998905547816676717e-02
-1.189093539335403689e-02,-6.261748762005726887e-02,4.318089365057646567e-02
3.754262010567545327e-02,-8.182877229785817663e-02,-4.888611757727958501e-02
7.889995846849781613e-03,-7.170675928088620331e-03,-7.805823099460111950e-03
-6.020001222735155838e-02,-5.366165781983865679e-03,-2.395326887820353398e-03
-9.233332585769714329e-03,-4.216484343519410344e-02,3.310344039141287914e-02
3.255472821052916160e-02,-2.422350035999302348e-02,-2.285960444283716142e-02
7.717272690625313902e-02,-5.452777579141065284e-02,-1.328323592970429012e-02
4.346029790841113988e-02,-4.261180689923494032e-03,1.078685547187716379e-02
1.905998768281998461e-03,-7.029196281107208399e-02,-6.710593867535910584e-02
-6.503953230350792425e-02,6.839492190348059331e-03,1.816291680210574758e-02
4.231258221432938199e-02,8.256596860431925089e-02,-6.773046145711239530e-02
2.825820824695538316e-02,7.220668617484388152e-02,2.410735755293565152e-02
-6.917633082911500697e-02,9.901475105439565272e-02,-3.684541629246874256e-02
-4.620188243963026936e-02,2.316684390459946077e-02,-2.664187278280136933e-02
5.141163283720979679e-03,4.715010927274708788e-03,2.881519203410196073e-02
-3.042321195696767733e-02,1.188189340941592231e-02,5.063458985181215621e-02
6.902784815519297235e-02,-9.451807443812976217e-02,-1.608275997289008964e-04
9.217922492385001443e-02,-2.741650311144062241e-02,2.955721627061669646e-02
-1.401143954330430486e-02,-4.481093728634593515e-02,-1.016101102663825168e-02
-9.502012563911343968e-02,-7.193359634003737395e-03,1.691733067319400874e-02
5.427188316005829467e-03,4.022110044375971395e-03,2.755346216393706957e-02
1.896029344091585897e-02,-2.081962342669236785e-02,1.498638336303194027e-02
3.580325910713334087e-02,-3.019113912706369168e-02,-7.733391366858964264e-03
-5.495498758843751080e-02,1.318221726201315551e-02,3.506931942313810252e-02
2.957292083333531649e-02,1.526021728711788455e-02,7.641804551121429701e-02
8.266858719238240338e-02,2.505048854368945727e-02,-1.560928206635565571e-02
-2.571960754833911393e-03,9.332439721597824561e-03,-1.914327824110859859e-04
-6.564030444614226724e-03,-2.352902674327050567e-02,-1.053342585198699562e-02
7.491793001506960592e-02,-7.144323909299811481e-02,4.148142812669888824e-02
-2.924158853660514942e-04,-3.925275974607816964e-03,1.064462069747252465e-01
-6.444375849903749565e-02,4.975944543228748990e-02,6.769527264508681461e-03
1.544540650586431231e-02,-5.777370016804551922e-02,-6.394962306401841268e-02
-6.250192514358846041e-02,2.267489701422220269e-02,-3.168933321698792771e-02
6.302864221031453593e-03,-3.038156202551774154e-02,-6.494260887634738244e-02
-3.316404787186197356e-02,-6.378152419525767725e-02,-3.901970623288692191e-03
3.833086714375489451e-02,-5.570081707716281055e-02,-4.578252644845517277e-02
-2.575446918263535334e-02,1.870747417813340557e-02,-7.865694105405303393e-02
9.458675389033546418e-03,8.357456858457668752e-03,-1.310060111939551075e-02
5.126954139175015669e-03,4.969782493399060169e-02,6.438790968787515279e-02
-1.363057102306665727e-03,2.020531966610778982e-02,1.942332830858782208e-02
5.590645584834683102e-02,-2.433352697696906583e-02,-6.122258582612635086e-02
1.941860470499325031e-02,9.337322876802008065e-03,-1.647748441909126411e-04
-1.341766504962383505e-02,-3.667454677965616139e-02,1.977746233511111854e-02
-1.932215780168133586e-03,7.497564463913069382e-03,1.523785766115249261e-02
-5.521057913123236099e-03,4.285149683926332137e-02,1.240603572154185506e-02
8.954773662953081914e-02,-4.553677804059026030e-02,-2.513341089023669178e-02
-1.059089532538268902e-01,9.775613390030723701e-03,-1.776155135076715186e-02
-1.732681910981989995e-02,1.199411019427273385e-02,-2.284171839798829207e-02
1.717803402450695377e-02,7.399233439882095531e-02,-4.334420678332603916e-02
-3.987157518205291379e-02,1.707313869255525085e-02,-1.303876582676384219e-02
3.280930904608362481e-02,6.839564458195028507e-02,8.221157336662566519e-04
-7.288567178189343798e-02,-1.740879424249060919e-02,-9.927418327458446129e-04
-3.233448543194634289e-02,-3.491229088983985752e-03,-2.359770382850161566e-02
-3.561626015172370679e-02,2.227583437226138274e-02,-2.311585672805198388e-03
2.891323645970084177e-02,-6.986806255569404100e-02,-2.803810688502399867e-02
-4.986955950308192415e-02,5.251974799398271415e-02,-3.842670073455126817e-02
1.512878083676647174e-02,-4.457987652430125264e-02,2.730897650673000041e-02
5.432677497358750877e-03,-5.791523421349082518e-02,-3.740183211823818604e-02
-4.512576318770872980e-02,-6.351747863119458319e-03,-3.753630250981238037e-02
-5.600782587639414889e-02,3.727604802269591372e-02,-6.233319600844114405e-02
-3.168739687876884897e-02,-9.303991392257317250e-02,7.148181769636031968e-03
6.718041569920801814e-02,-4.935332202787748312e-02,-9.047260188353981394e-03
-8.588035064305860056e-02,5.667175276508877417e-03,-3.012662557510667818e-02
-8.414278710412460838e-02,6.131902471013282729e-02,1.640156780443340762e-02
3.808358409059525718e-02,-4.183481974471438963e-02,5.944291341192636802e-02
3.817932601821372868e-02,2.547768281097560067e-02,-8.940147927770454930e-03
2.353011564783216020e-02,-8.201554796699286887e-02,6.473929364615353330e-03
-4.995288472437005994e-02,4.700992930132742720e-02,-2.458134448176839057e-02
7.962533802598530108e-02,-3.018813749953242268e-02,-3.431996814960135839e-02
-1.349011507265591298e-02,6.738614268054726741e-02,7.799541702442892160e-03
-2.875657570708823121e-02,3.652505757220626814e-02,-5.378142324700184961e-03
-4.352396741346466202e-02,-3.248190604855844682e-02,-3.691517123513753107e-02
1.410085346898425941e-02,5.129862647276915016e-02,4.628029638585730299e-02
1.616692218452848648e-02,-9.495070165200146517e-02,5.702757869591711798e-02
-5.383457808547288670e-02,7.747328699373358385e-02,8.519738727872412654e-02
1.902796309360313409e-02,-1.636467934962036047e-02,1.838579387461834747e-02
7.798072603737797592e-02,-2.086698453873404510e-02,4.708435925123292259e-02
-1.834940603720475530e-02,-8.613559957434614028e-03,-5.293499049717114574e-02
-8.584385494021057328e-02,-1.808623266169880756e-02,1.060028958089809584e-02
-2.817398027144088664e-03,3.083818174436168263e-02,1.901543671062868798e-02
-5.902440335947422775e-03,-1.430150686175951300e-02,-1.116782867373176079e-02
-4.288236776012975537e-02,1.065145193455059765e-02,-3.516703899560107323e-03
-1.579266223094134489e-02,-5.571178509928487177e-02,-3.669483223418569529e-03
-9.427713703225440445e-03,-8.200413519638164242e-03,-2.811849979090359081e-02
-5.112772625560048877e-03,1.413213583412718105e-02,-1.240676230245107460e-02
1.255626801226283722e-02,1.752451320943819099e-02,3.459002840313276945e-03
-1.083013411083742251e-02,-4.094829114407477766e-02,-9.090261734756455159e-02
2.376183895968459608e-02,-1.542340679062896396e-02,3.127160898142802153e-02
-2.009413362241354098e-02,4.810372854627076311e-02,-6.631925736909162483e-02
2.482648091969690343e-02,-6.043456238901501881e-02,-4.721300078174846260e-02
4.169454757044223359e-02,-2.442829891093958872e-02,-8.239897610058766197e-02
1.701451974990362192e-03,-1.125114846553629776e-02,4.995664723672930269e-02
-7.349550240987354037e-03,6.398517389563208868e-02,2.769732670912870148e-02
-2.317696405690651898e-02,-1.579605381242012857e-02,-4.743991701134148836e-02
1.428154155787198128e-02,7.383979785243147131e-02,-6.577482823120399044e-03
-7.147676629016919136e-02,-1.629981522415497458e-02,-5.343511852046008842e-02
2.072690883852097363e-02,6.824830499776838449e-03,-6.655349269185964825e-03
4.127880276814081643e-03,-3.408846726213644873e-02,-3.230863243426060349e-02
-7.437093528174992807e-02,7.618811029565283888e-02,-1.701268964468237790e-02
1.052564201209000606e-03,1.811407668688391238e-03,-1.875902372838753052e-02
-3.475429768286449062e-02,1.391545535221772913e-02,7.831092307264293784e-02
-1.070282505630356165e-02,7.828362637474739830e-03,6.402597604499922664e-03
9.467297719948065959e-02,6.500792389062295951e-02,-1.722609789532014365e-03
6.622071511164463395e-03,1.649858523627534962e-02,-7.837441704159049324e-03
3.688542320600694119e-02,2.296553057924311317e-02,-2.506171235415974655e-02
4.711296507681228020e-03,2.759143128326289190e-02,6.043366054544526550e-02
-4.755492954149252716e-02,5.204262879417680121e-02,-1.525021411117548180e-02
-3.393690158932203757e-03,4.518201984070480820e-02,6.581939799960055681e-02
-7.894598250010791216e-04,6.616228419536597516e-02,-4.078333686182222806e-02
-2.598406144170883544e-02,1.491015593845608153e-02,-2.331826004825282486e-03
1.214123197906868436e-02,5.043984790453160880e-03,-1.173668717540298813e-02
1.601735114884282954e-02,5.846985121883706976e-02,7.053464605122258813e-02
1.178471763996948203e-02,3.639348695795598110e-02,5.159819880663004538e-02
3.028007083456235593e-02,-4.463185296428862775e-02,4.222819637044060437e-02
-1.423058699511174727e-03,3.465774421640426678e-02,6.592953576049462826e-03
-3.152854548479362001e-02,-6.185814261152335070e-02,1.024221883718031767e-03
-9.041311163477935842e-02,5.336510693487269558e-02,-5.604499444410579456e-02
1.299136668377906534e-02,-2.545980112868771392e-02,5.184683630976551216e-02
-4.642910965151870323e-02,1.298454188404391148e-02,5.161630436311978598e-02
2.827905042311955677e-02,2.723564555892332012e-02,1.932441747518379854e-02
4.223588286479165732e-02,-4.993392948144451983e-03,6.566703570378920607e-02
-7.688162845736579154e-02,2.365115531260881393e-02,2.278986894499365062e-02
1.947471472624251248e-03,2.394895554481699454e-02,8.070356898824300462e-03
6.478988835657724377e-02,5.026964942292934391e-02,-2.850724570993364709e-02
1.436401034747190712e-03,-4.573939041991271354e-02,6.048508062889643155e-02
-3.624563395863267257e-02,3.883771523230999598e-03,5.531427383165062744e-02
3.032960019779774169e-02,5.250431062229985596e-02,-5.743867657883601485e-02
4.501210743205496384e-02,4.314794922312571723e-02,8.902964888689123349e-03
-1.143834246954739467e-02,3.103144815527483173e-03,-3.026556779344296774e-02
4.305139311150091297e-02,1.614576861680264500e-02,-1.222143233237110195e-02
-5.837527361301802359e-02,3.290130086961963463e-02,1.432198373968732522e-02
-3.497429351981012902e-02,-2.157754002509212204e-02,-6.822375889694752560e-02
-5.786768989759340232e-02,-8.398333114235061181e-02,7.416060015384109971e-02
4.317128862992245658e-02,2.758537077798964982e-02,2.000623147706002969e-02
-1.006021758879126161e-03,-5.522602888218484593e-03,5.398077537464169434e-02
-3.880714119658901923e-02,2.386824667784531728e-02,4.583972583448085031e-02
-4.196140393502429539e-02,3.111876818542779269e-02,-8.694831952925728691e-02
-3.571286728322067144e-02,1.259226479360974621e-02,-1.704232243775778179e-03
-3.344805051374814125e-02,1.032660835131849787e-02,2.291460289572792505e-02
-3.777721916747057984e-02,-5.864159659899697424e-02,3.610161294320562986e-02
6.529182442190748989e-03,4.606967842031876176e-02,-1.882478389964666043e-02
3.548260908848767381e-02,-6.087246090317426084e-02,-7.017285211230176421e-03
4.767323639833179194e-02,-6.978548284394853196e-02,-6.069539575469266174e-02
8.793381322042828629e-02,-5.858094754557040262e-02,-1.214577967478822074e-02
-1.413486583836336997e-02,4.901929397733646721e-02,1.801124819168163985e-02
-3.017957278880770838e-02,4.380783319460260922e-02,-4.410434082709165787e-02
-1.921026383937207704e-02,-5.963092889329542345e-02,-4.809286603707905311e-02
-2.093405552860069796e-02,4.915692981623215330e-02,-4.221996231564623808e-02
1.190406889765061212e-02,2.111937489445164795e-02,-5.185692979567116216e-03
2.010714036287074638e-02,-3.648998628832155616e-02,5.287285043597384632e-02
-7.307600505411180822e-03,5.539769612176772542e-04,-6.284182391614099791e-03
2.782802230254882714e-02,-3.263120984704106012e-03,-3.523847392523939137e-02
-6.481292157564463863e-02,4.427808909732755538e-02,-3.167374687341154016e-02
-2.168685622708443200e-02,6.088318801056123025e-02,2.144283760455490111e-03
3.225065882502994169e-02,6.623516001051565905e-02,-1.341026929102567822e-02
-1.066931243390921262e-02,1.058424629138105325e-02,2.942824181701784655e-02
4.553516922480302376e-02,-2.752606244264880347e-02,2.509992935612390813e-02
1.446249135553305011e-02,9.566376080777304032e-04,7.434559488422370910e-02
1.619899286116788196e-03,-1.112722596172996056e-02,1.359949315234552925e-02
-2.160289798969009314e-02,-5.166570568924330059e-02,5.398737819546481354e-02
-1.525884192829939090e-02,-4.627686549687933665e-02,-1.983416450066511488e-02
-4.109012148690700111e-02,2.361041220398026400e-02,-2.006397518836151167e-03
-5.508617792046540534e-02,-1.762383969748549523e-02,-3.095225772660965824e-02
-2.655224535180349121e-02,3.926976971303305225e-02,1.684336001873167413e-02
-3.526879326970084466e-02,-1.982771113552998093e-02,-4.811552301212652233e-02
-1.649978022721992552e-02,3.985964571421524855e-02,6.443885649551824024e-02
3.756529980541494645e-02,1.783737206390299682e-03,-5.733762255786769256e-03
2.407764210615197242e-02,1.747191657101765036e-02,3.005655456824243843e-02
-1.325301010372344386e-02,-3.450310376830821590e-02,-9.046853294815196400e-02
-2.763236314428873727e-02,2.069584913750690744e-02,3.119136785416806897e-03
-2.017709575003179615e-02,-3.658746884308494013e-02,-6.164834356954496802e-02
-1.420968124814759107e-02,2.233255203507049282e-03,-4.074028382694085126e-02
6.866857544910573430e-02,2.300929800646363266e-02,1.531870501190661649e-02
-2.226796155285549333e-02,2.106322112551323872e-02,-1.000100154729856132e-02
-1.060563151471071233e-02,-6.502264267837912226e-02,-4.604565598209454241e-02
-1.786157611862560293e-02,-5.555949503657931898e-04,2.841583809746687020e-02
-3.334542932772364271e-02,5.949609230542198673e-02,-2.736387813391186067e-04
-5.489924123518275662e-02,3.062372834382188352e-02,4.657256872374012681e-03
4.505787467861837453e-02,-5.173388556819265988e-02,1.245160916515912356e-04
8.423149028464109109e-03,8.663398413012983468e-02,3.643205028501937410e-03
2.351002476960388846e-02,3.252084823710849754e-02,3.168618723016752847e-02
4.244910585902757910e-02,-1.350720033666916002e-02,1.332589312268855734e-02
6.737481889139992908e-02,1.024119061021975391e-01,3.607215039799303857e-02
-8.638491709158169565e-03,4.358438059354918098e-02,-6.127218847052691431e-02
-4.751233982622474206e-02,-1.348897655653549625e-03,-2.288133318179656414e-02
8.043020993857830092e-02,-2.679402224895740051e-02,2.003948398966451383e-02
-1.630557042170982171e-02,-6.970245276458347447e-03,-1.362054944750772318e-03
-4.179703450305686380e-02,-9.828625923556988386e-03,-1.849734558132998599e-02
1.207092319535377212e-02,-5.199847316456168017e-02,-1.433481428597080734e-02
-3.766677134386791498e-02,-4.904463065619100309e-02,7.617130837873460625e-02
3.317809273363184902e-02,-1.901930460754565344e-02,-2.027084042713663079e-03
-4.836980345440338586e-02,-3.055286122541221033e-03,-2.997357063748316147e-02
-5.547277057631385538e-02,3.817309335793677566e-02,-8.296066360266131368e-02
-2.639646797956224041e-04,4.981415568779623548e-02,3.309220453757040492e-02
-4.405390248403625447e-02,-5.639626336428843478e-02,-4.087192650499515273e-02
2.452239834867505838e-02,-3.289280833231547022e-03,9.658112896333986841e-02
4.552783288413365936e-02,-7.504784901024968632e-03,4.846249091212340154e-02
