accel_x (m/s^2),accel_y (m/s^2),accel_z (m/s^2)
6.266184791183788787e-03,-3.180376017871680647e-03,-9.785357728064401073e+00
-1.650426222672174946e-03,-2.325050941880645473e-03,-9.823866271538008732e+00
-1.080467988876779133e-02,4.972355583399870431e-03,-9.789042958730643562e+00
-1.635550346538890837e-03,5.961357991377451079e-03,-9.785240960634913776e+00
-8.027523656770816068e-04,-3.008112577208928509e-03,-9.787053731511210941e+00
2.093140877227654510e-03,-2.938431673349710220e-03,-9.783495690022149915e+00
-4.558352446935578714e-03,4.440917961905144901e-03,-9.807258511691902214e+00
-8.437901079438001354e-04,-4.052735618984844410e-04,-9.797306803329680847e+00
-2.539735390749706459e-03,4.862158423090110794e-03,-9.803053127954726165e+00
5.922531297520732853e-03,1.222182801897785283e-02,-9.795160397361220461e+00
7.868675937370160980e-03,3.233731215621084894e-03,-9.798682661468472332e+00
-1.631103172512026866e-04,-2.630751980623137563e-03,-9.815497785305181466e+00
4.329206265879189156e-04,-4.351340061701290760e-04,-9.797976516407389980e+00
6.442577414696421846e-03,-5.903533661884492398e-03,-9.791012649077185159e+00
-1.477845866893075753e-03,-7.947029856690121172e-03,-9.795129119444400345e+00
2.187909112359214415e-03,-1.012177240340272379e-02,-9.807813841424836809e+00
6.535433562724008230e-03,-2.432251414212405986e-03,-9.808383361480073503e+00
1.006929105571826612e-02,6.616678825867205321e-03,-9.800348279083900493e+00
8.828314549120343246e-03,1.038698061185968410e-03,-9.785842892003064009e+00
7.691900628077869007e-03,6.213758267538887527e-03,-9.791557679664007807e+00
2.755920921439915499e-03,5.290745040983648676e-04,-9.800884110575683650e+00
2.022322076434580895e-03,-3.266072212928675198e-03,-9.812906298628941926e+00
1.832071327477624882e-03,-3.890808348800893924e-03,-9.770925149175718971e+00
-1.784553737396492095e-03,-2.254336292476338734e-03,-9.789070081293028025e+00
4.157351261735911692e-03,-1.536434419209266843e-03,-9.790446251224269147e+00
5.700223487810742243e-04,2.172336387420217298e-04,-9.812248742031105309e+00
4.826651211408547948e-04,7.215477574905422402e-03,-9.794037720624247711e+00
4.482196437030894903e-03,-1.189312119622882094e-02,-9.800050778628786929e+00
1.612294749987021715e-03,6.480255491509153559e-03,-9.789611376243156471e+00
8.740346699200965972e-04,2.603329132377730452e-03,-9.786505355126786654e+00
-3.897011821619803581e-03,5.530978187546786891e-03,-9.805957426237307928e+00
-5.203675843563172927e-03,-1.066221899582200666e-06,-9.774315516877722487e+00
-4.858873454181161095e-03,-2.330374462718706741e-03,-9.794808265742062758e+00
-5.828777083257102865e-03,2.575185397541968763e-03,-9.805819641907971729e+00
-1.209257222945151443e-02,-3.601281607120582987e-03,-9.815367693976979169e+00
3.169726908958779218e-03,-2.197150460533038932e-03,-9.792533395998338719e+00
-6.747862859280555001e-03,1.121039534457499848e-02,-9.792147332235787260e+00
1.190860932035303936e-03,-4.048795123638856963e-03,-9.794244820053169320e+00
3.804998266592269068e-03,-9.222825597353169784e-04,-9.792479904811752789e+00
6.743786818233259671e-03,6.359206962110891016e-03,-9.808352727083960332e+00
-1.656540758992842283e-03,3.354421881520119279e-03,-9.794365267800255737e+00
7.539702069329402151e-03,-4.599731476913483663e-03,-9.792651456954621025e+00
6.157868622861602942e-03,-1.105600332316144900e-02,-9.789897622201829464e+00
-3.974198653670191726e-03,-5.235047696092114990e-03,-9.788715739129767002e+00
-3.207785277395856175e-03,-1.626843550017431769e-03,-9.796768533069743157e+00
-1.854555195644866112e-03,-7.952185983490128382e-03,-9.809356642287697881e+00
3.294601868312185908e-03,-8.937515917346785382e-03,-9.805584118316748032e+00
-6.413441932375958318e-03,1.867606933619237917e-04,-9.789742391581100378e+00
-1.115330158653815573e-02,6.832610859345591460e-03,-9.803429547081886852e+00
6.950075482935151074e-03,4.160384068619189801e-03,-9.782744830664190872e+00
2.300728351025950209e-03,-2.030604493102438745e-03,-9.800482296438188357e+00
-1.061181402561956269e-02,3.619798572154812270e-03,-9.792799632321756320e+00
-1.780948472256253714e-03,1.799577445856330492e-03,-9.797873370780619595e+00
-2.088005807339996054e-03,-1.768800255545975716e-03,-9.792126140701945758e+00
9.962554158184796734e-05,-2.599791386746535139e-03,-9.787938916729531869e+00
-4.484593600112425291e-03,-2.882143990160715343e-03,-9.794444812884275819e+00
-8.652931367584716779e-04,-5.043228109679040233e-04,-9.800018698762819724e+00
1.817919614438701396e-03,5.466034944481355795e-03,-9.796655310843451758e+00
3.098474347881056794e-03,-1.237923188554678096e-03,-9.799697506976285055e+00
-3.609865169389545655e-03,9.194293769007367851e-04,-9.797720850389662672e+00
5.701334186779058108e-03,-8.126206178898948140e-03,-9.776691797583819010e+00
3.384919551382661223e-04,-4.149806440845419005e-03,-9.768192718133750674e+00
8.361829148240443668e-03,-5.520779568092773308e-03,-9.786544522017935677e+00
-5.042174051435673390e-03,-2.352223819230744948e-03,-9.793191964596614341e+00
1.396615398106569985e-03,-6.799055111188402264e-03,-9.791810114163213896e+00
2.860105609661480527e-04,-1.710226108059215242e-04,-9.787272315561580172e+00
3.234658691582502268e-03,1.278876629456959183e-03,-9.792190351189494990e+00
8.395662162023264730e-04,3.590379232041196033e-03,-9.797315605277781003e+00
-4.307209741208856656e-03,9.984767226498460907e-04,-9.801028769473949964e+00
-2.625564434286184207e-04,-3.935311818374070806e-04,-9.796569186509042737e+00
-2.768325013916573488e-03,5.086087208760608179e-03,-9.803210153783599168e+00
4.015183570374765290e-04,7.718659878869530647e-04,-9.802804006244137724e+00
2.276090144870366715e-03,2.392033162133668043e-03,-9.793927529496025741e+00
-2.389478944080862532e-03,-2.302869235163851423e-03,-9.791778626187243262e+00
4.548225142840939955e-03,3.554999848197463747e-04,-9.799487833245445145e+00
-5.610319907457438082e-03,-4.657057902122910265e-03,-9.796682197082825283e+00
1.148601906225206817e-02,4.060821574766194757e-03,-9.790976436777290459e+00
-9.191779409638538983e-03,-6.450008492090307868e-03,-9.799264825997541450e+00
2.296466781308765560e-03,4.505494063528275167e-03,-9.782902540896815324e+00
6.544133755164325758e-03,-5.344247173631255093e-03,-9.789486556291553399e+00
5.738874849188751147e-03,4.179649032342415763e-04,-9.799063893832158811e+00
-7.739562419182139698e-03,9.259549125214103140e-04,-9.800523121879717081e+00
6.014109888629728951e-03,-2.642910649174968173e-03,-9.780556896983696902e+00
2.549571668649798332e-03,2.385519032693405770e-04,-9.800123059530330139e+00
-5.053412340874159810e-03,-4.726222354695036772e-03,-9.805867436867494291e+00
5.739913070537851734e-03,-1.176703922414698567e-02,-9.800130249216399747e+00
-1.639534158936844209e-04,2.878163746345580812e-03,-9.797687101351330696e+00
-1.187770438190592420e-03,7.623920803681961218e-04,-9.790584773813511887e+00
-3.454890422668627052e-03,-6.174118246817884847e-03,-9.799833164828466892e+00
3.316344578618045554e-03,-5.167849809925365891e-03,-9.778014487005284749e+00
4.923673582017012648e-03,3.045794409825703427e-03,-9.785706976088839326e+00
-3.643977885992545022e-03,-5.381256489731645054e-03,-9.807401410306370693e+00
-7.209071757699325213e-03,7.176003212149026887e-03,-9.794122440588484579e+00
-2.740646111841023649e-03,-3.617036288979386550e-03,-9.791209303436412270e+00
5.305730370869746193e-03,-6.486401869906175018e-03,-9.779730969063772150e+00
1.101582958494674511e-03,6.348081355399174709e-03,-9.801464756604671535e+00
-2.692013943656403497e-03,6.737729317311388563e-04,-9.786579719891339124e+00
7.275905470913101528e-04,5.888166454592193982e-03,-9.800275329539244851e+00
-9.021822311869955729e-03,1.344954372063421506e-02,-9.788752676137814746e+00
-9.227109754278645451e-03,-3.540086035975409731e-03,-9.804268925043668759e+00
9.581450657533832974e-03,2.603563148841601116e-01,-9.778392939132283246e+00
7.812276825601701530e-03,4.981990766059046227e-01,-9.796863765289074877e+00
2.972253953692017940e-03,7.097843184105250280e-01,-9.772765995951164797e+00
2.896476095175945942e-03,9.012935410711460094e-01,-9.801358834176081558e+00
-8.071196019328440857e-03,1.074950852744352758e+00,-9.802715782301643088e+00
-5.406475604691820050e-03,1.228339918841769407e+00,-9.801076573618326293e+00
6.902160569962770623e-03,1.368287164096975594e+00,-9.786666046850626799e+00
-1.124077222178815295e-03,1.502607360703620776e+00,-9.799604737988294900e+00
6.597333009114137543e-04,1.609304632184879846e+00,-9.789294860471958515e+00
4.786643055543359990e-03,1.705532768457512782e+00,-9.787306017797096303e+00
8.625234586513423618e-03,1.784073259962865698e+00,-9.803958165478329434e+00
5.075283600862749191e-03,1.878343282850926332e+00,-9.795006338023704018e+00
-6.470021001311580464e-03,1.951073010339190894e+00,-9.792418264942980954e+00
-3.383047917147601925e-03,2.016680897232069114e+00,-9.778549330832305486e+00
8.443889928984640294e-04,2.086663529316855392e+00,-9.787307311964314138e+00
-4.467658492421088283e-04,2.133697210763933594e+00,-9.795049132866664010e+00
-2.431528624793690817e-03,2.179757529582867726e+00,-9.797394403089976223e+00
5.784187168004758205e-03,2.222438552244868415e+00,-9.794956247973853891e+00
4.033705276182021106e-03,2.267674506826200531e+00,-9.795430439004960022e+00
3.448193381756123842e-05,2.301067181669558259e+00,-9.799818799128642510e+00
-8.454346027892360033e-03,2.333569024824760252e+00,-9.795670240950615337e+00
-3.919881412850103122e-03,2.358492128260245124e+00,-9.792571909277050679e+00
-1.637111042124421477e-04,2.385066468908067616e+00,-9.790005613354294312e+00
2.148064803129838118e-03,2.406136805477430585e+00,-9.787920442609632232e+00
4.779384672490278978e-03,2.432255272697466886e+00,-9.801621291712834250e+00
-1.826010168612165769e-03,2.456257649665903653e+00,-9.807309335195411037e+00
-1.170971747241337201e-02,2.464276826363516193e+00,-9.797201279585749489e+00
6.131654278124955412e-04,2.478659965807876731e+00,-9.811033066528660029e+00
2.163612168640043857e-03,2.499273881753137694e+00,-9.800383737142528418e+00
2.529811455911640770e-03,2.507000413137113970e+00,-9.798661135135477096e+00
-6.655984700211516579e-04,2.522548411097930821e+00,-9.802428899770506021e+00
6.387589168839951509e-03,2.532437221949225048e+00,-9.802283919055156503e+00
-2.389204961239425537e-03,2.536345532991449048e+00,-9.799265731075163188e+00
4.098851742127334989e-03,2.540709633325682670e+00,-9.809175062117256871e+00
2.346743113761058988e-04,2.545426936199271850e+00,-9.780093944214728552e+00
-2.497375872617684737e-03,2.554821306178525653e+00,-9.803458092776647703e+00
1.138073262103537304e-03,2.557215224134158582e+00,-9.806914543515727445e+00
-1.104557631414772182e-03,2.574539054526185478e+00,-9.815280909205780446e+00
4.662368703585214463e-04,2.574952760617613912e+00,-9.799568922163979678e+00
1.575572301345289777e-03,2.574550328432854140e+00,-9.808525440537545492e+00
2.385511748305635220e-03,2.579942236208454087e+00,-9.794127274698476882e+00
1.027285747439158660e-02,2.582105980094972608e+00,-9.779551644818573308e+00
-2.999100161486539622e-03,2.583788833483859904e+00,-9.796185747749314388e+00
2.697741266658445786e-03,2.590578095913359746e+00,-9.783118720940693791e+00
-3.074313056431473602e-03,2.592239691396041490e+00,-9.790540052004001126e+00
1.118372316047998305e-02,2.601551820516649904e+00,-9.786318790637176690e+00
-4.287825614583945684e-03,2.613153296815657889e+00,-9.804519574493689049e+00
3.432531860727270224e-03,2.594398445658011365e+00,-9.793985918447400962e+00
1.103381055304608789e-02,2.600820481881537027e+00,-9.801854137711403681e+00
-3.344609148479602001e-03,2.603223115863215753e+00,-9.796078533181530545e+00
3.372001014564662857e-04,2.606851128192920974e+00,-9.785321114640098017e+00
1.139584926681526042e-02,2.602489942705179526e+00,-9.786474100854553271e+00
4.006284285104000885e-03,2.608028029258952607e+00,-9.793330913170217755e+00
-1.583154438625497876e-04,2.609788794708689519e+00,-9.802153847788934726e+00
1.053268165097526188e-02,2.607732293991990247e+00,-9.804317848738895336e+00
6.868240606810972412e-03,2.606384986622205524e+00,-9.785444863126311787e+00
-8.959716702385069759e-03,2.611389961548360894e+00,-9.796231178635091297e+00
-9.628877625420216579e-04,2.608986290195768554e+00,-9.804236459182085639e+00
4.605191675430421569e-04,2.621038412612043178e+00,-9.781022369673287642e+00
-8.289240686274103320e-03,2.607146236929608563e+00,-9.786725825452201377e+00
-2.712729865008047924e-03,2.607047214875324759e+00,-9.793586975473710154e+00
-7.846577373129501667e-03,2.619652759011395382e+00,-9.795062630332022735e+00
1.568866987781063248e-03,2.611554495518626062e+00,-9.790648966141032972e+00
-9.050299850791092239e-04,2.612527326683187212e+00,-9.796224410098790969e+00
7.361182857171291163e-04,2.619402244041507455e+00,-9.780963900231954611e+00
3.440169978732814712e-03,2.614726539529298233e+00,-9.805796834925816441e+00
-1.375626173262760278e-03,2.616157331099365990e+00,-9.776475720698913463e+00
-4.186020283197137114e-03,2.612522751451810787e+00,-9.782145953122300952e+00
-3.126092067147971231e-03,2.614647695460520893e+00,-9.786427493579187953e+00
3.359849584056995731e-03,2.610480826877455751e+00,-9.799138224753551896e+00
8.731712411086887385e-04,2.603627284973540235e+00,-9.784862020487427259e+00
-3.130549557013074385e-03,2.616859171521802363e+00,-9.791726978176527041e+00
5.322663350791343936e-03,2.611428619835400866e+00,-9.793168083284999881e+00
-8.804327378917098032e-03,2.629066181971749572e+00,-9.798537197777330121e+00
-5.282844186922622427e-03,2.615349484172976968e+00,-9.790471659885277234e+00
3.941913757069689613e-04,2.610321234463693685e+00,-9.790793624359093172e+00
-6.661789986400460870e-03,2.629972176236408554e+00,-9.809009432241152737e+00
4.108719123593844620e-03,2.620193239849238687e+00,-9.777498806428166489e+00
3.575978576655462586e-03,2.617762438666768166e+00,-9.805106161149724997e+00
-4.337851140554452832e-03,2.617758288332711736e+00,-9.802484582637536192e+00
3.188016862682911765e-03,2.622058025232267831e+00,-9.802306504840542445e+00
4.451248532712013921e-03,2.612747974041648380e+00,-9.795925755806129231e+00
-4.972002202802351840e-04,2.615114444650030290e+00,-9.798246722019447574e+00
3.754694196041954632e-03,2.622881710109179920e+00,-9.795828726483469140e+00
5.206400016554578805e-03,2.630880201813750485e+00,-9.793037318906552713e+00
3.713773054827498952e-03,2.607898402691688045e+00,-9.799325327300003607e+00
4.139966742613253141e-03,2.622022097492897164e+00,-9.770437274747797218e+00
2.561338722094331187e-03,2.619584339385091276e+00,-9.799545121729176245e+00
-7.244858012546351832e-03,2.628612034114315321e+00,-9.789542842004678391e+00
-2.256581988916256734e-03,2.621796967301968095e+00,-9.777583666312608557e+00
-5.618229572295047047e-03,2.614391440965013746e+00,-9.796218505691330236e+00
-1.295868869893577460e-03,2.618344010715158987e+00,-9.810712301631136611e+00
7.718556184374295026e-03,2.618311939563528590e+00,-9.791069084663183375e+00
3.015924087501484479e-03,2.618518114902406602e+00,-9.815641995606613435e+00
-4.888884643554896464e-03,2.625838666968074442e+00,-9.795608058502764948e+00
-1.118557453434552117e-02,2.618672956943508545e+00,-9.798007592840518143e+00
-1.761593312581407472e-03,2.616170756426483113e+00,-9.795844735064351383e+00
9.791537893859099048e-03,2.618104986570683135e+00,-9.794002757191673680e+00
2.342950127812457560e-03,2.612533030174387871e+00,-9.792245417198882862e+00
2.577720317259879750e-03,2.614142470876610780e+00,-9.808552596654688926e+00
6.979140240642923336e-04,2.625205416807645520e+00,-9.786262247864922159e+00
-8.928165594521943887e-03,2.624899689735693542e+00,-9.795562310224278590e+00
-5.721767220317336422e-03,2.614440473456367986e+00,-9.805494643993979409e+00
1.390576930875690037e-03,2.627081484729348659e+00,-9.790914488013925165e+00
2.690242320414787391e-03,2.610893010145565185e+00,-9.792431143293422124e+00
-2.355817467896540156e-03,2.619426497222334671e+00,-9.810502574146056531e+00
3.757892053793708727e-03,2.623755605955767845e+00,-9.780759749834645689e+00
3.876697218462092295e-03,2.624430104395546692e+00,-9.794671896050472171e+00
2.858147214760461702e-03,2.617878280388842072e+00,-9.795167916290536070e+00
-2.179588351875006227e-03,2.621498677070857930e+00,-9.801576196279464526e+00
-4.328630843420346562e-03,2.624867197861947332e+00,-9.791224600432196112e+00
-8.937413955920507636e-03,2.612788452161314723e+00,-9.809494512537279221e+00
-1.588135668224701768e-03,2.607362384245528020e+00,-9.803089523105924741e+00
5.962434249902909093e-03,2.619611702397704800e+00,-9.801385092190212589e+00
-1.064015475400391765e-03,2.624346439023272914e+00,-9.799938568429853447e+00
1.767311994845906968e-03,2.620065357861431465e+00,-9.801258944061990164e+00
5.584353220720559251e-03,2.612396659812949551e+00,-9.794113896124228447e+00
2.276254124702514932e-03,2.611163853755460895e+00,-9.800841577597790177e+00
5.540768223937724869e-03,2.616450123429141073e+00,-9.803527853511670997e+00
6.096009572806933285e-03,2.623990031109358245e+00,-9.791006171580102446e+00
-7.286992409045720855e-03,2.620123550816669589e+00,-9.786032997644767306e+00
-1.237166072431707163e-03,2.616857243926769439e+00,-9.796067081385100295e+00
6.523366479938306171e-03,2.618637970580220298e+00,-9.793184332214774912e+00
1.438764710158125810e-03,2.614753699953306310e+00,-9.802090411940627135e+00
2.547553103561305075e-03,2.610917984533787983e+00,-9.803514757768384769e+00
-2.375327821961989785e-03,2.624810331859574575e+00,-9.788224671675338939e+00
1.196638723354745979e-03,2.612658564902129665e+00,-9.799925544156996793e+00
5.930678829618016637e-03,2.615967457603492807e+00,-9.804017950095575529e+00
-2.221572264149309847e-03,2.616928091560787095e+00,-9.798530729240020776e+00
-1.005089893138139817e-02,2.614451050158895562e+00,-9.790927336363328237e+00
-8.066682150280054392e-03,2.621011985730969496e+00,-9.799574394392905674e+00
-8.728800361210984834e-03,2.621303174175168671e+00,-9.801017869627862922e+00
-4.380962149411786401e-04,2.611681677656646272e+00,-9.790988245701568005e+00
-8.550107530046562564e-04,2.616558451703115296e+00,-9.788683853065949236e+00
-2.853412688541482993e-03,2.614137175640068200e+00,-9.796441998930184525e+00
5.285680558593605465e-03,2.613649514980238564e+00,-9.798909326674372977e+00
5.562252752722229117e-04,2.616261068227994535e+00,-9.779724270452961221e+00
-2.906539508638454898e-04,2.625452313498361612e+00,-9.782415490462661012e+00
-8.747477340036127107e-04,2.619036140324511042e+00,-9.785120548212608682e+00
-5.336789126443942759e-03,2.614089080201186022e+00,-9.790457150987625923e+00
2.156181826189881336e-03,2.611390966110322953e+00,-9.800827794736919785e+00
3.872084261218608839e-03,2.620624841252880088e+00,-9.788336480409233431e+00
-8.776378365214677554e-03,2.607422413178124287e+00,-9.804590244313077463e+00
7.260895692746629007e-03,2.617576067483649016e+00,-9.784947867230341600e+00
1.413930643643289094e-04,2.618081328127981777e+00,-9.770107786483771761e+00
3.627656355158707067e-03,2.619098989513076070e+00,-9.788614629413990187e+00
-7.035680554273399633e-03,2.616629201679431471e+00,-9.779494686592686392e+00
1.770078723806639207e-03,2.619421719351908706e+00,-9.790581447673760707e+00
-8.596819762612405852e-03,2.619160685374176900e+00,-9.788787191791749720e+00
-3.872092429073308289e-03,2.620031915709935877e+00,-9.808617986672441447e+00
3.288192089149035487e-04,2.616369818201095931e+00,-9.786026584025643515e+00
1.028853495857390277e-02,2.607775197515703969e+00,-9.802091077877497227e+00
1.209119859558823622e-04,2.607702573746468300e+00,-9.796528871097837765e+00
-6.780490570443973436e-03,2.615618675249350655e+00,-9.777217881738634375e+00
-2.037435105401211831e-03,2.616133162553399671e+00,-9.808019917684159594e+00
9.499250183351410325e-04,2.628227463959597721e+00,-9.790196676733376790e+00
1.149558959061321682e-02,2.615466892022558998e+00,-9.789767099376058823e+00
1.647699834428161848e-03,2.607037146543425443e+00,-9.793684935365224220e+00
1.054512222973699688e-04,2.619442657309345446e+00,-9.800608286634323818e+00
3.811527358016643559e-03,2.628994888142409891e+00,-9.789673168916451118e+00
3.704015174270801087e-03,2.613993934469710290e+00,-9.805214744373559554e+00
-1.821304473089140497e-04,2.611652143835023754e+00,-9.786467137334520672e+00
-1.042095951389127376e-02,2.626217265216231667e+00,-9.803273733645950117e+00
-3.125234615623658126e-03,2.619259452088625650e+00,-9.792719212333974355e+00
9.157272050813199506e-04,2.615823538449780106e+00,-9.801598142989581319e+00
-2.511781808140100668e-03,2.619379944209145439e+00,-9.775210910256490138e+00
-5.075308241303900202e-03,2.617627621903635848e+00,-9.813856034757058922e+00
-1.319286712327082979e-03,2.626209762419285720e+00,-9.795400341546834255e+00
9.982955325589565245e-04,2.617012429277273178e+00,-9.804770474844371364e+00
4.697597467612898460e-03,2.612131870916296617e+00,-9.804523052253744098e+00
4.112920005446137409e-03,2.621460970444809746e+00,-9.809869311389503466e+00
-5.355048346638286924e-03,2.609229277956438331e+00,-9.790393416247120228e+00
3.430319612782119134e-03,2.612343696195260634e+00,-9.792617369251818360e+00
8.825287739114985597e-03,2.622535217509732952e+00,-9.798848244798799456e+00
4.062900481720339331e-03,2.605569800687056681e+00,-9.785531731753263074e+00
4.486396572265111300e-03,2.626448390842635483e+00,-9.800606233946863810e+00
-5.132640275588317737e-04,2.615267056318804073e+00,-9.798859819992371101e+00
-4.655011964730936327e-03,2.609644801031938410e+00,-9.798822203205020287e+00
-1.127322522574799799e-02,2.617489130989631541e+00,-9.797254093432659516e+00
6.265948786649397015e-03,2.613212331363377494e+00,-9.798292506239658195e+00
6.132927055274897329e-03,2.620082418652326606e+00,-9.784646549069018207e+00
8.293203913479903558e-03,2.615712382537832337e+00,-9.794715966855982003e+00
-4.775602232430392960e-03,2.620853996702730004e+00,-9.802558321016103804e+00
2.749297320910034596e-03,2.622126183491551021e+00,-9.800886375406438589e+00
1.014149439454751882e-02,2.617890489189075076e+00,-9.790351731272251001e+00
-3.322532890014335345e-04,2.620991912169524429e+00,-9.795585025247333988e+00
-3.853482473699275206e-03,2.613775785997271228e+00,-9.787631701882530066e+00
-1.044258085802731058e-02,2.614616636827844065e+00,-9.809079533923721783e+00
3.057953935144283163e-03,2.615047782730244741e+00,-9.802640282213802791e+00
-1.218343589483963582e-02,2.625702494992662395e+00,-9.810314044116998033e+00
9.217698552587923200e-03,2.619679819665693188e+00,-9.806155101949448394e+00
-2.085894392424873171e-04,2.618799892663910889e+00,-9.793613355152125166e+00
6.713149406713492598e-03,2.618245719457300780e+00,-9.795156779755998855e+00
7.562395829557698977e-03,2.617993929508529494e+00,-9.795279637774521930e+00
-1.610998572939179811e-03,2.617688479526640410e+00,-9.791569854757026903e+00
-1.781865242758482251e-03,2.622323324399832067e+00,-9.802163830165820713e+00
-7.213727994430601089e-04,2.616172346700926354e+00,-9.793245806071478654e+00
-5.776778847251239427e-03,2.616951515558185726e+00,-9.792257530455465542e+00
1.557083719829004359e-04,2.613559234552216726e+00,-9.788661436193098808e+00
-5.557967391057362302e-03,2.610808833422753494e+00,-9.794240159007898683e+00
-6.581171761620352098e-04,2.611766635754082522e+00,-9.802385516944159605e+00
4.771420673563980808e-03,2.619511208783161127e+00,-9.793204394195489826e+00
-3.019668371329443414e-03,2.616803098818559103e+00,-9.794730668727206435e+00
-6.998578755528548452e-04,2.621400747709122125e+00,-9.798148620619636873e+00
-5.265371824836435725e-03,2.619600060969049071e+00,-9.797333467314775390e+00
6.116038778829004617e-03,2.618532837021867454e+00,-9.805020113848163632e+00
-8.959960237978374306e-03,2.608824394911331890e+00,-9.783396772627126481e+00
6.007772845193750039e-04,2.624948025708226496e+00,-9.796569365258072537e+00
-1.444256971003526598e-03,2.618445041061959966e+00,-9.806631204567217708e+00
-1.967517052329582298e-03,2.622465567250229057e+00,-9.789595393015339653e+00
-7.216308158234814411e-03,2.614575221282571249e+00,-9.793000190135101590e+00
-1.228448518878523955e-03,2.617515554924628063e+00,-9.779701830646569505e+00
1.842128831845369231e-03,2.608262069899540680e+00,-9.788327693087030212e+00
4.529980839376276242e-03,2.606506037571612477e+00,-9.777544571544165564e+00
-3.065053867368863511e-05,2.624844181871094140e+00,-9.797419232919368781e+00
-5.941644686513892874e-03,2.612757809700883005e+00,-9.794141520858058669e+00
2.115436266090578010e-03,2.623217757869787725e+00,-9.789715455560925150e+00
-3.340780392131340645e-03,2.616136429417974973e+00,-9.781134539625512048e+00
-3.119387859569628632e-04,2.619322878692861511e+00,-9.792155313270059835e+00
6.296967753696963016e-03,2.617374939023844771e+00,-9.790862956321920052e+00
2.648367125374853290e-03,2.621605668008121892e+00,-9.807158948302697965e+00
4.318076533536185403e-03,2.621699525800929464e+00,-9.795056262126498936e+00
-8.920094573140292327e-04,2.615457682017670926e+00,-9.806695898544765200e+00
-9.012239762748971636e-03,2.616580992763712477e+00,-9.787141184269700034e+00
3.560971692476756940e-03,2.627092929444345693e+00,-9.793930846612818542e+00
5.268891879785444522e-03,2.614025721482535314e+00,-9.782842519265450676e+00
-2.704023458089633235e-04,2.617851768671067170e+00,-9.802031395521321855e+00
-2.485333350838238829e-03,2.607312561041728483e+00,-9.786259818375221187e+00
1.909925573225293438e-03,2.622930659329325564e+00,-9.799252371896175262e+00
9.177295115667142775e-04,2.608855949869074653e+00,-9.800244498715837693e+00
7.900425651902931359e-04,2.618475161686447006e+00,-9.811489586610292690e+00
1.328420239495231234e-03,2.614403040489384100e+00,-9.783245742281986068e+00
2.054548894219960023e-03,2.622871413130864138e+00,-9.789968810091163931e+00
1.037194019948001374e-02,2.619359106689690186e+00,-9.801439292810188775e+00
3.518530642306921374e-03,2.616022617882736157e+00,-9.791711524871855588e+00
6.458697910730517265e-03,2.615729930573828188e+00,-9.788136100036409104e+00
-7.378849669956376658e-03,2.615396479470472713e+00,-9.791851672421882924e+00
-9.418805265454826452e-04,2.618523307061655814e+00,-9.804478362015309756e+00
4.443726497763948388e-03,2.626910886537075829e+00,-9.802162971385460111e+00
-5.512549561514724960e-04,2.615591614552305266e+00,-9.788979680779849701e+00
-2.125682509035281206e-03,2.613085058991633680e+00,-9.788196816884013884e+00
2.337230979366206225e-03,2.618423520591346421e+00,-9.799369463929883395e+00
-5.383701930683899156e-03,2.618830542224828584e+00,-9.791147009101893062e+00
-5.216862162586433961e-03,2.608187276847198977e+00,-9.806615832458289717e+00
8.774473977950147593e-03,2.611351807534744385e+00,-9.798805934929385231e+00
-8.115708436498430406e-03,2.612504630237723724e+00,-9.800875125171751634e+00
1.244701569497631312e-02,2.617470080800612831e+00,-9.801352484599888726e+00
-6.426442342598236114e-04,2.616707516968184599e+00,-9.808671834635545039e+00
2.669305788492020229e-03,2.616388872572402047e+00,-9.804201047402814950e+00
1.001100944941421718e-02,2.622969477527542281e+00,-9.799908187448213681e+00
2.782797673883556969e-04,2.610442412832576498e+00,-9.798936814834192432e+00
-6.918413836879291987e-04,2.609200417587849152e+00,-9.791309097319910393e+00
7.834492201616959431e-03,2.630774503065529846e+00,-9.781554380697423667e+00
-1.905199168455550939e-03,2.630335002949367951e+00,-9.788473450921037156e+00
-2.952251290855834563e-03,2.620836453910821540e+00,-9.782021882193188134e+00
-4.702654122565913162e-04,2.620263861393274052e+00,-9.773190109704597006e+00
-2.386565729744319873e-03,2.623385256936443533e+00,-9.788872997736326909e+00
9.574578816451613820e-04,2.624543645595589059e+00,-9.792759319195845080e+00
-4.347628658373928374e-03,2.615915497428598524e+00,-9.798060910992514749e+00
-1.995567049941710663e-03,2.623367914109679955e+00,-9.806248276376599904e+00
2.111398102601119882e-03,2.623206390010635047e+00,-9.799047881862703591e+00
-5.176468631051238216e-03,2.625425991422544403e+00,-9.814438350730048555e+00
5.079809796725873877e-03,2.619367186076875686e+00,-9.784316857394419031e+00
2.509936755504306623e-03,2.614909741041783864e+00,-9.792389321730547991e+00
-1.278661252264712972e-03,2.618144641644768011e+00,-9.797179681503049409e+00
2.377124933988722724e-03,2.617676960903123184e+00,-9.775169954925019056e+00
-1.923256853190770561e-03,2.619770166116421883e+00,-9.794842452841541203e+00
-1.047241730785580804e-02,2.619520273127002863e+00,-9.796778559747474802e+00
2.604103905177109022e-03,2.616804643840062283e+00,-9.790872518809257130e+00
3.040512901815222747e-03,2.616717138383351848e+00,-9.798333139758021559e+00
1.201878615221952567e-03,2.632952585017982017e+00,-9.794344811992095501e+00
-3.920383919025734361e-03,2.615045135932524634e+00,-9.786604510018685588e+00
4.531360209584119059e-03,2.616599853450523039e+00,-9.793797157984762691e+00
-7.103946550035706957e-03,2.619746795680717888e+00,-9.805242785079864021e+00
-2.497026240948090753e-03,2.615212248573107079e+00,-9.805295679364702366e+00
-1.983226844337990409e-03,2.623636051536745839e+00,-9.801972597001364917e+00
5.737732018245711094e-03,2.619817141608553168e+00,-9.809323128441180373e+00
5.885640484321919517e-03,2.622034215895808096e+00,-9.794352889621206870e+00
2.549320638683484890e-03,2.617540571067724642e+00,-9.791821567256516090e+00
5.894096574504202601e-03,2.610849803095728561e+00,-9.789501657038751858e+00
2.899934465884064245e-03,2.619780249376466585e+00,-9.794636677068320196e+00
7.532020788080652333e-04,2.619176334422123276e+00,-9.780330932528066512e+00
-3.551174876651129551e-03,2.614928229268328241e+00,-9.796673152974772592e+00
8.743289341262401593e-03,2.615841323680580643e+00,-9.786154357775215473e+00
5.024446109266041648e-03,2.608304073204738227e+00,-9.799654465045415819e+00
-4.537709460913199981e-03,2.622909498915286797e+00,-9.790331792593011784e+00
6.862435163929368840e-04,2.623638577511624881e+00,-9.789954261451256912e+00
-2.692385643112306295e-03,2.613466161927920250e+00,-9.776706069306600355e+00
-1.611606052195957211e-04,2.617619992333849233e+00,-9.812150034921007347e+00
-1.164050452028398460e-03,2.618047252738671560e+00,-9.810874037936979875e+00
5.148022464950369366e-03,2.620273520222113017e+00,-9.783654844608843604e+00
2.929020898224322239e-03,2.617539758923279170e+00,-9.796144632558382526e+00
-5.509058996822616475e-03,2.612099516616185557e+00,-9.795966152645812386e+00
-2.155339431653447834e-03,2.621696940949633792e+00,-9.803134710273686991e+00
4.599895819009646239e-03,2.619526574085091930e+00,-9.798533700850400763e+00
3.196283769581815225e-03,2.611595595461072783e+00,-9.809844846318904743e+00
3.730502234232165905e-03,2.617777042145507327e+00,-9.796979928619826694e+00
-9.027691551354705829e-03,2.618300084346426804e+00,-9.796084047943212525e+00
-4.890911643022186235e-03,2.625603679516297362e+00,-9.783898737805781565e+00
-1.041994931066550674e-02,2.620256293114908708e+00,-9.805936026248277315e+00
-2.701592073584008734e-03,2.623669368914777866e+00,-9.789020739245357206e+00
-6.552002955673590957e-03,2.627475679709383005e+00,-9.801451274403408576e+00
1.793043141889277261e-03,2.619332154459391049e+00,-9.795806926340663523e+00
-7.070946337765137086e-04,2.614454773931505382e+00,-9.785808659275755161e+00
-4.226317852720518596e-03,2.618307429735589498e+00,-9.792328638679407504e+00
-5.994884602589429547e-03,2.604639038520197847e+00,-9.796149098499046914e+00
8.763322158143644486e-03,2.617083581705924367e+00,-9.778743651971456785e+00
-9.999192129292048051e-03,2.611583463887766854e+00,-9.792547946823930261e+00
6.576017370621268891e-03,2.618636950416359799e+00,-9.793275102569126034e+00
-5.868377700646870308e-04,2.621439565130297744e+00,-9.794977466043752301e+00
6.734316057946227417e-03,2.608628912341574235e+00,-9.797097314049555195e+00
-3.487311757158415709e-03,2.620524208984698067e+00,-9.775695936022769317e+00
-4.685916627480120854e-03,2.610940685505660053e+00,-9.801095041536715513e+00
-5.120813418516279025e-03,2.616216781528507340e+00,-9.801870588908736082e+00
3.528903136462801463e-03,2.623658081296619482e+00,-9.800259771045093160e+00
6.052725455660400156e-03,2.628285240176903237e+00,-9.801353263755075318e+00
-7.744726547540750758e-04,2.617583313959757962e+00,-9.801738919962366126e+00
9.352447562853824156e-03,2.625189229700946925e+00,-9.797444937515574992e+00
3.424532176856832661e-03,2.613966000499702957e+00,-9.794749875363949698e+00
-2.245746503563000179e-03,2.615909163095481826e+00,-9.804826584377927645e+00
7.842808880421143700e-03,2.625123523395576086e+00,-9.796532304370051847e+00
1.357309656694755985e-03,2.625696203352540170e+00,-9.795800604312846716e+00
-4.737532057909773359e-03,2.617439437680618042e+00,-9.795439383710643710e+00
-4.457412492708949167e-03,2.612321330522155538e+00,-9.789440372659226952e+00
4.223877197077538764e-05,2.620082862058960682e+00,-9.788583297054959331e+00
-8.667754343098460837e-03,2.617270685505164618e+00,-9.804433096551107951e+00
-3.426541960542411631e-03,2.615658110026967353e+00,-9.800467291461178121e+00
1.664301222002319714e-03,2.618301143752762794e+00,-9.788174165251065872e+00
6.122913877986888714e-03,2.621565635308541253e+00,-9.804523289492673044e+00
-3.042504996744395483e-03,2.616629963717973517e+00,-9.804780304104712130e+00
-8.067856828502270247e-03,2.614123847810213341e+00,-9.797244345919995823e+00
-6.091988424138914532e-03,2.622117857756025128e+00,-9.785999753797325340e+00
-6.480508706723544761e-04,2.614456461085189254e+00,-9.792582249593381860e+00
7.578291728809486089e-04,2.624834121270897214e+00,-9.794555695587806809e+00
2.354621348119652346e-03,2.610431492960777700e+00,-9.792079496097931823e+00
-1.247501806327821518e-02,2.611739795456988311e+00,-9.773868288186726261e+00
3.336734554715145400e-03,2.613680892301437186e+00,-9.794524108094625703e+00
9.385557498727929444e-05,2.609099164097821610e+00,-9.799135885719216787e+00
-1.409986801499921128e-03,2.618058231761488663e+00,-9.789564961538712140e+00
-1.613180057151049167e-03,2.616795029383486959e+00,-9.784633889230423875e+00
-5.555961227356259573e-03,2.618041070338918530e+00,-9.809759077509349723e+00
6.233989602369118671e-03,2.626102063143553433e+00,-9.790646640884181906e+00
-5.555121041608586038e-03,2.625301643501483539e+00,-9.784095173954215241e+00
-3.814284616955160821e-03,2.621474566028987319e+00,-9.805347368632389760e+00
1.714200246269782487e-03,2.633141604852262674e+00,-9.802222966604984933e+00
4.757631444498678329e-03,2.620614310676085523e+00,-9.804127423439645383e+00
-4.904126657960310338e-03,2.618238436601466379e+00,-9.803160656778050708e+00
1.080791049606020723e-02,2.611053007747171861e+00,-9.783620284836645808e+00
1.094438869336118898e-02,2.616141083714434767e+00,-9.792163251151658088e+00
2.640520147677128705e-03,2.612560219821349339e+00,-9.810129057480997616e+00
-2.242176765171767765e-03,2.620229702255467696e+00,-9.795958146733923400e+00
1.249324059405108444e-03,2.631608925284050216e+00,-9.792532539993555218e+00
5.243709663689200863e-03,2.608291358939990978e+00,-9.797147010992368621e+00
-2.491326921087218087e-03,2.613257278254117022e+00,-9.792827864793469672e+00
2.388518201061573271e-03,2.619460435972480461e+00,-9.787096949398803147e+00
2.061874558846896004e-04,2.623488729217319460e+00,-9.794852968051142028e+00
5.482522639870488282e-03,2.620478745648038288e+00,-9.791459534775897922e+00
-4.117954853035237991e-03,2.623751572249777730e+00,-9.795323551570341181e+00
3.252541859039761053e-03,2.614406159761358595e+00,-9.787328845894329277e+00
-5.581200544202155264e-03,2.625243763475146874e+00,-9.800553608568945307e+00
4.142418606319516437e-03,2.620657464111208146e+00,-9.799229824844939429e+00
1.588695883654998994e-03,2.622567766820549373e+00,-9.797042158391587208e+00
8.213987854875372599e-03,2.616349289680245604e+00,-9.795662834044675193e+00
3.326161047514475649e-03,2.615975365243476070e+00,-9.805555161456306124e+00
8.901046502426670712e-03,2.624307698202859029e+00,-9.793089031209547102e+00
-2.092094521172409554e-03,2.613864093014023560e+00,-9.795450567218445315e+00
-1.014852078093180258e-03,2.626784171313422345e+00,-9.803969862631756627e+00
-3.853540593568471526e-04,2.629530791363737130e+00,-9.796029585704227216e+00
1.067518611763638601e-03,2.616629560246692243e+00,-9.802026230208024771e+00
-3.571918708207725418e-03,2.622686554056866459e+00,-9.786677246049602985e+00
3.235373276832147638e-03,2.612035782987963017e+00,-9.786446265587503746e+00
1.658469685356043057e-03,2.611294635472934722e+00,-9.802136910971487538e+00
-1.053374000681981315e-04,2.611382193797956663e+00,-9.781422963602135923e+00
-1.069013381432992911e-02,2.617233911997654427e+00,-9.792533189086697121e+00
4.742168990909069101e-05,2.612065845602963510e+00,-9.816262601827197898e+00
1.510472985784555176e-04,2.618981712003346729e+00,-9.796087273835734521e+00
-3.492240594005093131e-03,2.626436841548636991e+00,-9.792201173008471926e+00
1.685126100872892619e-03,2.612310688080743404e+00,-9.794973257815309253e+00
-6.252090616991232488e-03,2.619169349217949527e+00,-9.793291897323099349e+00
-2.580099601381383688e-03,2.616983200815733657e+00,-9.786664778321199520e+00
-2.146347927008452477e-03,2.626837576595012713e+00,-9.790742991333829082e+00
-6.145483237799701133e-03,2.622191105260219146e+00,-9.795938871142194415e+00
4.049004990383148032e-03,2.606268855970200971e+00,-9.781953513429430203e+00
4.110930454823824055e-03,2.618890055704361064e+00,-9.788325592845042777e+00
-6.563516001400574460e-04,2.623627315753410905e+00,-9.790517502127585203e+00
-1.734644021575244225e-03,2.615705458691568452e+00,-9.794821814648544844e+00
6.708199603164145125e-03,2.621007402557885335e+00,-9.795979784058442164e+00
6.355887824434040302e-03,2.624702968038010287e+00,-9.798892150904864096e+00
5.633645443270939544e-03,2.618435148639926435e+00,-9.804944520568614763e+00
-1.289533266762053244e-03,2.618981583231554389e+00,-9.782259809660024175e+00
-3.597143784817243874e-03,2.615163734898874104e+00,-9.795021195606681275e+00
-3.936953995711079540e-03,2.617089393967493294e+00,-9.797972635942603148e+00
-3.338055095087646940e-05,2.610031007440555495e+00,-9.801537373062085834e+00
1.244065829491742582e-02,2.620336045560428762e+00,-9.786250443425942080e+00
-4.792581876877255345e-04,2.617187184059131866e+00,-9.793654831719118548e+00
3.140093751936564280e-03,2.617783295829531731e+00,-9.798602204208604505e+00
2.760858795310243158e-03,2.615221336453305678e+00,-9.789795731871105744e+00
-2.111373896124757021e-03,2.623928101577023053e+00,-9.794556441663932134e+00
-2.927432154690003206e-03,2.625384613753169560e+00,-9.785055914507553965e+00
-2.715282702903210749e-03,2.614794477362321956e+00,-9.794938284139083962e+00
4.909187556458473453e-04,2.615000866048830641e+00,-9.792376887746994996e+00
-3.140423511469675032e-03,2.615910742033766390e+00,-9.811353660313340441e+00
-6.326463041644543768e-03,2.612111079042942929e+00,-9.794616792337416555e+00
2.610195671578514204e-03,2.618377540590540065e+00,-9.793485658046080289e+00
2.202615683457386062e-04,2.613810450020383591e+00,-9.802262661400618526e+00
-2.090186745973147790e-03,2.618760281122385791e+00,-9.805485176505481348e+00
1.511034603859964060e-03,2.616037214304361314e+00,-9.808694017072074445e+00
-8.873938030951518960e-04,2.618304240244009318e+00,-9.787803719960256998e+00
3.059186790747350174e-03,2.617589420452957061e+00,-9.802567958400732806e+00
4.533172490165347790e-03,2.615046039101194264e+00,-9.798346024386004771e+00
-1.315372923478855000e-03,2.618431347685990840e+00,-9.808595883024572970e+00
1.373574202834067400e-02,2.622741404856873348e+00,-9.791533374350720464e+00
-5.383929751540447034e-03,2.621976446622269030e+00,-9.802995355277472456e+00
6.615100252383284904e-03,2.617291560812060158e+00,-9.795766906281427211e+00
-1.210752379580433977e-03,2.619784843065666724e+00,-9.780329916272988200e+00
7.347539998106151701e-03,2.618782005758706344e+00,-9.779881323096587309e+00
-1.583017363175796225e-03,2.631656878744754735e+00,-9.789411065373119669e+00
-2.418512149795813172e-03,2.621596024929317981e+00,-9.791554913244933545e+00
1.179913542196908867e-02,2.615403329904796959e+00,-9.803074548179191439e+00
2.111767422646984485e-04,2.623765636859929806e+00,-9.791925312336777765e+00
-6.900287937867409342e-03,2.621247936718594129e+00,-9.806176311843760374e+00
3.919071306624177971e-03,2.611877742882099174e+00,-9.788023625917800175e+00
2.045728959780469206e-03,2.613393306116257531e+00,-9.805541128315068633e+00
-1.043048358574413456e-02,2.614869594742845305e+00,-9.805747844764074017e+00
2.820348163497098104e-03,2.613844775062729386e+00,-9.802659115091453046e+00
4.310040130678211533e-03,2.628327407884590627e+00,-9.790271251821163645e+00
-5.516324867059092243e-04,2.618789851719807160e+00,-9.795262799799690612e+00
-3.845760202417911793e-04,2.619148812763759437e+00,-9.794675911653071054e+00
7.510719063371455555e-03,2.613478050685627441e+00,-9.788668894188626624e+00
1.733928382022109291e-03,2.622587055729512784e+00,-9.786356613183626152e+00
-2.552737741305673548e-04,2.622941413657350562e+00,-9.799942509322159268e+00
1.883509988548938245e-03,2.619171138818060296e+00,-9.787746548452163964e+00
7.061294329850766570e-03,2.617546952200763499e+00,-9.794353355175246634e+00
-4.392791767963576469e-03,2.613042327323276570e+00,-9.787204622017164013e+00
4.798535275885138993e-03,2.618678783119503084e+00,-9.782052721356080838e+00
3.051765001238880212e-03,2.612786388737486920e+00,-9.791679843403828798e+00
3.373531075537952988e-03,2.618067548122450905e+00,-9.800457645690419994e+00
-2.177432321639420805e-03,2.620584482963745021e+00,-9.783284052777323936e+00
1.365084342993107139e-03,2.616254651697140332e+00,-9.795465943007799936e+00
-6.562177197402496026e-03,2.626850985681318917e+00,-9.801444243667507550e+00
-1.432833959743085462e-03,2.623742918618366282e+00,-9.787781022624651328e+00
-4.405456836038860839e-03,2.619088565634836385e+00,-9.777304662000386060e+00
-1.176214485906806537e-02,2.626135079944851292e+00,-9.800092340840988570e+00
-8.334395777253771412e-03,2.623859332092569829e+00,-9.790516221641887284e+00
4.979154012230441878e-03,2.612833403266077603e+00,-9.806523693593549140e+00
3.807240106839509391e-03,2.620435290612461277e+00,-9.797950013018322579e+00
-2.598561123327594764e-03,2.622317359936614078e+00,-9.796526596511190732e+00
-4.719220852714379674e-03,2.624499698064726605e+00,-9.798034381742532162e+00
-8.954586972542671452e-04,2.619588270802758245e+00,-9.805422725348780233e+00
-6.911125018613322422e-03,2.616140265479413252e+00,-9.807470228107556309e+00
2.370120707221996543e-03,2.616183235130808971e+00,-9.809585296006721578e+00
1.163423161342738883e-03,2.621754248951269961e+00,-9.793814806623984737e+00
-5.408653320468914671e-03,2.616468720557693750e+00,-9.800151366632693595e+00
-6.192341210045258174e-04,2.613829726451704527e+00,-9.794182676396467002e+00
1.130165451579802881e-03,2.612622157728928585e+00,-9.799269536805912395e+00
-2.970493204757594825e-03,2.619337448242927913e+00,-9.803673161918036172e+00
1.955375058770191486e-03,2.615793132674138377e+00,-9.802075265833424922e+00
-6.086725847032658718e-03,2.613581932555105958e+00,-9.795411709797244626e+00
1.285925635669802431e-03,2.620631784455512925e+00,-9.790730449462161644e+00
5.429554280557076333e-03,2.612421664729519311e+00,-9.797099623826230896e+00
-4.446144271912060974e-04,2.614055244966325908e+00,-9.802490983854143636e+00
-3.392105458557426699e-03,2.620173325467835213e+00,-9.803990137641653391e+00
-8.804205776926225455e-03,2.616660076698662074e+00,-9.801385942161328302e+00
5.045770385475679791e-03,2.614090977800469062e+00,-9.799206951537778210e+00
4.266472154077474190e-03,2.612952342286297469e+00,-9.808246371292733912e+00
-5.525308325960375487e-03,2.606184072866150725e+00,-9.788369763279909819e+00
3.924905775913956583e-03,2.614895883912956354e+00,-9.811759339733791663e+00
3.012127558315673068e-03,2.606597783362577747e+00,-9.789182633143292733e+00
-4.882885036722026464e-03,2.612621451468829736e+00,-9.791585833868840183e+00
-5.254010036028233278e-03,2.629034753385887324e+00,-9.814602710383407924e+00
-1.958758062227406501e-03,2.625058714058907672e+00,-9.784544302692651740e+00
8.408041118883288409e-03,2.622381780123551387e+00,-9.786504225567147941e+00
5.622117056333880529e-03,2.629246435188853592e+00,-9.789954793290103652e+00
-1.292459692844915100e-04,2.609749265596605916e+00,-9.798948368916395424e+00
1.318073420892777996e-03,2.616121329494172087e+00,-9.804030765142901060e+00
1.897616976317783970e-03,2.617847616174266090e+00,-9.785585651441186528e+00
9.503931413057694136e-03,2.613195892544593502e+00,-9.771350924299245122e+00
-5.735833367555413266e-03,2.617744042116558756e+00,-9.775729899707144455e+00
3.815050397898071648e-03,2.616236698905337388e+00,-9.800690797727170889e+00
-1.045724743142776095e-03,2.622885485847973985e+00,-9.787222363503495615e+00
1.747295740286213461e-03,2.611971162584957096e+00,-9.805228253326820465e+00
1.050635265548022397e-02,2.616317884353560608e+00,-9.784492556826471343e+00
3.899313585887605529e-03,2.615295837247115340e+00,-9.798727565937948469e+00
1.728499213183926986e-03,2.620669923006115898e+00,-9.803187819441468775e+00
8.497523302070676948e-04,2.620759491105700167e+00,-9.799816776274790087e+00
5.100924003797083044e-03,2.616060669562446872e+00,-9.801678202673153706e+00
-1.601976029766145893e-02,2.614906856216399955e+00,-9.810500945403040518e+00
2.049588104576962732e-03,2.613610671784742490e+00,-9.800508920995165241e+00
4.529754575825178757e-03,2.624290205609557169e+00,-9.788411556704343042e+00
-3.697635308904883341e-03,2.621238932121265908e+00,-9.817167766484358182e+00
7.888957567970420956e-03,2.619124307364563364e+00,-9.801390345216267619e+00
1.298116455525465856e-03,2.620832294926916273e+00,-9.806681504377669611e+00
-3.917563864099719503e-03,2.618287455908763217e+00,-9.781131756648880682e+00
2.347574286675939339e-03,2.623087734522736358e+00,-9.802427598487209792e+00
-4.934638261919437399e-03,2.618522938909991105e+00,-9.802090797170610159e+00
-2.157007727747469773e-03,2.612462057992820608e+00,-9.798838032587815050e+00
2.910259824150849238e-03,2.612769983443000932e+00,-9.809413424030953621e+00
-1.464580697276203622e-03,2.614550674442351230e+00,-9.797535413118465542e+00
1.108904222897518551e-03,2.616508742286549172e+00,-9.792267844504058516e+00
-6.711628913301719707e-03,2.624761840598700324e+00,-9.804641534586020057e+00
2.225019544640296793e-03,2.614040639093657248e+00,-9.808620054155733570e+00
3.423935054217592676e-04,2.623724265996135507e+00,-9.794854386423256898e+00
1.325911296028798626e-03,2.617521222820619720e+00,-9.787246978394058772e+00
-4.542885040745390547e-03,2.624091425226976693e+00,-9.802102354825713348e+00
1.529821014406580748e-03,2.611452414024386659e+00,-9.792044583635744814e+00
4.847875547132381689e-03,2.604308233353326951e+00,-9.792018763898587608e+00
3.679733727866972125e-03,2.621841899029074163e+00,-9.785263289763227235e+00
-1.514533323784515023e-03,2.611640506943170070e+00,-9.784298270725386715e+00
-5.797534541105694127e-03,2.617055712280301982e+00,-9.796825451913338867e+00
-4.899741938005600268e-03,2.620653714695450720e+00,-9.788275469808290552e+00
7.794566502080233676e-04,2.615397563648262480e+00,-9.802170911987166946e+00
-1.676182108180973313e-03,2.618594805338389619e+00,-9.789064486026369138e+00
8.097500781306362153e-03,2.623246281850525996e+00,-9.783859519947551320e+00
-4.893655848852446026e-03,2.628611848066733092e+00,-9.788788785671341586e+00
2.524000061028219572e-03,2.610675402666863931e+00,-9.794392517876575610e+00
4.248221382295591826e-03,2.617419773042524156e+00,-9.805569549218496661e+00
-4.298158460361076573e-04,2.615621381558352887e+00,-9.790637305432220217e+00
1.197645678985975303e-03,2.621410335158630645e+00,-9.801056286402953788e+00
1.183159135173649434e-03,2.612022931497687939e+00,-9.804879232191041183e+00
-4.079765100558926591e-03,2.614154857816884281e+00,-9.796706154518842524e+00
1.270949106448990415e-03,2.620141366864218391e+00,-9.786706111000144759e+00
-4.372270492895208305e-03,2.615472802023571131e+00,-9.793275814754283104e+00
-4.329283263480644163e-03,2.617422064999435527e+00,-9.801254850014194275e+00
8.288543241534829242e-03,2.622619155243959721e+00,-9.797473142622823872e+00
-3.679550798165747219e-03,2.624462817537492221e+00,-9.782922418378200646e+00
-1.093835802126832436e-03,2.619487422409323862e+00,-9.806037232040445417e+00
-4.176296064772160206e-03,2.616651390703217839e+00,-9.782832842104944859e+00
-3.411646939714298513e-03,2.622292563965156198e+00,-9.789952375438964793e+00
-4.036919198061750085e-03,2.613184337845812166e+00,-9.790599289548719497e+00
-2.568286220232350180e-04,2.612870810313425274e+00,-9.802803643255668220e+00
5.902228036905888750e-03,2.618347993643470595e+00,-9.809757925351627605e+00
8.801223713396207071e-03,2.622023368597197646e+00,-9.792427693783277931e+00
-2.326336315696057432e-03,2.620932595487427186e+00,-9.791970246008608214e+00
-8.492566385605729642e-03,2.605652417250542641e+00,-9.797483483071648180e+00
-7.866908177155022136e-03,2.618779956065328651e+00,-9.800661943645049945e+00
-1.199891327471244587e-03,2.623178689851703105e+00,-9.789861923584744829e+00
2.365989353808182604e-03,2.610099406271238820e+00,-9.788633510212140010e+00
-2.962266458343008370e-03,2.610303704512726863e+00,-9.798399790917377672e+00
4.051227390486615391e-03,2.623047898754214735e+00,-9.804008001151180096e+00
-7.313670483892410930e-03,2.615544425706921139e+00,-9.804392446060386845e+00
7.298925918449867753e-03,2.617419015205696198e+00,-9.786528284903717179e+00
2.230191775078794406e-03,2.616785048558837978e+00,-9.790567112074514355e+00
7.319133276224858327e-04,2.616848997295726509e+00,-9.784646257597207963e+00
-3.431399103790792274e-03,2.622395702172001020e+00,-9.789959816219003130e+00
-4.811010235434712637e-03,2.617654061140842980e+00,-9.781921409336220563e+00
3.377123621180263581e-03,2.624549829824583735e+00,-9.807088601659456728e+00
5.587856879455736087e-03,2.618561835989240194e+00,-9.804301192288779276e+00
3.876534703873255310e-03,2.619505424627474266e+00,-9.805076662877610261e+00
2.284842594717377811e-03,2.614864879462216241e+00,-9.789793820830427151e+00
5.253857630694973475e-03,2.626151656495741449e+00,-9.793536160094964416e+00
-1.899226063228399682e-03,2.613487580075107175e+00,-9.779736657980716785e+00
-6.251653785330309708e-03,2.615630033328771198e+00,-9.799456372270515914e+00
5.749999221049227963e-03,2.617694454310639518e+00,-9.794920509582741630e+00
-1.962460558766780747e-03,2.622479698560210792e+00,-9.791272824053399049e+00
4.662803308211508485e-03,2.619931213735732456e+00,-9.801083643549558744e+00
-2.272049477308038523e-03,2.616992927583567052e+00,-9.778713693886317060e+00
3.533143821863451734e-03,2.620576050092948250e+00,-9.795892988560360948e+00
9.874627318111471597e-03,2.620716996055309167e+00,-9.786931215812797902e+00
3.185242051318397036e-03,2.612945313240949474e+00,-9.785408881745844667e+00
-7.325165284360695382e-03,2.606565403393923841e+00,-9.798744874721645459e+00
8.771239649332612104e-03,2.620564024462998187e+00,-9.780551139486080459e+00
-5.648447458716418165e-03,2.625329854413314123e+00,-9.796622620357650746e+00
1.255246847879466299e-03,2.622288819097106316e+00,-9.783870146665417877e+00
-8.192275306531719009e-03,2.614225624525583047e+00,-9.801839444747567853e+00
6.617948707427458860e-03,2.622338272966545869e+00,-9.789199939257493099e+00
6.034012119467653708e-03,2.616793622064954583e+00,-9.795637484138406847e+00
-4.628072048738363607e-03,2.617838533881148066e+00,-9.804519741737907523e+00
-5.752982609287444517e-03,2.628145600314546027e+00,-9.789207529324480461e+00
-7.137362768171903217e-03,2.615307222161779244e+00,-9.791849085782086348e+00
-5.523250031603423385e-03,2.617704298428992438e+00,-9.788224110413306533e+00
1.976970334927341272e-03,2.623987090405691891e+00,-9.795829782390134355e+00
-4.891953728683845135e-03,2.613392019871168426e+00,-9.812566316098495278e+00
1.308721826255964706e-02,2.612197452633168382e+00,-9.796903415198944032e+00
1.683953292937269246e-03,2.614747548176615144e+00,-9.806335664737115820e+00
2.012045600413371431e-03,2.607695765660071441e+00,-9.799465365346751611e+00
-6.548681667177104135e-03,2.622912690961403559e+00,-9.790168732605973645e+00
-9.574814683994087999e-03,2.616670719444194049e+00,-9.796348525470481405e+00
8.879879413676964890e-04,2.617649882508393144e+00,-9.809712821784406955e+00
-1.568869134004467107e-03,2.617310728513781548e+00,-9.814236489922262052e+00
-2.195196226811430267e-03,2.621361018947049981e+00,-9.796126636501506724e+00
8.516389946386659655e-04,2.624956280265219100e+00,-9.789315538124647276e+00
6.637222358209301544e-03,2.621191184252833040e+00,-9.787988078952267301e+00
-2.406181589550704554e-03,2.618610028578015392e+00,-9.805866322801438884e+00
4.668318679389992475e-03,2.601168116700274702e+00,-9.784910971352827502e+00
7.373003774335697277e-04,2.622727610206565974e+00,-9.798862840753123749e+00
-9.728825215015446393e-03,2.617812530261278248e+00,-9.788447905267785742e+00
-1.704704377867658415e-03,2.615705337183602541e+00,-9.797787691392363385e+00
2.485164804313523979e-03,2.614882672803653829e+00,-9.791351381913312224e+00
2.578770911534354919e-04,2.614286609250683568e+00,-9.795198225389897928e+00
2.559477313005216036e-03,2.616381072049845713e+00,-9.794712246921744025e+00
-4.163669721702609183e-03,2.620880013048918933e+00,-9.804536933359687012e+00
2.653379410466424502e-04,2.620501813307974270e+00,-9.791912507149268308e+00
-2.741350698030162354e-03,2.617497445974128478e+00,-9.787524741038332365e+00
4.608187493610660726e-03,2.612659794751653664e+00,-9.795319949489327271e+00
-2.355867095901539518e-03,2.622102337085067347e+00,-9.788458697521592811e+00
2.396200104323236053e-03,2.619867661921793989e+00,-9.796960084332374308e+00
1.671912638502363836e-03,2.620470475713085889e+00,-9.790394165960673689e+00
3.380938156922975481e-03,2.611519897518351563e+00,-9.792317205378296308e+00
-1.757704213294847186e-03,2.621355913469254784e+00,-9.790402421605497452e+00
5.569036385995378320e-03,2.615613561130659459e+00,-9.796909762165606494e+00
-6.196588784073361195e-03,2.352766844956065029e+00,-9.782318829815732641e+00
-8.694187167748716749e-03,2.118249380529179327e+00,-9.792518752585380071e+00
1.635988781574654717e-03,1.907017134393082181e+00,-9.789629011440618811e+00
-2.049979254921355677e-03,1.720332782848509767e+00,-9.799722564946275583e+00
2.547234179705141609e-03,1.548263702038403133e+00,-9.808669648878492353e+00
2.613191183024052028e-03,1.388997867683663179e+00,-9.797466079164838249e+00
-2.636341882495434746e-03,1.251410506073380446e+00,-9.810300327211493254e+00
-6.743759878794412452e-03,1.125649983038795598e+00,-9.794564412268384146e+00
6.635673235677151541e-04,1.007654110635073597e+00,-9.791200231695503575e+00
4.652217364916577148e-03,9.119483885722431404e-01,-9.805969798986563291e+00
1.211129734032473067e-03,8.200528529886467188e-01,-9.787663750265275908e+00
1.171629041148276830e-03,7.350877269386579815e-01,-9.797498906005202457e+00
5.182399151342135732e-03,6.617536779819163106e-01,-9.800827040185279060e+00
-3.150748065914533037e-03,6.003270112433201078e-01,-9.806756131300373269e+00
-4.447354204406755995e-03,5.324011177088449065e-01,-9.798933158985665415e+00
2.820947340887970493e-03,4.907062977116207758e-01,-9.801208475080546378e+00
-4.739431820409398081e-03,4.373206541334371811e-01,-9.793938593330059561e+00
3.453534148005776763e-03,3.855758162182204019e-01,-9.777325340861008129e+00
-1.789952055071178773e-03,3.538524207791677867e-01,-9.791347064364545716e+00
9.449874408454278681e-04,3.205772547424041719e-01,-9.788166630454822936e+00
-8.368593671729922245e-03,2.832935032300468170e-01,-9.805230520903451819e+00
-4.608587043575553682e-03,2.533163958316064779e-01,-9.792843644246207901e+00
7.528020443834899239e-03,2.277896698354931748e-01,-9.805000485181002645e+00
-6.300732630269657505e-04,2.051221805359167427e-01,-9.798342015878560574e+00
3.665774276361134180e-03,1.885442974449055842e-01,-9.794665208883737151e+00
7.178562775833810701e-03,1.661165712635465641e-01,-9.808367336248927870e+00
1.117643802293017373e-03,1.607053899221285720e-01,-9.804305704069181004e+00
-2.570081903212832319e-03,1.337103893058002035e-01,-9.782978325320817348e+00
9.313034340170131629e-04,1.206364274941737619e-01,-9.789655580690123315e+00
-7.641358164740535454e-03,1.100198615457592816e-01,-9.787794692103638283e+00
5.057068403400920807e-03,1.016590763957504473e-01,-9.794449887307566271e+00
-6.847142067437654491e-04,8.102146601357772260e-02,-9.790025243360840790e+00
-7.305813510571748486e-03,8.090165233132423639e-02,-9.820780813091836592e+00
5.425413076017334378e-03,6.691698233925745531e-02,-9.788718110835157304e+00
-4.227920560807255264e-03,6.590506726759935707e-02,-9.792276874550470467e+00
2.925559169037471405e-03,5.945373961312455657e-02,-9.777644535297639550e+00
6.131420501073829403e-03,5.031586918357265625e-02,-9.794112395458904885e+00
-2.136491218414250139e-03,4.800277454578234793e-02,-9.789827129444102383e+00
-6.895848679300723739e-03,4.802661649195130028e-02,-9.786061238581250876e+00
-9.303923088228112283e-04,4.164642195955230164e-02,-9.791543936646970536e+00
-2.027177093636400081e-03,2.714168863054351385e-02,-9.790164389963065261e+00
-5.938868224389320417e-03,3.086116125794415715e-02,-9.811355469691159570e+00
-1.736132235311375026e-03,2.538215126957997850e-02,-9.792481635805007301e+00
-8.245056337572280198e-04,2.477029644531926825e-02,-9.789431484091430491e+00
6.058422340395009861e-03,2.558559944999470176e-02,-9.796311922244838044e+00
-6.137232773207500040e-03,2.386683665375836233e-02,-9.785319856151055262e+00
5.876334529938958585e-03,1.238617822206390315e-02,-9.790484207607340394e+00
-1.242786611941425895e-02,1.050644145665520154e-02,-9.793231590169835243e+00
4.499174248670168540e-03,4.825484862625269503e-03,-9.803451421046926129e+00
-7.712294211084529810e-03,1.072797573289010001e-02,-9.806940194785704890e+00
1.025331796471274336e-02,3.613223887890515060e-03,-9.783571167310334715e+00
4.863749993359652024e-03,1.699899828628022996e-02,-9.800225821163458306e+00
-8.699889796403769901e-03,-2.078098728563564090e-04,-9.793343308593724927e+00
2.850364165200955542e-03,7.770909877957754563e-03,-9.799126410953650890e+00
-9.190803105474541421e-03,9.098582838699001765e-03,-9.797232758395770347e+00
4.890882572563289357e-03,1.111253099912650269e-02,-9.798556129059178943e+00
7.197537029242447384e-03,3.216415970314639213e-03,-9.793333430788569771e+00
-3.820762471425145131e-03,5.447306124575916272e-03,-9.796243862297917104e+00
1.557259649119981798e-03,2.285378427017374821e-03,-9.795999076056675747e+00
-1.121478682469560003e-03,9.398096819039703995e-03,-9.793257012905518977e+00
-3.512458220393995250e-04,2.100263087537887745e-03,-9.794135953702934216e+00
-1.267986419531202556e-03,3.244345215625285030e-03,-9.798099443657166674e+00
-6.153402661165541243e-03,3.466614249057824084e-03,-9.795975194539712660e+00
1.261736561331612333e-03,7.456982076174062737e-03,-9.794697524797324917e+00
4.384309150871156359e-04,-1.294000286208820544e-03,-9.815603790390261096e+00
-7.385534915937743967e-05,2.696708534038240197e-03,-9.781412149227806552e+00
-2.076568972029112572e-03,3.710914677084217739e-03,-9.793044554337717145e+00
6.224184520464470793e-03,-3.257398766647002716e-03,-9.794014945794966565e+00
-9.322572498553134430e-04,4.093686669899806660e-03,-9.789905510803059485e+00
-1.101383600053299850e-03,-3.523854737137233073e-03,-9.802824685893048340e+00
1.252097617459257527e-03,5.183750283142699380e-03,-9.801319236472457064e+00
2.492640760493168833e-03,1.396469660306162621e-03,-9.795131514312274135e+00
1.186262800474229212e-03,-4.117378522248420387e-03,-9.778198127487730318e+00
-1.420987207819780556e-03,2.031203532968490176e-03,-9.806482736966705360e+00
-3.058624784327513223e-04,7.968566306608080782e-03,-9.786727008300907471e+00
-5.164762022806128339e-03,1.704187268154848823e-03,-9.784626483569464739e+00
-3.919917695592881231e-03,-4.057399889832287443e-03,-9.793654825328216518e+00
-5.037419433715661053e-03,1.333900480675558921e-02,-9.811892312438702746e+00
-1.346452376746628404e-03,-7.108240144600504358e-04,-9.780894390286130502e+00
2.935164425310975329e-03,4.686194453373817952e-03,-9.799173353367676143e+00
7.671415979817432706e-04,-2.922359365656285006e-03,-9.797802459884142223e+00
-6.981872595234933469e-03,-2.505664522784289711e-03,-9.794257164591181564e+00
9.338878439255671226e-04,-5.224298550371899580e-03,-9.808824899606241488e+00
-1.168563587830643777e-02,5.475999035248719365e-03,-9.813037759979570396e+00
4.297841877046884389e-04,-2.809595898676759979e-03,-9.818779278504839780e+00
-3.601017012233785793e-03,-1.543979494969702822e-03,-9.779041162787905250e+00
-9.074130895960864224e-03,-1.183169402991543972e-03,-9.800078765520185087e+00
-3.268150230801286117e-03,4.386979012943516970e-03,-9.787766346985542043e+00
-5.982498966473249677e-03,2.376529920226698716e-03,-9.801484585081631451e+00
-7.367644689559842835e-03,2.939358420546019004e-03,-9.790451383347102521e+00
2.654824501687778199e-03,5.271489919813544638e-03,-9.801854976422452737e+00
-1.051124527468761879e-02,-1.025104348999883626e-02,-9.792939995919208940e+00
-2.459765052867227998e-03,-3.487155350905636608e-03,-9.798772452543866862e+00
-5.435517999104571597e-03,-1.634305645449861269e-03,-9.802081677186453845e+00
6.185923594097459885e-03,9.112603803039191069e-03,-9.793699908430671286e+00
-2.747416371466768290e-03,8.763049720519088589e-04,-9.797799337270443942e+00
3.451399728806637830e-03,2.991963177083840908e-03,-9.792000100222709946e+00
-8.781275781526627112e-04,4.134512412627256057e-03,-9.790716696512326678e+00
1.159721593556401788e-03,-2.893172170055037604e-03,-9.800525099424014286e+00
-3.096063545552485592e-03,2.635578054485347189e-03,-9.789959061766575488e+00
-3.409938689395701061e-03,-6.790265154776447924e-03,-9.797204160785474514e+00
-2.061741667418129191e-03,2.308069153896519492e-03,-9.806348433693630184e+00
1.397826483087620921e-03,3.148344865395243282e-03,-9.799631079116219112e+00
1.952907787013691450e-03,-8.799382067629283807e-03,-9.795902017667597050e+00
-8.088668169571652106e-03,4.823819318211342716e-03,-9.807905540670125433e+00
6.065941854230862303e-03,8.324971691621356126e-03,-9.805319847441076320e+00
-5.417771831563794431e-03,8.051932005640370042e-04,-9.792223474003414196e+00
2.463271496853038697e-03,1.145146299826006048e-02,-9.783103280753357112e+00
-4.541293283481978083e-04,-5.113390403388061445e-03,-9.797575406256912700e+00
7.227737813859713700e-03,-4.919630328435514385e-04,-9.798892954072060846e+00
2.969283696595043445e-03,-2.994429949581813629e-03,-9.796418168285113026e+00
-5.041498529254813746e-03,-5.202280623050272931e-03,-9.799381208774969210e+00
-3.447883207296499521e-03,-1.399634924446241380e-02,-9.804064021370475501e+00
-2.828508697650961717e-03,4.953987234412718377e-03,-9.793428164766691424e+00
4.329126426559818698e-03,-9.667352733690897683e-04,-9.798486449229251605e+00
-2.564523043642903070e-03,-8.886649126375635588e-03,-9.786830597423993083e+00
2.021830375195014448e-03,-1.806463643312776219e-03,-9.787874332374729036e+00
-7.701754023657161625e-04,-1.054596888469420610e-02,-9.789159621494208707e+00
6.142561421266901946e-03,8.300625697785985954e-03,-9.808909994484718453e+00
-3.528548872812567287e-03,-8.905844347763098808e-05,-9.803157282210213097e+00
-1.883909459844313470e-03,5.722589646146627670e-03,-9.798938235851981204e+00
-8.142162126369886441e-03,6.687041218826953425e-03,-9.803208203454257585e+00
4.569001481625017264e-03,-5.224956603775051008e-03,-9.793751761383230559e+00
-5.575948469052060055e-03,8.730513360623725835e-03,-9.797230051769457049e+00
2.441285799060055172e-03,4.976419160229352510e-03,-9.788030374195340499e+00
-2.582269406933945625e-03,3.645594652374996520e-04,-9.781408261962598161e+00
-1.611333757271630768e-03,4.610519306539656061e-03,-9.800521048735292950e+00
-1.267286720454324951e-03,-2.713849485155822149e-03,-9.795972155321139851e+00
7.066932987655223826e-03,1.270860506509897785e-03,-9.786925496412326453e+00
-1.451580599405530693e-03,-3.290294851087332585e-03,-9.779782942075176067e+00
5.792154117595775011e-03,5.607570567230807553e-03,-9.795464522205309166e+00
-2.066929297647900586e-03,-4.072982114124065723e-04,-9.804198152637011887e+00
-6.856970332643541610e-03,-4.641581993716533197e-03,-9.791310158605639913e+00
3.000828899081458244e-03,1.473331696464732490e-03,-9.794804639227264076e+00
-2.610966137792261263e-03,3.374729364908810557e-03,-9.795877706818622244e+00
-2.624302648165956903e-03,3.734942216605957339e-03,-9.787482878796783581e+00
4.132443234180060293e-03,-3.822178044655748144e-03,-9.794627955556199694e+00
8.788295491709325821e-03,-1.158025211207570774e-03,-9.791742174242681784e+00
-6.273034752882353715e-04,2.508663968382213345e-03,-9.799308675532019564e+00
2.076506169654994145e-03,-5.677529829674137288e-03,-9.791250500210132657e+00
6.941818629164786883e-03,-4.352871001397935063e-04,-9.805238793652742757e+00
5.671317159368308852e-03,1.088905487829397271e-02,-9.788249587737126944e+00
-2.563455367324135592e-04,3.741578688759645199e-04,-9.803326053364196824e+00
1.034992486949432022e-02,-7.042044090434232927e-03,-9.782603304922700360e+00
3.094284502423339574e-03,-8.904615562021719367e-04,-9.780153036444897197e+00
-2.826158321352049193e-03,-5.937803252679366324e-04,-9.797003366817843784e+00
-1.572348278980716671e-03,1.920480380710053560e-03,-9.805134163823165494e+00
1.844137469274877020e-03,4.513668222838625350e-03,-9.792262207000774765e+00
-1.625739420037067588e-03,6.179015058258160390e-04,-9.818994335055482026e+00
3.411392536121477144e-03,-1.167873187482391202e-03,-9.801593220314094523e+00
9.957325784097910241e-04,8.679565782723950088e-03,-9.797123344567713943e+00
-1.682251880968934797e-03,2.037511706168700001e-03,-9.827511010040565154e+00
-1.828583612798961909e-03,-9.446420236309363214e-03,-9.788837784006384268e+00
-9.413308012221493788e-04,7.063879132336270752e-03,-9.800454329280141152e+00
-2.010418876183253482e-03,-2.469528192683560427e-03,-9.791782021446636008e+00
-8.620940001146614167e-04,-3.993645238570114712e-03,-9.790624206166294030e+00
-4.633272041464649334e-03,-5.075713179083195248e-04,-9.802750637045297921e+00
-3.919880813375864644e-03,-6.788651414722063696e-03,-9.794868396885389572e+00
2.618773398915932426e-03,2.167259107122393794e-03,-9.796068426134118212e+00
5.222701081668544056e-03,-7.307813769396515925e-04,-9.803498428236363083e+00
5.168874053556023716e-03,-1.220174733722954223e-03,-9.793033599759205288e+00
7.764863790023738589e-03,-4.660898738306585264e-03,-9.783227729942362672e+00
-1.909879364277770018e-04,-2.626782200564962890e-03,-9.798444547645445368e+00
4.328166311292853952e-03,6.054286397394543356e-03,-9.797091046982114193e+00
-1.828265107116814692e-03,-1.507492805667506484e-03,-9.792922601925262427e+00
-1.021246953242106086e-03,-6.224341618498625134e-03,-9.785523958078510276e+00
-7.359876545857357150e-03,5.250796382708119818e-04,-9.791420701913848390e+00
7.460969056008140855e-04,-8.129885014871995885e-03,-9.796281945152394144e+00
-1.015814085867392056e-03,-4.578105967315612007e-03,-9.805092875456404400e+00
2.307567454335520980e-03,-2.550413232771538228e-03,-9.781995826699890983e+00
-5.524575261481417567e-03,-5.894997581558693040e-04,-9.796264888736462950e+00
1.518340678418785309e-03,-1.413571458238163138e-02,-9.796948595583101493e+00
-5.305919082716596680e-04,6.930468779184561449e-04,-9.790983270000539918e+00
1.660020931754047947e-03,4.321575012813043404e-03,-9.791583353666805323e+00
-8.596344595016745197e-04,-2.047659544481664901e-03,-9.788377129693127898e+00
1.569041885105260537e-03,-1.488246042735870541e-03,-9.801564695957386775e+00
-3.244606539408294646e-03,-6.886489896425364472e-03,-9.792237528714782258e+00
-1.604819502587076291e-03,3.715166967900695137e-03,-9.805670475285010568e+00
3.004211490010067799e-03,-5.885962400891066662e-03,-9.794927408358477194e+00
2.686880849853937221e-04,2.636771770894251205e-03,-9.799760615770384931e+00
-1.874695262001695737e-03,-8.620385656842627538e-04,-9.787881184175416749e+00
-4.654380144423995828e-03,-3.249503969672556166e-03,-9.789690690540616913e+00
5.610516265737408928e-03,-5.623521465367981378e-03,-9.788822291251193519e+00
-6.855012281646099409e-03,-1.784512911068342981e-03,-9.797360858649707183e+00
7.376107232031090324e-03,-7.083022546344945429e-03,-9.778095149884807213e+00
1.264804686902319328e-03,1.279582276989391738e-03,-9.788843541632614276e+00
1.051779944522641431e-02,3.372825638822061524e-03,-9.791480016500051065e+00
-1.250651291115730673e-03,4.973468485726766954e-03,-9.803447906933838496e+00
-2.216299771624231224e-03,3.216861684778849623e-03,-9.797415133515391616e+00
3.784190749783284281e-03,-1.330038685410727057e-03,-9.787790115050730932e+00
-6.650951270591560875e-03,1.135820080377791287e-03,-9.796455193846741238e+00
9.536782098419144737e-04,4.017552417735639238e-03,-9.796967321553436747e+00
-3.992590673792702043e-03,-5.515464795908018615e-03,-9.797014751745344086e+00
4.403063128966756465e-04,-2.531709204837184150e-03,-9.797900269581290900e+00
-1.048014332951536891e-02,1.197809835554309449e-02,-9.804254847593892208e+00
2.374703843825538667e-03,4.079498941076021776e-03,-9.795695439147406702e+00
-4.589409322349548119e-03,-4.440076552397731122e-03,-9.800230534442224695e+00
1.316855865456817778e-03,-5.404357469204320620e-03,-9.803035521796303442e+00
-4.397703790147157975e-03,-7.787114112866920599e-04,-9.789992132022584670e+00
4.054493820313769328e-03,2.476643548154631221e-04,-9.785044998284389450e+00
1.054256876203958984e-02,-5.075089127983743037e-03,-9.788750998428161765e+00
-3.047172441833734865e-03,1.509281849607081640e-03,-9.798649781049238783e+00
-4.041289118252856284e-03,2.802141958602445866e-03,-9.788937033680397803e+00
2.588040981650337625e-03,-2.298126845803526771e-03,-9.793787629026756036e+00
8.879082462702570649e-03,-1.405705823390183441e-03,-9.796020228436338684e+00
8.683048073007059234e-03,-6.739462719215114431e-03,-9.790826852081425002e+00
1.073613452044727343e-02,-7.304423224828954057e-04,-9.805607673714320072e+00
5.183991100381960329e-03,5.363564818742931660e-04,-9.787919101454752635e+00
8.456940153122037215e-03,-1.680470884574784178e-03,-9.801240233021434989e+00
-1.028409342188530383e-02,-4.758394365501897837e-03,-9.811944352985529250e+00
4.281119746254372430e-03,-8.933021431322183889e-03,-9.789055613402656064e+00
-4.082453074118694465e-03,3.083655475548897386e-03,-9.794522885552522595e+00
-6.592664492156832465e-03,-4.807920945689633622e-03,-9.801578989070474535e+00
5.213583495344478909e-03,3.367377979988735951e-03,-9.790936053381990689e+00
4.873595562520706762e-03,9.003843028465170414e-03,-9.787628046170834040e+00
1.152819135714244075e-02,6.067761847476559924e-03,-9.803002222564082047e+00
-5.232610364370669440e-03,-3.579178235578767998e-03,-9.788266233179115261e+00
1.013871547628517576e-03,-4.222272131712179362e-03,-9.794829142881409823e+00
1.651765258605776250e-03,1.742661680500019890e-04,-9.788885703066913635e+00
4.516766899441485884e-03,4.990685538528319941e-03,-9.785523998150090108e+00
4.409515985417086607e-03,6.153156205043785673e-03,-9.786056974967264566e+00
-3.982013377774090181e-03,4.055179993056292481e-03,-9.793592163493977765e+00
5.568237526696823494e-03,2.933319076129964516e-03,-9.787339456072521315e+00
7.715964807770217537e-03,2.566577472603605997e-03,-9.807257376724384912e+00
5.310041110109402001e-04,1.125276271652094027e-04,-9.790286419916911953e+00
-2.236747765493525639e-03,-3.270651508515931907e-03,-9.803295235211717085e+00
-5.756907882482259486e-03,6.107793498329842051e-03,-9.787550000083449220e+00
-2.342662687938711335e-03,-7.398148125180569259e-03,-9.803531115034203935e+00
6.878489157249207363e-03,-3.093851045179852374e-03,-9.787208499203527978e+00
-6.488909999060522740e-05,-5.531920590959469794e-03,-9.788527797703647337e+00
-1.109572635150592786e-03,1.311268201392867426e-04,-9.796902740740815574e+00
-3.089145370257187929e-03,3.370673126185341067e-03,-9.792411846662638197e+00
-4.741608643842389580e-03,-1.605546741543741138e-03,-9.784150178684777543e+00
-3.610641476133328014e-03,1.529044045370522246e-03,-9.802887916744957408e+00
8.166420537689804762e-03,-1.368010781636060580e-03,-9.794744976329441855e+00
-7.596146263805368844e-04,1.251858448895855694e-02,-9.795883077840407793e+00
-4.645224747554295582e-04,2.938692504269059362e-03,-9.795686686447170999e+00
-3.547038470310099213e-03,-2.632614988168832919e-03,-9.798831438787861003e+00
-5.740433545729904490e-03,1.204381021062184316e-02,-9.784706857819152503e+00
-7.140398221507116580e-05,2.165442583942227533e-03,-9.793428034916034974e+00
-5.572424576511962602e-03,5.065948593609455666e-03,-9.800928029913238859e+00
1.809212433835260397e-03,5.480566317210829735e-03,-9.785841754967572470e+00
-2.571878912973686766e-03,6.834635627609829921e-03,-9.800332452029827834e+00
1.235011070419748253e-02,4.345054096558020364e-03,-9.795538759220825398e+00
1.026582905352667080e-04,-5.219925103998909570e-03,-9.790185902509579208e+00
-8.794376077527688712e-03,3.162974638010868783e-03,-9.809068781179972163e+00
-5.284321569659518152e-03,4.759028112100660568e-03,-9.786059940781727917e+00
2.425524194704903758e-03,-9.168014055872949000e-03,-9.798453460252385838e+00
2.127898276679004389e-03,3.081559561397655134e-04,-9.801072007956936005e+00
-2.598678650295648158e-03,-5.540919044581062852e-03,-9.797839329553394094e+00
-3.081192194668057674e-03,2.541830722311258246e-03,-9.793353292373886632e+00
4.459439093702217798e-03,1.460313009692509705e-02,-9.802033756399644915e+00
1.018379667056222224e-02,-4.926218664155076858e-03,-9.792454497372752087e+00
-5.991488025377972619e-04,-8.599277172208348932e-03,-9.785344297237404732e+00
2.125481944110991887e-03,-2.650966651782274246e-03,-9.787116658867423880e+00
-2.943581373111995528e-03,-9.085213045561408565e-04,-9.781514216039679965e+00
-2.634166847368041471e-03,2.236814161481693198e-03,-9.811492902811913552e+00
-4.057371674610682141e-03,2.414619109295003396e-03,-9.807514837118684881e+00
1.415189061844966721e-04,1.178332850537369301e-05,-9.798731908553063974e+00
2.671453044492262154e-03,-3.147232358718947149e-03,-9.801137786004540331e+00
-1.979290412070792721e-03,4.308510728793305856e-03,-9.798456995106736400e+00
-6.131996010814533965e-03,-3.592809863027611374e-03,-9.785669303772086991e+00
-6.149547285569633912e-03,-5.142502665533511298e-03,-9.782828826372094611e+00
-5.161760115711201517e-03,-3.873818663277810940e-03,-9.792026085770489274e+00
-3.811579748081155017e-03,-1.246963789844915838e-03,-9.805493936288288026e+00
-1.678897677584500819e-03,4.882954533419129294e-03,-9.795363475059138736e+00
1.923590324304020032e-03,1.573908737623711624e-03,-9.788779520392800748e+00
5.390021721518745840e-04,-9.663022282908949150e-04,-9.801308089328079731e+00
-4.587043592627636538e-05,-2.914770028496844762e-03,-9.799248916830233469e+00
4.409374415590763818e-03,1.112152770086030987e-02,-9.791963781903181285e+00
4.366810353995300570e-03,-8.341908980180083241e-04,-9.800915913080691766e+00
8.615233454742995565e-04,-3.269757998121860642e-03,-9.796566237768301377e+00
-1.143573015349184409e-02,4.940337558033312641e-03,-9.804690237980979717e+00
-2.814699498744102375e-03,1.990386776240615427e-03,-9.794319189505641177e+00
2.719939727156274641e-03,1.310280760373802697e-04,-9.793288540380180152e+00
6.679023522895035508e-03,4.369328768461517090e-03,-9.791393356773312462e+00
6.269358237718772233e-04,-7.057335796993500197e-05,-9.789258944192326339e+00
5.384801235332971683e-03,3.240131741661045773e-03,-9.786998581574195555e+00
-8.516186187055232656e-03,5.094094862430269960e-03,-9.798775878091452896e+00
-4.507782696917481298e-03,5.132596813063057539e-03,-9.782893125150101454e+00
-4.148861691456837315e-03,2.916559146178173724e-03,-9.791045314903509933e+00
5.988264303027516578e-04,4.407696297148173264e-03,-9.793695298700464846e+00
-6.712981063829080936e-04,5.842029088444321630e-03,-9.791645446227613903e+00
-3.594626895799516342e-04,-1.060102309444581857e-02,-9.809082342165844182e+00
1.290702708956686885e-03,-9.396492534328792362e-03,-9.789321655293109714e+00
1.762227758521421129e-03,-1.843108719381541302e-03,-9.787648011090867683e+00
3.117057118362365382e-03,2.194846037364786909e-03,-9.793902523059013987e+00
-1.702253977973829666e-03,4.176365347519719190e-03,-9.807235668553179408e+00
4.012981205184882640e-03,7.382857981070638405e-03,-9.785217521335235702e+00
5.517239554137436629e-03,5.821717956559654093e-03,-9.783319660032161025e+00
-2.738933964576505294e-03,-3.747310256311201654e-04,-9.794736397453085885e+00
2.363269214051882429e-03,3.347221459676077201e-03,-9.801934519803875645e+00
-1.086642855093977256e-03,2.835923446015063167e-03,-9.795685406010049334e+00
9.794547574942745125e-03,3.372276266244251045e-03,-9.787994279160884048e+00
-4.841788483465609208e-03,-1.411221728638883868e-03,-9.796830746656667088e+00
-6.016128682031512574e-04,-4.571796979147917626e-03,-9.789758462284044782e+00
-2.611547698053539104e-03,2.972736128207607853e-03,-9.805030363633969515e+00
-1.071548435951723451e-02,-1.579628415985109228e-03,-9.800972981904223502e+00
-7.194015637042523552e-03,9.039156752404266942e-03,-9.780900404668264159e+00
1.092614825601364399e-03,8.342057496479083484e-03,-9.793766932232806255e+00
