gyro_x (deg/s),gyro_y (deg/s),gyro_z (deg/s)
-3.324399549393162318e-02,2.286326841943886815e-02,-5.257436396690970404e-02
-1.719962996867207411e-02,4.462253280741905470e-02,3.034687802262752906e-02
-9.596420899068489052e-02,-4.577292512702321042e-02,7.914804113868367796e-02
-3.623002327343889661e-02,4.202292245586197045e-02,9.981212573090977175e-03
-2.646205191872440677e-03,-1.740078639134255353e-02,3.524943455956929678e-02
4.612070262254083786e-02,1.003296743235411875e-01,-6.314922116535407783e-03
1.084113499095196581e-01,-2.305854677338164266e-02,7.323709154664273524e-02
1.890240083012933656e-02,3.432819105911473490e-02,1.811410717633607503e-02
3.273893658663886569e-02,6.995548178278052087e-02,-2.436211873109498868e-02
-1.187018949189123582e-02,3.957733200432055065e-02,-4.345527635165567087e-02
8.527672443927153401e-02,3.538088526770641340e-02,5.092711300553906528e-02
4.514226524857951200e-02,-1.387919715909866937e-02,1.625370362143502626e-02
4.289650167721737600e-02,-2.745975377135646822e-03,3.593038658280254399e-02
1.048751760456305415e-02,-1.052309714866282719e-02,-8.731531053308143331e-03
-2.154307446914015614e-02,-4.039810658001007082e-02,-3.523185575083025156e-02
-1.512595235141332662e-03,-4.363855471962241328e-02,-6.155498233355190772e-03
3.770786162907611982e-02,-6.616884767142265644e-02,6.113441530045519295e-02
9.750170566140956008e-03,-6.519648568928723686e-02,-6.674765577521735160e-02
3.397398000055091433e-02,-8.682360009430876990e-02,-8.178415430524967056e-02
5.801290125418629220e-03,2.249448556316449924e-02,-5.533661652163487238e-02
1.763271075530470182e-03,6.050809664404434123e-03,-9.056358914248059666e-02
-2.240164512850545409e-02,-4.759008558763164892e-02,-7.682564211650982910e-02
2.737899967721389716e-02,3.603370890262037191e-02,-2.579312575863328865e-04
1.465748914254781134e-02,5.290037669250147873e-02,4.699939143104169340e-03
-7.254412219555551877e-02,7.108204232567766345e-02,-8.717923155333935636e-02
-4.431385702870691001e-02,-4.022409321003488775e-02,-5.798794081248868915e-02
-5.900357665367372828e-02,-5.053931856403801395e-03,9.155096012076565162e-03
2.657400695052662340e-02,-2.024634099705619611e-02,4.206457485791305871e-03
-1.431917809982721258e-02,5.851142039625525232e-02,-3.708867713179144626e-02
3.959650842849275071e-02,-4.747279730193484926e-02,-1.739261514537714798e-02
-4.151276711219825666e-02,-1.929320357917548717e-02,-1.838718751874109797e-02
-6.148237619091161121e-02,-6.802833887841880367e-02,-2.082906114761233149e-02
-7.912410052179418007e-02,-4.731853920699585075e-02,-2.363398756281129623e-02
2.781219109179058901e-02,-1.013365171091952510e-02,-3.337015655660528768e-02
-1.971042192038330310e-02,-6.194931858538359204e-02,-3.096802263436925981e-02
-5.037861954813944304e-02,-6.920738820703806193e-02,7.694087417465081402e-02
3.503637811462891744e-02,3.214380282735368292e-03,6.177398638540462783e-02
-8.453008369000564182e-02,1.753225043153148685e-02,2.259339313295537569e-02
2.474659068706214042e-03,1.940299984623073543e-02,-4.858917217309863951e-02
-5.832585545365353424e-02,-7.919806484632178900e-02,5.925486145617434725e-02
1.755482641548516617e-02,-5.024703941590264681e-04,-1.932262427076445951e-02
-1.935530475443144249e-03,7.492683167361017388e-03,4.268849735906182774e-02
-7.566538556396200377e-02,1.084719366771996762e-02,-3.766105713442726571e-02
6.476747889337028385e-02,5.617568748549425436e-03,-2.244635953336942755e-02
4.326455206382192470e-03,4.048143836096440920e-03,-1.232055869181358232e-01
-6.899138135905107105e-02,2.562489422964834077e-02,-2.287968221516794437e-02
2.635930845572151057e-02,-1.136890193894224271e-01,-3.293625512224944429e-02
-1.929364812191104034e-02,-5.133251728586981505e-02,-2.089053304747034295e-02
3.112379304126782972e-02,4.196625113794777429e-02,-4.730305935623723215e-03
3.417116719506500117e-02,1.349310906557984330e-02,-4.810229606826910143e-02
-2.384122131547964166e-02,-4.199155173860223689e-02,-4.163801305497111249e-02
-1.151696926377720684e-02,-3.494468846944571994e-02,6.642536820402444864e-03
1.018757489948120265e-02,3.047526836693285196e-02,-9.539558620382025331e-03
1.018769401624158716e-01,4.279019902667518388e-02,-1.100198617798317513e-02
-5.931227932629337674e-02,-2.833068079431425718e-02,-3.545303563226454707e-02
5.309897606325835601e-02,8.733498840258738238e-02,9.741858917927259318e-03
1.995419880050593869e-02,3.964998767517742551e-02,-2.329828583632554545e-02
-3.335400866049030577e-02,-1.646032656943812247e-02,5.667063295669944002e-04
-6.954361602725091240e-02,-5.586408035458646087e-02,-1.127880469003386260e-01
9.126232002704859347e-02,2.129175095386464170e-02,3.387006539396847371e-02
2.933629413449627410e-02,-6.434006835342361008e-02,2.845887789617293495e-02
-1.981638904742596616e-02,9.367268894936183962e-03,3.338277928269001160e-02
-3.438792938727686793e-02,4.555402666066143968e-02,4.986909038293432794e-02
4.806470361173156847e-02,-1.075458536470681563e-02,7.699255424336734488e-02
-1.802076103999073614e-02,-9.299749834474927909e-03,1.979814568497205440e-02
2.673956444208275621e-02,-7.930885951019288338e-02,1.682748305725931259e-02
-9.240970812738520668e-02,-2.703536533017770679e-02,-5.962607690300201352e-02
-2.367059679170296568e-02,3.689847692523306327e-02,6.771732604012466183e-02
2.144666292726747289e-02,4.832209556523186372e-02,-4.833957096115883145e-02
7.478345796759565400e-02,-6.761391406617480631e-04,4.967797869908702896e-02
4.280069311236289059e-02,-4.038678824587278097e-04,5.180401025092318951e-02
-4.731146433267049978e-02,7.289453411322427065e-03,8.212740860983065716e-02
-1.143166335374675010e-03,-5.604965658020691355e-02,-5.309515768366108480e-03
-7.428049093021344036e-03,-6.570740013162608417e-02,-3.699861792292166718e-02
-1.596839120851140451e-02,4.568435212113133859e-02,6.768907225020861541e-03
-2.523841940397989706e-03,-4.485482813092701165e-02,-3.821080722932657797e-02
3.651805608154539556e-02,5.517967685917579690e-02,-4.096750470439658280e-03
-4.275094246910391554e-02,3.052508290690550408e-02,-6.317467906914607870e-03
2.664995083605106035e-02,-2.616878700834854993e-02,-5.370449173576205548e-02
-2.163608161953523099e-03,-2.095511849019226353e-02,-1.484739714740400049e-02
5.319156960191025879e-02,-2.653876683610093684e-02,-3.417606957510429394e-02
-1.247908636206736081e-02,-2.551379542990501407e-03,2.592925436037595704e-02
-9.791998374351632700e-03,-9.322631317713390986e-02,-3.732978123604157455e-02
5.465034077284074837e-02,1.140399797512696087e-02,-9.936419969977813849e-02
5.296498128395703275e-02,-2.887624279681541908e-02,5.500815299128441332e-02
-6.831340126312838643e-03,4.174865602719590035e-02,9.623065964541573439e-03
2.807106979967277649e-02,3.302667083812010906e-02,7.102894037498765079e-02
-2.817315973692835138e-02,1.067746307546676293e-02,-3.872680500323584518e-03
4.226471928311931192e-02,5.507529580485798215e-02,-6.146258780578674197e-02
-1.710077960935673812e-04,3.638857397643514152e-03,-2.625800940333055181e-02
-1.276001259521131496e-03,1.214337907944599421e-02,2.133596343239425527e-02
4.699283843092784407e-02,-5.960821734163046504e-02,-8.501417419681672749e-02
-4.236095192063012854e-02,-7.505364063041289335e-02,-1.031624763579318954e-02
-1.881871012244764685e-03,-1.415558686664500701e-02,-4.203899392736666629e-02
3.999503672830945211e-03,2.187272156177572438e-02,3.182594164870418407e-02
-4.091903275053990902e-02,4.693463557518776086e-02,5.308790469636939791e-02
2.347674798583295266e-02,-7.729119702612949165e-03,6.193916236271929804e-02
-5.062758891572839530e-03,1.159114167803214704e-02,3.602622159576474720e-02
2.098507676714935974e-02,8.570098481344648467e-02,-2.327153469423259499e-02
-1.074380018078480159e-01,4.577448764211475285e-02,-2.638831191632186671e-02
1.426417713677426147e-02,-2.276909682680498814e-02,1.480393334725282450e+00
9.588319020363181289e-02,-2.464297811443803832e-02,2.855108116106140681e+00
-1.519926557310283428e-02,5.909740948027041030e-02,4.133045972272612723e+00
1.247346400599129261e-02,-4.895963422440642587e-02,5.171507014367173305e+00
-4.361519027123833547e-02,-4.299967563945028938e-04,6.146398996735404907e+00
-2.603305519279458177e-02,3.589212874006103560e-02,7.041969710547652639e+00
-4.484600066828992038e-02,-2.500589730093420726e-02,7.801966166057725083e+00
-1.007808129472034797e-01,3.342073380132746380e-02,8.539808883264619510e+00
6.545209691423486964e-02,-6.806677706490675550e-02,9.159190337886734312e+00
3.033690419571848443e-02,-5.511985950190950723e-02,9.783252404959810633e+00
7.077497254398058477e-03,-5.360931699827260061e-02,1.025389740466958877e+01
-3.981819343757684801e-03,-2.317615285292428870e-02,1.080575231209319753e+01
-9.281077884462181002e-03,2.918907658996847121e-02,1.113850713901098644e+01
-4.810634262753335499e-02,7.854587906682027748e-03,1.160992100582565634e+01
4.085163100835258881e-02,5.960495346701431829e-02,1.194331607792381966e+01
6.272581650846932588e-02,3.332448031723554693e-02,1.218345075656805321e+01
-1.834086613987104264e-02,3.194574395649727588e-02,1.246689182666245976e+01
2.873498315966210599e-03,2.154021443697316102e-02,1.271295869542281309e+01
-3.452221339226899111e-02,-1.537879897738058527e-02,1.301194926603242585e+01
5.984708663478147464e-03,4.847413972833416324e-02,1.313514888252039370e+01
1.328087039422988849e-02,2.239624521574354668e-02,1.336674536552415482e+01
1.596233907997413742e-02,-3.623016060144480105e-02,1.349336546193601905e+01
3.173454084813959186e-02,-3.691867079936316833e-03,1.363034085315249300e+01
-2.004070525051330001e-02,-5.130921336997294052e-02,1.383295651958762207e+01
-6.586930389294251564e-02,3.261543470526192395e-02,1.382864714025424568e+01
-1.677889750922503809e-02,1.314739112369565921e-02,1.400058243006192882e+01
1.121969587058937838e-02,-5.731630683356207095e-02,1.416552244014896189e+01
-1.337227392185539546e-03,3.982316741425762779e-02,1.419118985691292245e+01
-5.482882280744010711e-02,1.395117132157333920e-02,1.428656396520096372e+01
5.139410962252773107e-02,-1.199864717754468499e-02,1.440153675823744273e+01
3.874927686617925509e-03,7.233096768791072440e-02,1.437591843265838243e+01
5.289327380336807105e-03,6.292049761860718515e-02,1.448366408704964314e+01
8.626120833928933862e-02,-6.224753039240867036e-03,1.456407772348781648e+01
-9.372657293397110290e-02,2.158874501277148125e-02,1.452193640804032526e+01
-2.198571242095477551e-02,-1.244579819185943903e-02,1.465271340531215216e+01
2.769316950874571234e-02,-2.159939364200735498e-02,1.470213604545209130e+01
5.837877019274760604e-02,-3.549466271994299732e-02,1.464635682349320511e+01
-1.309911208527814131e-03,-4.687761812987360083e-02,1.473279988584926592e+01
7.105835015714670466e-02,-1.162000911992551108e-02,1.469893825984700797e+01
1.692177099452381664e-02,-2.536172256922723800e-02,1.475989752163219570e+01
8.383415526969420755e-05,5.751265101936108189e-03,1.480315767317424935e+01
-7.508237199445474963e-02,-1.406605328857015759e-02,1.480985537098444915e+01
-4.211428884753640818e-04,-8.707250348654573674e-03,1.481861429789894835e+01
-3.353338321494808705e-02,1.658931723987965012e-02,1.485769165702544292e+01
5.731224955935763747e-03,1.789309406122916238e-02,1.490000847605831069e+01
3.539323879427405933e-04,-3.888032862753074831e-02,1.493425866441696570e+01
-1.594297985164451481e-02,8.635145189404523636e-02,1.482283822360561309e+01
1.503647344298674957e-02,2.735508177098732157e-03,1.488939978201778658e+01
4.771338550885941693e-02,-7.911609696596194619e-02,1.485266178858219455e+01
3.420504855631884000e-02,7.356644487613382688e-03,1.497636465192828226e+01
5.448404717762284077e-02,6.223608561709546155e-02,1.496669846679982108e+01
7.371291109926421566e-03,-1.430633101074702679e-02,1.495359919360622847e+01
3.624117434024588108e-02,6.605781060257069626e-02,1.491232322745423389e+01
-4.605326593647209726e-02,2.959522133255305942e-02,1.498863458626109590e+01
-1.483584560397159351e-02,-7.214495392290813137e-03,1.495315668725095470e+01
-3.134474430205565210e-02,1.016680383469758392e-02,1.498909953099374270e+01
-4.712984883627883287e-02,1.685910260238068434e-02,1.498382308859278211e+01
-5.755612667332906524e-02,-1.393001336809786272e-02,1.496543418815183735e+01
-4.461732385796018246e-02,1.458705715092759557e-03,1.501301285432127663e+01
9.148587144342131255e-04,-3.534967492788054083e-02,1.492501205453314839e+01
5.197653678616271679e-03,4.635430828301335265e-02,1.492543338106727902e+01
4.492060924893139656e-02,3.732127549529701271e-02,1.496316278668439459e+01
2.829905226529120035e-02,-7.301052157797793644e-03,1.500482908720701758e+01
1.294961811844428344e-02,-3.349206109542170184e-02,1.501433689681550376e+01
2.130936815531531137e-03,6.267456632978964104e-02,1.504296971839192310e+01
-1.288799434267528556e-02,-9.057436708739424226e-04,1.508649297454295457e+01
1.762458500863435095e-03,-8.159764527891197328e-02,1.497283738964928368e+01
3.840681118589330673e-02,-2.459252418603433046e-03,1.503895297053881919e+01
2.655734053292914745e-02,1.511745444105248859e-02,1.501436737382373465e+01
3.597600010235707524e-02,1.166458899600865406e-02,1.495703624355307859e+01
-3.512982551165232808e-03,2.098941728445271812e-02,1.496329364325270461e+01
2.178197545510467820e-02,-4.689988432044877274e-03,1.499881206814763956e+01
2.745668648793429117e-02,7.035057497446742247e-02,1.502693699021787666e+01
-3.585848832230803529e-02,1.155299028946381312e-02,1.501080032923412588e+01
-3.596448351524457465e-02,-7.717192955129298891e-03,1.498186743085675943e+01
6.818779508387120235e-03,2.019138846635187487e-02,1.502187063788632138e+01
-2.576077355823436568e-02,4.258927182885207524e-02,1.499107182140522454e+01
-6.263817497099519183e-02,-3.896632022409149410e-02,1.499646980008774122e+01
5.267845142377446804e-02,-3.876455252414860286e-03,1.500948244837740297e+01
-1.713604868725044847e-02,-4.458514390039048270e-04,1.507737548158113938e+01
-3.210794818836141401e-02,-7.163806726139382991e-03,1.499492977440508135e+01
2.153193499965333144e-02,4.978961793111486706e-02,1.504814290921419584e+01
-1.845905143636205128e-02,-1.412031853692743456e-02,1.503240492008350948e+01
7.551110667511357587e-03,1.646657730363969979e-02,1.488362188557525734e+01
-1.485326049512295313e-02,-2.539472790369399699e-02,1.500094991929867128e+01
6.074168346501402499e-02,1.281707727919517009e-02,1.501499638504550482e+01
-6.099156195702643002e-03,-3.646384266438504329e-02,1.497888427030289904e+01
3.503486145471828260e-03,-2.018655101677327424e-02,1.501375086121800351e+01
1.734444554594907414e-02,-1.321258574094237061e-02,1.505120943436402570e+01
3.513152159575536060e-02,-2.501459926899774963e-02,1.501668370272421171e+01
-1.026252490198629325e-01,5.191132661395692766e-02,1.499519812484601999e+01
-2.130042511826180443e-02,-2.754411427376409968e-02,1.499763865081437508e+01
1.169591472849514438e-02,-8.828035396294048320e-02,1.499424014689965823e+01
7.058124983044763989e-02,-5.904703250731283687e-02,1.502050468403784222e+01
4.205779877970070718e-02,2.787927256869334597e-02,1.503873788848825122e+01
5.473945006425869411e-04,5.031231032002887044e-03,1.503586833780051712e+01
4.527473216081546320e-02,9.482883811367784355e-02,1.500069970107466766e+01
2.703816987920953929e-02,6.117868138574945880e-02,1.502529761714981582e+01
1.272933946237483384e-02,-1.646008508898156794e-02,1.500153087672856067e+01
4.114449719519961551e-02,-1.983661682515547656e-02,1.496249308090959751e+01
1.317757342986015760e-02,-6.355477303068234052e-02,1.499224874144511155e+01
4.749020925685634720e-02,-1.739963035897953633e-02,1.498751839142413900e+01
6.276354831097971307e-03,3.644583194108855229e-02,1.496289291039919078e+01
-9.291164580226173725e-03,5.563656504254350238e-02,1.500772256891357159e+01
-2.086502223174225429e-02,5.371362900654613748e-02,1.497748101469595206e+01
-4.891548259247816000e-02,-7.110098678985846306e-03,1.502303229295550580e+01
-3.059953744083672433e-02,3.948118514257791672e-02,1.498101217677441177e+01
1.010032993046461151e-02,-3.472303524469341762e-02,1.496056908146368691e+01
5.588403776787846319e-03,2.422768186715293370e-02,1.503403243943536260e+01
-3.635402643370726217e-02,-3.889245338988231524e-03,1.490036721840234080e+01
4.657258845339203208e-03,2.085992856375071952e-02,1.499731530591127004e+01
-6.575961942867480231e-03,-1.911613905302101193e-02,1.498037378073085613e+01
3.642678916624121632e-02,8.300898436164172445e-02,1.503501601618020977e+01
2.340688352143575207e-02,2.437085571384404087e-05,1.500315314586322835e+01
5.010700958419821854e-02,-7.393351578624260401e-02,1.489706105268938074e+01
3.842853558551907051e-02,-2.342307825640014760e-02,1.494308930914645117e+01
8.517539367934454098e-02,-4.746908013482252497e-02,1.493016635195439434e+01
2.896194093832246338e-02,-7.417066117582414228e-03,1.492596429327967478e+01
1.876892119315459739e-02,-3.624212604735531362e-02,1.498138075492848387e+01
6.817165413635500881e-02,1.145732413138485228e-01,1.491747886182000649e+01
3.636435099295071832e-02,2.361739336851301566e-02,1.495838700941390798e+01
-1.048145403809202895e-02,3.119446569848532969e-02,1.499939734455256790e+01
2.385535387513643135e-02,2.044533383816345834e-02,1.500591520521253663e+01
-3.888890466830538951e-03,1.164544709229106689e-01,1.501839154469313087e+01
7.501071442227122410e-02,2.667597293556807705e-02,1.497480097546013944e+01
2.964089811509413100e-02,8.886399435205097341e-02,1.502149848699935930e+01
2.405713970343353533e-02,6.139993314133878471e-02,1.503681211536674844e+01
5.651634928232194231e-03,-4.906510801042910817e-04,1.502267489259932809e+01
7.169159415932471746e-02,-1.137018090682924976e-01,1.501187404568148942e+01
1.424012137192151757e-02,-6.162416777553956365e-02,1.502055137958056719e+01
-3.835728100897330128e-02,1.145281799196130358e-02,1.497405332049822313e+01
-3.153248013833791306e-03,-1.124923698979789083e-01,1.498455490038967675e+01
2.968856985979748120e-02,-6.880348745197560623e-02,1.502319168668271665e+01
-2.672678652767537799e-02,3.244493564177952649e-02,1.499059135027491507e+01
9.953636839806781489e-03,-3.083421640748982076e-02,1.498050021119517439e+01
2.024958899224187092e-02,-9.698409997643115538e-03,1.494746894475718868e+01
3.174707916960790421e-03,8.588233125756854214e-02,1.500691355622778111e+01
1.876855780924802097e-02,-1.710879237614166409e-02,1.493927234717065033e+01
5.903241117636662261e-02,2.431692223134403197e-02,1.497956262954782503e+01
1.983751709072878802e-02,-4.426057421203258291e-02,1.498448130043627913e+01
3.778304613550055070e-03,5.245727285036401455e-02,1.496537184270323451e+01
4.515199817966666744e-03,-5.143644841597478506e-02,1.504359395821818879e+01
-5.860447771694772545e-02,-1.135856004362704834e-02,1.496593234532496908e+01
8.942286927406067898e-02,-2.124261379756319391e-03,1.494897651712780551e+01
-5.496087499788411372e-03,7.023593390267568459e-02,1.503494568950982035e+01
-8.611140740643738814e-03,1.389371151789893510e-02,1.502469808808707086e+01
-4.579208104154879055e-02,6.151082828710759121e-02,1.502976492661527530e+01
4.339235170638643113e-02,1.387114081713518299e-02,1.509825160492044382e+01
-2.405332083061670345e-02,2.315855172570547432e-02,1.499012285109848364e+01
-8.171038131021201092e-03,-7.659546047919899014e-02,1.497572936492797879e+01
2.099942361522404502e-02,4.063035882363252166e-02,1.498069342320589570e+01
-4.714983257414250700e-02,2.782215315532625063e-02,1.503046954373442645e+01
-7.178410129381271321e-02,-2.880940276993201616e-03,1.497464695074711827e+01
9.212346784956896087e-03,5.026230911085869529e-03,1.499407189215843061e+01
-6.508737409633002548e-03,-2.509356840484884554e-02,1.498851204684567406e+01
-9.415412124792628401e-02,-4.540515258038815144e-02,1.499777851882845781e+01
-3.747865310363932001e-02,-5.755853113706880381e-02,1.498273060863044392e+01
-1.632145404645232029e-02,-1.638510600289623531e-02,1.501147356864624705e+01
2.091243916694860653e-03,1.475096837133199525e-03,1.503787517875566593e+01
-4.277415790220918945e-02,-7.750140733948125693e-02,1.503361729134735469e+01
-2.209583482655328238e-02,2.766031650227381358e-02,1.502753127226791641e+01
-1.402891321410939564e-02,1.435259743596955899e-02,1.498253120370566194e+01
6.639549506933400957e-02,3.223339054963111211e-02,1.502533104300049693e+01
2.233523370558708129e-02,-4.698970323849266384e-02,1.506326198292081209e+01
3.228059560805870282e-02,4.276890661133864180e-02,1.489161041336789282e+01
4.573114260817800342e-02,-2.351407541817326571e-02,1.500405580753527524e+01
8.116660792108219835e-02,-9.756636960113088120e-02,1.496407138609976961e+01
-6.596547228891140591e-02,-1.044145501900314854e-02,1.496133722965636359e+01
-5.105722249914367017e-02,3.672154550732446582e-03,1.499257941257311799e+01
1.710512101600615217e-02,-4.480080760703258891e-02,1.502008154329191569e+01
2.153112456219426207e-02,-2.143668001201626608e-02,1.498373960306468078e+01
-4.823955115162505830e-02,4.812738146740851153e-02,1.498534927965143027e+01
-4.804842892166117513e-02,-4.367240628551353858e-03,1.492559756514344294e+01
1.261776399883620357e-02,-9.818529838948330396e-03,1.503544054739005986e+01
5.312124910302191971e-02,6.919985427240653297e-02,1.498144855465899639e+01
4.069718715181811636e-02,4.455698001976311079e-02,1.506627113455000178e+01
1.033855868692812839e-02,-4.189526509634092927e-02,1.500133158411942169e+01
5.737530761704447840e-02,1.009541604149228472e-02,1.500410947996085298e+01
4.184198279851966684e-02,-6.621038805639549440e-02,1.507280505783088209e+01
-4.385456356993729793e-02,-7.087983257205873744e-02,1.493161299248912144e+01
-2.817076234524483469e-02,-1.463099378788076943e-02,1.497320259641998241e+01
-4.919289016253498847e-02,4.367650802259707976e-02,1.496730490026498295e+01
-6.768555207477196245e-02,4.185150228630628300e-02,1.495304805812051363e+01
-2.988246744587223780e-02,-3.182172397915228323e-02,1.497144148460727386e+01
6.922186960627238483e-02,-3.903827992445715878e-02,1.501925112458893885e+01
-1.992449942981680891e-02,4.037655118991069492e-02,1.502375607687448600e+01
-6.346869637839967770e-02,9.124200373394097605e-03,1.494432102727981970e+01
-1.364511218691326529e-02,4.209754210055956930e-02,1.493467747952544400e+01
4.545626370645609871e-02,-7.841523056990848395e-02,1.501153381485479876e+01
2.782821713083214604e-02,-1.150314428364472563e-02,1.505823515932611478e+01
3.980975421768545575e-02,6.563904385392330121e-02,1.500771955293682325e+01
-5.769233011408622658e-02,-3.657846615775837973e-02,1.509066418423598854e+01
1.703887617760399889e-02,9.230626660596452995e-03,1.503918065264386783e+01
1.962063671187054548e-02,-6.107473450734175052e-02,1.502746580782963548e+01
-7.222510483372872325e-02,-3.883737990816655411e-02,1.503133626588945759e+01
-3.850499591750793614e-03,-3.675784969257751833e-02,1.506023542435867490e+01
-7.812233212065132493e-02,-5.451343093399484141e-02,1.494950431875573393e+01
5.502174556962643320e-02,9.239031075649897784e-02,1.504901316663635136e+01
1.535085710564581575e-02,1.978611173203288082e-02,1.505835049686773530e+01
1.266222242827508455e-02,2.155588253513710320e-02,1.503425355733702595e+01
2.303626407463843159e-02,-1.713523959686790929e-02,1.499980300437992753e+01
2.065597145473630630e-02,7.407581056518779128e-02,1.501778588612379117e+01
6.528224952240396783e-02,-5.870764851226762358e-03,1.495559119912251944e+01
5.774447305130427088e-02,-1.202294876665901567e-03,1.504475069293531142e+01
-8.755659531414293484e-03,3.701302733781403759e-02,1.496682702149238331e+01
4.200493281692958825e-02,1.898077690866460665e-02,1.506653391483587257e+01
-4.173250219077972306e-02,-6.511541861675465559e-02,1.502098024971883916e+01
-4.032242524917070692e-02,7.418922943841374518e-03,1.501695255416190555e+01
4.440370977310374896e-03,4.137721263128753268e-02,1.504809943852730392e+01
-6.608966289162851449e-02,8.989179535789844702e-03,1.508567599822637817e+01
-7.279352218179582779e-02,3.898396715052302591e-02,1.503076800179794148e+01
1.308338591973307041e-02,3.626727551381581788e-02,1.498833398576362974e+01
1.326584421205868804e-03,2.609238978248299562e-02,1.496769561221641354e+01
1.363974621183547918e-02,3.074926816562776125e-02,1.499398965889485247e+01
2.272315718516581748e-02,6.058637698453536030e-02,1.502692163328979547e+01
2.169565366226117523e-02,1.231345098108376900e-03,1.494447439266279432e+01
-8.719032637861368062e-02,6.296194513618597055e-02,1.493884862555712623e+01
-1.445638426119584888e-02,-4.970107088483097235e-02,1.493015625025671334e+01
2.554898773583469049e-02,1.897021238632963167e-02,1.500395879850172953e+01
4.789445195630511604e-02,-3.027734808576282993e-02,1.496460413151330293e+01
-6.997453037696222929e-04,1.672875968366402746e-02,1.501591571914716816e+01
-6.730863358273059260e-02,6.038365086814150018e-02,1.500885119366872900e+01
4.276030114240100821e-02,5.277647039825897682e-03,1.497526042456163253e+01
4.676814024524213013e-03,-5.008165513541283642e-02,1.501847867242081769e+01
8.694311805438385832e-03,1.525905705381259449e-02,1.493319022956808162e+01
2.164994714974983331e-02,-4.061714109095646008e-02,1.490479279960624659e+01
5.116845954066096686e-02,-8.223144512694159636e-02,1.503169667083686711e+01
1.495366127695046954e-02,4.888664661134792776e-03,1.504713174715574375e+01
-1.269759885375520980e-02,-8.414725018925929903e-03,1.498031733477332317e+01
8.287378803284707607e-03,-2.205705503900779602e-02,1.503200738842402551e+01
1.282566282655483612e-03,7.834332971485305497e-02,1.500128239023709931e+01
5.274983006334634655e-02,-2.409921893437764681e-02,1.507176070980431959e+01
-5.467886292245853486e-02,7.876239706748524444e-03,1.499631886194056385e+01
-4.166397410625214542e-02,1.073502496598241485e-02,1.505457577964217464e+01
2.038568466316260496e-03,-8.623113219178815680e-02,1.507342037428251302e+01
-1.574327663244385472e-02,3.344690108747230134e-02,1.499440280163576134e+01
8.825304535198326417e-02,-4.727710838510765928e-02,1.498661272018227741e+01
-8.439877878500695596e-02,-2.436882361800806612e-02,1.502217012053715450e+01
1.455592955328585680e-02,6.430951430785182554e-02,1.506588343721862699e+01
2.168067094548191756e-02,-9.522560461652403163e-02,1.503895553507761029e+01
-2.513728315021163812e-02,2.490546287003453027e-02,1.497645618049613603e+01
3.468384676624293450e-02,-3.208295761142856278e-02,1.496912822642144647e+01
7.382986261883507650e-02,7.543816725742655271e-02,1.503914251486807885e+01
5.207896064409749115e-02,-2.185631835521312932e-02,1.490516738284294185e+01
-8.196208990864894961e-02,6.919806603676434409e-02,1.500944694062519602e+01
-3.435522776101088138e-02,-2.717269990754868705e-02,1.504680672436074040e+01
3.585212197254145257e-03,-4.310468074572131048e-02,1.505985853541258379e+01
3.356807277393818179e-02,2.575325801889486940e-02,1.498927831695569424e+01
5.263906474670678598e-02,-3.557472631283153247e-03,1.505292926240233520e+01
3.101415531626924155e-02,1.793862181023108890e-02,1.501606856180091221e+01
1.941219666364971813e-02,-3.351816474094864579e-02,1.500039104196007678e+01
-3.121027858917580639e-02,-3.631614276556706378e-02,1.503064995572381335e+01
6.632082775559308696e-02,9.855429511356966071e-03,1.492348808185316678e+01
3.647009302803459752e-02,1.797192722429976491e-02,1.497350164093136549e+01
-6.243903637713625913e-04,-1.108803059828067199e-02,1.502175076765563055e+01
1.853103227492418695e-02,5.550243321414238123e-02,1.504416598135111371e+01
2.891704170426097429e-03,2.684299204361346655e-02,1.498331043779809413e+01
-1.288287235582329798e-02,4.294416059666983365e-02,1.506002720100662806e+01
-1.055268144037723177e-01,4.544747860340753870e-02,1.506413853674332692e+01
-5.510720694405458336e-02,-2.912114636194818983e-03,1.497513701415874365e+01
1.465142714157867572e-02,-1.399318284425195291e-02,1.499614207861647763e+01
-2.187173094989226796e-02,4.445585848935396101e-02,1.502630977761753606e+01
3.099855209199179826e-02,4.488981829412497238e-02,1.505463035017597839e+01
-7.475182291937668144e-02,1.023853605092026470e-01,1.491205498076100078e+01
1.185579412713745340e-01,1.895408843516408967e-03,1.498084458179677014e+01
-5.917719716457950363e-02,5.924070573607936180e-02,1.495825696248564185e+01
-1.949478526112223900e-02,-6.973973947565353070e-03,1.501032776765237386e+01
-4.609790196658619665e-02,3.718001605212195582e-02,1.498799144905605374e+01
-8.516825436166004792e-03,-1.895904050265950422e-02,1.497090851545221568e+01
1.224018980191851104e-02,-6.768280589584613205e-02,1.495000588661662988e+01
2.125014565656570958e-02,-1.349031025935861806e-02,1.495929434793676194e+01
-4.936463554716555291e-02,-1.677706675509381407e-02,1.504966404230933819e+01
-9.414569655224766520e-02,1.117545619983071996e-02,1.500054189009732752e+01
5.021834462218283113e-02,-5.116568600567421299e-02,1.499869408362714118e+01
-2.761648852061174622e-02,-3.797542770010251673e-02,1.499925875637229566e+01
-2.974853120433188988e-03,-4.484744708024387960e-02,1.505126477191335432e+01
-2.159689135221879927e-03,2.404463113408109726e-02,1.505834931858269954e+01
5.549976542251645190e-02,6.222965551798171485e-02,1.502106146393866126e+01
-6.456475280369870784e-02,2.918921707093780332e-03,1.501868332947791096e+01
2.009317942934100640e-02,-7.336521701295997330e-03,1.502522672799207015e+01
4.200815580871219285e-02,7.245572991916618411e-02,1.502054216814793364e+01
5.892358692665956854e-02,-3.763654031780654802e-02,1.507881642190048055e+01
2.276151585598308255e-02,3.384821522406145783e-03,1.503208159299339641e+01
-1.649388720190002669e-02,-1.570586728987242303e-02,1.501575056857789647e+01
1.736069913191164854e-02,1.217580080032079487e-01,1.498137689647650639e+01
-7.526940388580739827e-02,-6.119136362411108782e-03,1.506479860363220702e+01
2.705430562579939219e-02,8.123992686369578553e-02,1.496003394950727206e+01
-9.865871574260399665e-03,5.839354291227739913e-02,1.497897863371930427e+01
-1.061335284031481203e-02,5.780059479044448445e-02,1.496189929124761342e+01
2.356979180393056761e-03,-1.534976383099962219e-02,1.501288314343739394e+01
2.303303035779754454e-02,-1.828686547766803297e-02,1.491774543423269783e+01
-1.941644346764176757e-02,4.090098613274421868e-02,1.492500648713435218e+01
-7.084292459321804396e-03,-2.710828329200186057e-02,1.502255504982034395e+01
3.057461536293866813e-02,2.912894562837295941e-03,1.496956177612657513e+01
3.501565550059640430e-02,3.410873044219560335e-02,1.501490203509694155e+01
-2.490042855968585545e-02,2.653375721794603431e-02,1.497509873533409674e+01
-3.047996772743661112e-02,-1.442106666649734838e-02,1.496847507409000855e+01
5.080273249639908478e-02,-3.979285832062200157e-02,1.497621970367106847e+01
-9.133016174840540360e-03,3.247017538620707716e-02,1.499780284223164983e+01
2.618811563197749603e-02,-1.440995849212503913e-02,1.495464759559786572e+01
-9.992733647561594101e-02,-1.035376854528126736e-02,1.493050700887446069e+01
1.107628370558676328e-01,1.443569130059880632e-03,1.497798218359780620e+01
-4.677117450353179134e-02,-5.058319624634401851e-02,1.503024946553630237e+01
-1.350359529234099534e-02,3.472002367514697568e-02,1.503354497719097616e+01
-6.511938999055476296e-02,5.598871053170839662e-02,1.500354243546017763e+01
3.024732264579212473e-02,1.346246142641746406e-02,1.499124672522634150e+01
-3.372371200978225431e-02,-1.137511784082682539e-02,1.504345539456449643e+01
6.502386927415510463e-03,-3.886855737082609008e-02,1.499153916022968858e+01
-5.347915740007876118e-03,-1.267509924176819444e-02,1.504465662888086719e+01
3.876903444204850280e-02,9.820167590242782907e-02,1.500060176507672516e+01
3.385708168881404814e-03,2.980285122766623482e-02,1.499540458910139940e+01
-8.874337977819007559e-03,5.688653360128145819e-02,1.507916332178346863e+01
1.763359449137816932e-03,4.226739809704584128e-02,1.499209881285739066e+01
-5.362119230108283729e-02,-7.462927558557688225e-03,1.496067448381139897e+01
-2.913825869342503982e-02,5.847615087363360054e-02,1.505873449792874119e+01
1.433882598613454851e-02,9.723486919256608269e-03,1.501281567455281518e+01
1.921079510457308209e-02,-1.124888938091375343e-02,1.497804976535354982e+01
5.452328027978134428e-02,-1.035592438121129416e-02,1.499822528650260978e+01
3.429475336282129805e-02,-7.394651606821288359e-02,1.496944656936969587e+01
-1.447012132415146160e-02,-2.237192129865887488e-02,1.493575970251087526e+01
-4.338043424041965884e-02,9.103262366722457075e-03,1.490996520533195913e+01
1.182645753144835957e-02,-2.419300151708009966e-02,1.496519734505147348e+01
-3.151810931110834296e-02,2.574508678322600178e-02,1.504841816138106836e+01
-5.426915168705546966e-02,3.033042533601578231e-02,1.498027145668810789e+01
-3.287806663612504593e-02,2.750997246948476242e-03,1.499254834717908302e+01
1.948555858833163346e-02,-1.655242046178549004e-02,1.499923701310710200e+01
-2.912910597646549068e-02,-2.495424593142468381e-02,1.498277976728240191e+01
-2.737003871106520256e-02,-4.175619938458639130e-02,1.501473360545803892e+01
3.682524861396160865e-02,-4.363832602549689611e-03,1.501676950011763623e+01
5.354471090108299698e-03,-3.086941884850686463e-02,1.503879964327632202e+01
5.524794889253609870e-02,2.481873844423975947e-02,1.494903428683080726e+01
-3.064624868237802655e-02,7.041116798767564633e-02,1.507346666390542822e+01
-1.963507086773947589e-03,-9.143223625273261268e-02,1.509860545482037431e+01
1.517139478756716203e-02,2.649356670682273540e-02,1.496711285633664446e+01
-1.346823308250336831e-02,3.723965449215695805e-02,1.497092831161428172e+01
-4.954599197601904786e-02,8.228893426913144737e-03,1.499400210697442937e+01
1.025752270628714491e-01,-1.153220678587576521e-02,1.502313479753975756e+01
-1.049579575594766084e-02,-1.020236773711977185e-02,1.504263974972488782e+01
-1.783018174625721625e-02,6.514033139236176384e-02,1.501349772531255944e+01
5.991337861077650900e-02,-2.545264196280960095e-02,1.497378550133023900e+01
2.742233171479523807e-02,1.119528924875254697e-02,1.500855017341663533e+01
4.679252174360178790e-02,4.334062673916101727e-02,1.496386764111607626e+01
-6.684578964899466624e-02,-6.974888248245719735e-02,1.503708720535440690e+01
9.192802120127954724e-02,1.949862893486925194e-02,1.496854078817012379e+01
8.079999541696710960e-03,7.561527783669560847e-03,1.505758744670567317e+01
5.156114339423375353e-02,3.717956209683087598e-02,1.494228499350443506e+01
1.720443731533581599e-02,-4.603677859673027672e-03,1.502392595541507347e+01
4.472283996480919122e-02,1.895138736563699994e-02,1.499670285619670906e+01
-5.777318402624653099e-02,9.121823195764280912e-03,1.500058309411641133e+01
8.157868824803796853e-03,5.720275206367213261e-02,1.496291071501495828e+01
-1.976417228420161015e-02,-3.432845438829099788e-02,1.503407061802817779e+01
8.163149587411618058e-02,-1.803953678784065914e-02,1.500138715802052936e+01
5.048045055590998087e-03,4.631036792581835065e-02,1.493751069136720311e+01
-6.200210498548744398e-02,-6.476116065644754727e-02,1.492838238567787634e+01
-4.766689506932373505e-02,-2.064985016314892577e-02,1.502409865114673693e+01
1.018141412057080048e-03,2.757435204517318800e-02,1.499241904681138493e+01
3.673249542949436064e-02,7.392269276925207515e-03,1.495928720477858853e+01
1.953424675400624103e-02,-2.915929484227542529e-02,1.503555336293522693e+01
1.217850617088344321e-02,-4.157418938463714603e-02,1.506510876976535585e+01
-5.066059587198907394e-02,-1.190393383610655401e-02,1.497862189852273040e+01
9.452716814736548956e-02,3.951105839304130257e-02,1.502789354398365873e+01
4.798919111820785718e-03,2.962688381465432286e-02,1.500586049576157777e+01
6.294522624352495363e-03,-2.308348514931872833e-02,1.496697288710984175e+01
-1.048100575269400592e-02,-2.363913228590700313e-02,1.502310122446103158e+01
3.910894216246114247e-02,7.486611059890409259e-02,1.507332514744650354e+01
-1.781086417453780699e-02,-6.606681425800240218e-03,1.506826266859965280e+01
-4.869442042675934529e-02,-4.093225586682489731e-02,1.505773425064289661e+01
1.383970801030119137e-02,-2.644284179999066911e-02,1.501885543568569403e+01
3.604646111246967433e-02,4.302798832670937101e-02,1.501693254417511447e+01
-1.615919638429993282e-03,8.218637012183252488e-02,1.500189871021721189e+01
1.251924593674806283e-02,-1.508484928504265354e-02,1.500997963690790549e+01
9.794948271387225736e-02,1.912975038924917201e-02,1.500531720559323468e+01
-4.104021704937896309e-02,-6.771583042666604046e-02,1.502874598100048686e+01
4.005880135955233734e-02,-5.468210794428547076e-04,1.503067789366584783e+01
-4.410681150458348188e-02,1.072407928533129773e-02,1.496115587963116589e+01
-3.423316851334667205e-02,-1.303299799745993512e-02,1.499535749339997182e+01
5.309002517885424988e-02,4.093058774151763640e-03,1.496827306684039982e+01
7.234205868598313216e-02,-4.671124085894277911e-02,1.502091120226761589e+01
-3.969360338801614096e-02,4.083664884072171070e-02,1.501507772103866500e+01
3.834481706641384297e-02,1.765161403581386873e-02,1.505346027700804967e+01
-7.752296513297335726e-03,-5.730720769819114269e-02,1.496088186476025150e+01
-2.597622987381963122e-02,7.748316376636425057e-04,1.504938784944109642e+01
-1.474946375482204426e-02,-4.015259506951336654e-02,1.504642786824072864e+01
4.335202541449179048e-02,-6.444842891189185921e-03,1.492255611166626927e+01
2.816002897308976169e-02,-8.542587730328558837e-03,1.501021917489107338e+01
3.628400241816810701e-02,3.237214721940254170e-02,1.501848946678194530e+01
-4.474481743626787522e-03,2.820372683527383462e-02,1.502491941595988223e+01
1.090623269599073908e-02,-3.153082322587871800e-02,1.507705308798848165e+01
-1.254845282861729618e-02,-2.266703090845475707e-02,1.495751337674725079e+01
-4.265940996863627072e-02,-4.803391241708294956e-02,1.494110908153343154e+01
-3.693950165880027087e-02,8.430359804268507812e-03,1.505367822665950150e+01
8.383276780770550218e-02,7.266948319443690754e-03,1.498762169086780816e+01
1.279505743280025774e-02,-3.381054358509118229e-02,1.493942268659650807e+01
1.388339898805197523e-02,-4.080844268267653369e-02,1.499759016890806507e+01
2.495743106667179783e-03,4.186384956505567051e-03,1.502130017347542967e+01
4.206214679182100624e-02,1.472275214500667548e-02,1.499502094770050142e+01
2.405426524943958880e-02,-6.920844141906758694e-03,1.506472111220190513e+01
6.275657741708755288e-02,-4.829823401001547695e-02,1.495046854125997804e+01
-1.987972661494816565e-03,-4.244225357100713664e-02,1.498194235044529599e+01
-2.715729374539565047e-02,-5.338868845518372763e-02,1.499349682891272550e+01
-1.264017270160581151e-02,-4.396367263003202880e-02,1.507884906010337467e+01
2.993974935599733045e-02,3.607024654236868147e-03,1.493980867616373764e+01
3.209736035616495790e-03,-1.266575290962535308e-02,1.496253299894667244e+01
-1.253669481313887321e-02,3.039908304081193058e-02,1.498168952488662065e+01
5.004944246058394032e-03,5.104057666972387775e-02,1.498738186848312992e+01
-2.157845440711157053e-02,4.103234664867987103e-02,1.506038487954091920e+01
-1.564273572483068295e-02,3.065803164087773508e-02,1.500710154745932101e+01
7.815196208518196408e-02,2.232295258153176032e-02,1.498854389424815992e+01
6.845569839012725921e-02,-3.705074543948418814e-02,1.502452720636724770e+01
3.168654027532778750e-02,-8.062687882818164731e-02,1.494558082985380310e+01
-6.149524992525346595e-02,5.841866033627643451e-02,1.496617069756112883e+01
5.446027071836073014e-02,7.546791759077392699e-03,1.497810818962045509e+01
-4.935412084378153902e-02,7.901918565092981572e-02,1.497146230221803798e+01
3.537563394966058289e-02,-3.763623515669742292e-02,1.493470652442873359e+01
-6.532857250588405829e-02,-6.386240679618558624e-02,1.498026380192229645e+01
-8.040765862351860124e-03,5.955022030600418126e-02,1.500473434143506424e+01
1.568493958631761442e-03,5.566887639755829092e-02,1.496934830446819120e+01
-6.622092933875356469e-02,5.611834719891911627e-02,1.496832226287158463e+01
8.357219017375859538e-02,6.241895678739254813e-03,1.505036328571487303e+01
7.129071468738793285e-03,2.228060586020278334e-03,1.496031106547181722e+01
-9.381804334868318329e-02,-4.693828335529086002e-03,1.487343738308606866e+01
-1.867391246380068620e-02,2.810772975999354870e-02,1.495918056519575323e+01
-3.876970878020608025e-02,3.858584019613361255e-02,1.500968344536426358e+01
-2.505415493732076476e-02,8.582150189667082929e-02,1.504886572376392451e+01
-8.040131241024790765e-02,-1.839953405303449210e-02,1.494034374818503608e+01
4.573753090942977301e-02,2.825047374113687226e-02,1.488894259641284101e+01
-4.057038405085894306e-02,-1.226598543802857010e-02,1.493490278380028613e+01
-7.633321668111854585e-02,-8.421167782957947323e-02,1.504492130758435486e+01
-5.199712606089419709e-02,-1.001104195871730176e-02,1.496553823688624085e+01
1.705316112787956875e-02,-5.940452146041576981e-02,1.508363923767044668e+01
-5.290154530213479062e-02,7.795567204101729215e-03,1.507014952321429035e+01
7.575245101081434784e-02,3.352116509683142342e-02,1.494704139582663061e+01
2.159534060192994445e-02,-3.816974828062436736e-02,1.500819866553320558e+01
1.039705661530946831e-02,-1.821696066290322963e-02,1.503550236549420127e+01
4.872441257039214491e-02,-1.178641797076960401e-02,1.492857552349205719e+01
-6.097442386231645417e-03,-7.961078950858976530e-03,1.498991502171760359e+01
2.891589323124555549e-02,1.987355624447723762e-02,1.499205127178065133e+01
1.758775726103244813e-02,8.252611962200446030e-03,1.494834886781690564e+01
3.479114207925574492e-02,4.221529300695093384e-02,1.500055115725717592e+01
7.867019409669207680e-03,-1.165042802654529981e-02,1.501434168101750899e+01
-7.447769892691086246e-02,7.302928024239949134e-02,1.506256923598005670e+01
1.445519074724717010e-02,-4.212904659499055321e-02,1.498763862390530832e+01
-1.861794039261885012e-02,-3.381734442897756793e-02,1.496371068853451902e+01
-1.203901036849590878e-01,5.290714988198874646e-02,1.498450864964810592e+01
3.534284034731295654e-02,-1.008826823776349212e-02,1.502141389067837274e+01
3.986977859303292987e-02,3.568164781229559573e-02,1.502508492560214037e+01
3.220051627808175054e-02,-3.072220387588332768e-02,1.498277592726647711e+01
3.025630895353141527e-03,2.027329397822541512e-02,1.504885076705382296e+01
7.941265900451058637e-03,-3.208660519799035743e-02,1.494919995585170369e+01
-4.161767947192024364e-02,6.677023025143058454e-02,1.502474265754347726e+01
4.161538486756087563e-02,6.770699656328794946e-02,1.500800976324160985e+01
-1.961158391208410109e-02,2.812331386680022582e-02,1.495723555877669675e+01
-7.481732876772576035e-02,1.739039389424221205e-02,1.502539127417112574e+01
1.760533941275260056e-02,-1.914968713189751578e-02,1.496444216094184831e+01
5.295500621754303111e-02,5.022973870390239071e-02,1.499119661107291890e+01
-2.615002472091987416e-03,2.710981587179096472e-02,1.500354889526562729e+01
1.677338483907847501e-04,9.211175324005607332e-03,1.497008511056028901e+01
-3.358427072513022610e-02,5.359017611970198075e-02,1.499150480897136539e+01
-4.647463945452937062e-02,4.738922143040833618e-02,1.501203333297446285e+01
-3.200551783895261293e-02,-9.471070680272166559e-03,1.500814144659068106e+01
-2.874251141411374860e-02,4.317526095874241882e-02,1.497061001446604855e+01
5.634733842485948468e-04,-7.545907633870425901e-02,1.498307749957262835e+01
2.230660451082437309e-02,-1.733903121687487697e-02,1.500083583394480868e+01
9.871461068091409718e-02,-1.116820635583508359e-02,1.498144339481046217e+01
-5.930197537408151559e-02,-4.627291965192788237e-02,1.507044212522054849e+01
3.622272240313830632e-02,-1.255644912034796327e-02,1.501600867631990077e+01
-3.954343472051687070e-02,-4.929791944184765129e-02,1.504432522720009757e+01
-5.283759670608853889e-03,-3.009819590299721986e-02,1.504747009316098882e+01
6.260923978441321203e-02,2.001764716126515006e-02,1.499845270445315926e+01
6.608604532295511702e-02,-5.071855886796914487e-02,1.503046276722885288e+01
-2.083683305804202943e-03,4.900122953525658936e-02,1.499328347167095110e+01
1.598671422384805030e-02,-1.432295143356169045e-02,1.500489132452123009e+01
-1.266897577592990438e-02,-3.249419595627389690e-02,1.503002676192525477e+01
2.500579929465584529e-03,1.054493462536863421e-02,1.493314151775267540e+01
-8.543142626407038143e-02,2.232262781697610596e-02,1.499057948165844145e+01
1.571737918410695198e-02,-2.413948230025700359e-02,1.497848463786378659e+01
1.767547591232086768e-02,-2.679661835966383465e-02,1.504186616962273249e+01
2.149804173390916853e-02,-2.366321068633148433e-03,1.498933930091288325e+01
-1.058986119819266313e-03,-6.532716074428765451e-02,1.494883885779895927e+01
-9.694662179634051802e-02,-3.104281337311885422e-02,1.499052442350965642e+01
-8.266516904860980730e-02,4.451837701886902920e-02,1.507025986497157177e+01
-6.004650461831439329e-02,-5.464829543848172266e-02,1.497668327559824419e+01
-4.690163717261179935e-03,-2.965158402855815750e-02,1.496350046577152249e+01
-4.627105281676855558e-02,2.931358153397644120e-02,1.508295214564986253e+01
-4.169299660546782471e-02,4.792938239936456180e-02,1.499109517019994087e+01
1.583016354955748758e-02,-8.406276934737647033e-02,1.503917798126600758e+01
2.000661013716639389e-02,-1.798582014529369333e-02,1.499549274867897353e+01
-7.740624787708264010e-02,7.579774861358965984e-03,1.495486091624427161e+01
3.269068130026475671e-03,3.093552349987501240e-02,1.498648381764713911e+01
-7.356347443994531304e-03,-2.760603215348051559e-02,1.496385309679857656e+01
4.561715183701496590e-02,-5.598546501907962492e-03,1.501223011070412916e+01
-5.379465855298645738e-02,1.939220124037638326e-02,1.505080192791275273e+01
2.047130158556376839e-02,-1.529315602830172947e-02,1.497563394334000364e+01
-2.135065321904084171e-02,-5.607370082082250434e-02,1.496768313750806279e+01
-3.177055417868800830e-02,4.656135425781659544e-03,1.502676761988736232e+01
1.862019791732710816e-02,-3.318877815987563568e-02,1.506339245389419190e+01
4.200830123933946281e-02,6.291769774908712032e-02,1.503969430644494665e+01
3.520090022688472653e-02,-5.919295918587361843e-02,1.499155845854671831e+01
-2.542584212542550043e-02,-2.795043720968421602e-02,1.503469053927986998e+01
-2.678939561238016798e-02,3.668752124551912658e-02,1.498938065730701119e+01
1.901567641983605353e-02,2.781881850143481938e-02,1.500029681019082162e+01
-2.620613584985984415e-02,-1.951531161045528531e-03,1.504572815323684409e+01
-3.620048766820232328e-02,2.999304903120085866e-02,1.501469711176645205e+01
3.359082265907906151e-02,2.044333187286832918e-03,1.495461916071969277e+01
3.922876690297141984e-03,3.331392782683462866e-02,1.500014344215378337e+01
-6.031150686737703215e-02,-5.233285462017275846e-02,1.498836679193316002e+01
2.266727011987108506e-02,9.344480520261137183e-04,1.507286375842779691e+01
-1.838284348007277651e-03,-1.368882204124532303e-04,1.494462641610873987e+01
7.430495625416415340e-02,-3.774096467221594534e-03,1.500916124715161537e+01
-2.863376374444497052e-02,1.361087903132815295e-02,1.500396393537062778e+01
-6.344708236507658194e-02,-9.475329723877919108e-02,1.500463557316281893e+01
-6.826705060506166323e-02,-1.402029974921658283e-02,1.496645392368754557e+01
1.734015649823482386e-02,-9.322428705222946671e-03,1.498149889629138265e+01
-4.886549004405439135e-03,2.570303292382037849e-02,1.494584188402246205e+01
1.742844410108193229e-02,-1.705303996349475520e-02,1.501833150548816853e+01
6.690043733577269447e-02,1.619800743616747057e-02,1.504228683942429257e+01
-9.400277420566852463e-03,-5.074190115503985840e-03,1.497108023615340144e+01
2.439618333145319659e-02,-5.489624907965893336e-02,1.499686168916081819e+01
-1.818011236096298347e-02,-8.557114205431896534e-03,1.499866356526598032e+01
-1.585125954931995360e-02,6.400144061503404772e-03,1.489334110497756392e+01
4.960488918507299089e-02,-2.242836499564306030e-02,1.501224017120360799e+01
-8.405964709188957704e-03,3.685399381011764119e-02,1.495452457088560294e+01
-3.507557165734914717e-02,-5.764644127468837760e-03,1.495358770609329113e+01
6.700869890976760002e-02,-5.518482794517364561e-04,1.500951208156317485e+01
6.014158676932088859e-02,1.357492525975726241e-02,1.494955608942567693e+01
5.917585133539535885e-02,3.741114699804397314e-02,1.496444219010107801e+01
6.736741883713195933e-02,-3.047553881787934058e-02,1.499928144416404052e+01
-4.634117690140991674e-02,-6.543395854824744784e-02,1.499682051263162741e+01
1.333856069350355944e-02,4.643234521367536199e-02,1.501196690393716260e+01
3.481583046060646169e-02,1.506136036468076105e-03,1.499578633839155195e+01
-4.681810721878233716e-02,2.184515015121133233e-02,1.499996543246198577e+01
3.106211218107916144e-02,2.082724029387145182e-02,1.496779724999130146e+01
2.562167197001967781e-02,3.666478205107199378e-02,1.495373100203287109e+01
2.083072999751245380e-02,3.035391710279700811e-02,1.501515128288329848e+01
4.162645223629855146e-02,2.443371247307011759e-02,1.500227489109266088e+01
-5.512555715365048681e-02,-5.115553963338066723e-02,1.496547918205633287e+01
-4.917010847955199243e-02,-3.029952397953102061e-02,1.502286581705866908e+01
-7.205121119295454513e-02,4.173753469062677079e-02,1.495667055535884948e+01
-1.725535871678251718e-02,3.501756460395993170e-02,1.495914491548062131e+01
3.250742831112429787e-02,-5.868235237960440359e-02,1.503940246216248333e+01
2.249371049200754938e-02,-8.553310372636558495e-03,1.505959992895544097e+01
-8.986474111461191516e-02,9.861949371751554949e-03,1.504021450935281479e+01
2.529361403647671994e-02,-2.169886721092896542e-02,1.500549952672341369e+01
-4.417031147858378054e-02,-2.851830363671239987e-02,1.491634755175562788e+01
9.271397708050570230e-03,1.318498645504894394e-02,1.505895263176859622e+01
1.286106912282714834e-03,2.056032879961314230e-02,1.506868394040595405e+01
3.570029859888991519e-02,-1.407975642660815041e-02,1.495614768289409469e+01
-1.526425484562339389e-02,3.160088674221189775e-02,1.504413901479910365e+01
-1.640917420406629371e-02,-4.345330822699194039e-03,1.496534416334649720e+01
-3.514231251281749874e-02,8.965592639179743514e-03,1.499841431693544891e+01
-7.366108643986728211e-02,3.934451153867275092e-02,1.500565864369572999e+01
-1.087718453668797339e-02,-6.047652655140166311e-02,1.493804292721010540e+01
-1.537258129696489339e-02,3.934025468980400370e-03,1.502235389631694673e+01
9.056176213308270162e-02,1.033700321108114734e-03,1.500680641662460069e+01
-2.819335922348657417e-02,-6.096363396984574856e-02,1.505927608229649195e+01
1.979662811124715052e-02,5.714859222234228500e-03,1.496664808793418189e+01
-2.969772132028581507e-02,1.073046493331630651e-02,1.498592027261366688e+01
-1.291470683553500010e-04,8.701982162753850447e-02,1.497474383737757009e+01
-2.535532584207974421e-02,6.576324734477098644e-02,1.503617033516470336e+01
4.032019089880809620e-02,-1.229188195509906267e-01,1.492266032063664838e+01
-4.753711543667582399e-04,3.117655592755319213e-02,1.495004379282964280e+01
8.729809920134257162e-02,-1.465936372244971281e-02,1.500764691418701346e+01
-3.988935233445250333e-02,3.798869993741171153e-02,1.501865335165770610e+01
5.355754003173509442e-02,-4.462250828976849909e-02,1.505882606684271607e+01
-6.091100067966277037e-02,-3.294148586703094742e-03,1.501491460640760423e+01
1.510496909539734735e-02,2.110887753959971025e-02,1.500643013565901640e+01
6.876761584660197324e-02,-7.136885002665689648e-02,1.504778356218944424e+01
-9.546682576390732797e-03,-4.482008555121796967e-02,1.509495794032076077e+01
5.026614134393062733e-02,3.390276441694410614e-02,1.497790038298972704e+01
-2.127180238491564387e-03,7.001455049147128386e-03,1.491733651326232213e+01
-2.153127369274137216e-03,-1.746626506105502033e-02,1.497805839202057143e+01
-5.285623982926351827e-02,4.721532550387759486e-02,1.502369365039886340e+01
1.686057676112016771e-03,4.376804925261550822e-02,1.504073811129842575e+01
-3.084228469144755652e-03,-8.619779423728796131e-03,1.500546722685444401e+01
2.418022770615413722e-02,-3.244453181066387498e-02,1.502465623463331568e+01
2.410100089707313195e-02,-3.693589536028730330e-02,1.497711587385287757e+01
3.026178085054106320e-02,3.103998564514276817e-02,1.503985879353028388e+01
-5.698751783224251244e-02,-6.741352775964892970e-03,1.505489151299146755e+01
2.625282287286932140e-03,-4.714769078374419532e-03,1.498971482491222496e+01
-3.284071791722070754e-02,-1.378461554667389892e-02,1.497257169888229456e+01
1.606822892761891478e-03,-7.150762976114651004e-02,1.491636939323880462e+01
-6.669158070940671423e-03,-1.488670936889615638e-02,1.499861749303989278e+01
8.650902954595453276e-02,-9.099536035492723426e-03,1.503181862854820494e+01
-8.181593366164137404e-02,6.136508599648728829e-02,1.498853157749288378e+01
6.223293438257790355e-02,-9.129820995977389400e-03,1.506643107947742166e+01
-1.945647419670912606e-03,6.810225781756969188e-02,1.508075541294556388e+01
-5.085650428416623944e-03,-3.353831383570642782e-02,1.499868752398045935e+01
-7.306297820827563350e-02,5.855671689035897576e-03,1.491000155920749215e+01
2.926692741000874731e-02,1.886010777393228727e-02,1.495660491269664938e+01
1.564243156568765475e-02,-2.698666377775986100e-02,1.499611487045322811e+01
1.113711513534501076e-02,-2.229788539598349592e-02,1.491091377999673462e+01
8.228013706943203579e-04,3.679411764819542907e-02,1.499356460075168762e+01
2.922606622530140100e-02,-8.656148413454757551e-02,1.489107518258231266e+01
4.626283125184245393e-02,5.255830654868737933e-02,1.503629457056912777e+01
-4.905463372286011578e-03,-8.395358066522004559e-02,1.499563966526345204e+01
1.792739659836868268e-02,-8.517956033952016684e-03,1.499564450821802808e+01
3.999766975594945539e-02,-6.351495200581207257e-02,1.497149264582798622e+01
-4.382143769796453814e-02,-2.974793381367418083e-02,1.489309610302635889e+01
5.867535186045323703e-02,8.519210013623408628e-02,1.496603284662275790e+01
-5.262000341153606764e-02,-6.611439811366916219e-02,1.502620283633239495e+01
-2.843842629708940792e-02,7.861874651696286811e-03,1.354081516479726943e+01
9.192619932021396656e-03,1.990881772330592436e-02,1.223220060918140639e+01
7.139983038404967841e-02,-1.193035042327938132e-02,1.101764370718092678e+01
6.627233697769770518e-03,2.590339429113040076e-02,9.910684541764270605e+00
-1.273075396367227829e-02,1.702693397967723274e-02,8.856012900738159388e+00
2.876407415795618344e-02,2.772757939875827166e-02,8.042505679408451513e+00
-3.352085757581748510e-02,5.917327135509287172e-04,7.192184353909872208e+00
1.060884565760395956e-02,5.297623425462397173e-02,6.445820305481452017e+00
2.957415412633510737e-02,6.464696813979589618e-02,5.860903639918338293e+00
7.196119527428863905e-02,5.717324944290932964e-03,5.130036005451909631e+00
4.148940631694490733e-02,3.202476306875390311e-02,4.738712589473481174e+00
-1.369526841651302548e-02,-4.629334429996512061e-03,4.235159363686572753e+00
-3.196708573133995313e-02,5.887667402105669495e-02,3.782988807329416669e+00
1.826703647896985375e-02,4.075908335741083854e-03,3.464423337316536067e+00
5.144713154698851709e-02,-7.647720830743946936e-03,3.067489142579375105e+00
5.998205040780300173e-02,3.921129843829708993e-03,2.771639652281995048e+00
1.299988221689879486e-02,-1.451131480465295623e-02,2.530564600700216715e+00
2.511208768658560256e-02,5.039752154165844794e-02,2.263035843781401102e+00
3.693258185934496229e-02,8.619631120010294231e-03,2.052248313511253031e+00
-3.140568148036588375e-02,-4.056281563084502412e-02,1.870422936396775926e+00
-1.210851000567864273e-02,-1.566592640951334006e-02,1.633840088058191142e+00
5.351766646672766886e-02,-3.409871217165064833e-02,1.531594494404400653e+00
1.784926382340942461e-02,2.915745436507376220e-02,1.390348746055162898e+00
-7.249520238010842121e-04,-1.030138640874728000e-02,1.170218410848540946e+00
8.310787079158020452e-03,-3.511595672515029076e-02,1.090494210378337714e+00
-1.492026009645343321e-02,-3.916143157003405817e-02,1.026388005041169338e+00
-3.191190434290658295e-02,-9.318801954653360697e-02,8.767659142678566608e-01
-1.090725085815540639e-02,-2.487205836948087195e-02,7.581464891275428997e-01
7.590438261515838198e-03,3.225894110832463330e-02,6.575208727796857389e-01
1.570670885507611386e-02,9.136357021110497190e-02,6.478371035859278315e-01
-6.219173927509667743e-02,-6.424771549660912573e-02,5.722297570224129659e-01
2.723249387987221326e-02,-8.319727932412746690e-03,5.021843834248219673e-01
4.641633214731163276e-02,3.236555187691721180e-02,4.457368380917603456e-01
5.508880954960918702e-02,9.406375897223054339e-03,4.061020492045307462e-01
-1.740371402937886461e-02,-3.922482616424687041e-03,3.596125274328018651e-01
-2.487055145198267120e-02,-3.870229929866788460e-02,3.868604234865973823e-01
1.027060500819192701e-01,2.183638671048715452e-02,2.174351325829115000e-01
-1.999911986807813031e-03,-1.432654119017462424e-02,2.560397978155986576e-01
5.601271624953374495e-02,2.684557148547791344e-02,1.934656719319187423e-01
-4.400344777663355716e-02,-3.013934996978382547e-02,1.665405312565459151e-01
1.609517702822435906e-02,8.442865007120807508e-02,2.289924202569401379e-01
-1.035750515780341045e-02,-1.766451825934843220e-02,1.518121512499030490e-01
1.433052740140194209e-02,-9.384790963692009325e-02,2.671281538514747589e-01
3.047523294024611848e-02,-3.701757867274118805e-03,5.976553006333642365e-02
4.540487890852176744e-02,-6.110927329631809374e-02,1.018044793950934751e-01
1.328672930529534724e-01,1.883242268202641768e-03,1.456403529274492015e-01
-1.915486054566942209e-02,9.646626343595881073e-03,7.875916125151673219e-02
1.518081894791667311e-03,-1.340685206685904123e-02,7.046479847379150119e-02
-8.931347558845067515e-04,1.580778964378825799e-02,9.212727064082339157e-02
-2.552552160307921397e-02,-4.315767671670638246e-03,6.613696205249111615e-02
-1.596428693591320225e-02,-1.500886005776224698e-02,-1.157229491106550462e-02
-3.829590752543279852e-02,1.691320590063797582e-03,9.986663035662285415e-03
5.614028003319521815e-02,-1.466364099034653430e-02,7.608813137067575727e-02
2.081443986872856880e-02,-7.748708816308157339e-03,7.577204256402385318e-02
1.029315616738302359e-02,8.842223884993354044e-02,7.901112825642986337e-02
-5.131970043945413562e-02,5.958469325934417568e-03,3.567962892000612479e-02
1.068035590851292710e-02,3.643598358469541526e-02,1.143865478220649524e-02
-4.703633999751692663e-02,3.803034119568259735e-02,-3.770107871868572103e-02
-1.974339841443037945e-03,-5.256405771123726089e-02,3.101866295613609631e-02
-1.706637700556784196e-02,1.398772245046089359e-02,6.648676482029988906e-03
-7.001998278157471611e-02,3.272126779385979567e-02,1.718563096389189374e-02
-2.160588174413691220e-02,-1.018161700916732186e-02,6.001448173516397977e-02
3.162716015948748710e-02,6.291696491512273337e-02,-3.248505796820743557e-02
2.309588828658334231e-02,3.350335657158477060e-02,2.987906608524861993e-02
-1.280716205533343702e-03,2.375588869696210539e-03,-9.292287392565507648e-03
-1.968403307195920951e-02,3.907718325933314321e-03,8.239595095908799904e-02
3.714888328100386661e-03,6.795685823326359787e-02,4.055192871692927387e-02
-2.426532188686885902e-02,3.092605104025915666e-02,2.506297622334303574e-02
5.256837666544480342e-02,6.252030734286259835e-03,-6.568758965790810755e-02
-2.062335846791486446e-02,1.589113634548457513e-02,2.594504837464250979e-02
-2.033076317009746992e-03,2.015411949673174066e-02,1.166882754132562983e-02
2.720824212536560385e-02,-4.594112743062838539e-02,2.628600928979106868e-02
1.088939779701408352e-02,9.855137056329838288e-03,8.713081921344865977e-03
-3.289503624970524509e-02,4.332082084401499972e-02,-1.850825631879999059e-02
9.456867972369071423e-03,-8.914869624978581653e-02,4.588459796806843710e-02
-2.993736432774155715e-02,3.393266125394243937e-02,4.107666844180660887e-02
-1.994720623819354333e-02,-3.400410295688274104e-02,1.078809123916632945e-01
-9.634161788973822499e-03,-3.608349810404044844e-02,-8.030435650007232418e-02
-1.561323370841390459e-03,4.480218825117204817e-03,3.080920146765956519e-02
-1.081192879570898324e-01,-3.787862961147816089e-04,-4.183395163792696936e-02
4.149380855924324901e-02,3.155222703449945404e-02,-3.396744307991341610e-02
2.494724963007443827e-02,-2.453255009230440389e-02,1.257524947818521380e-02
5.128598123876553644e-02,2.256746789528327884e-02,-8.050609228964316494e-03
-3.192221361215962644e-02,5.265391972811730298e-02,-4.913583494129258183e-02
-5.079896374613220023e-02,5.792476375399359390e-02,-4.404241461229696508e-02
5.999395328661390886e-02,-2.497478140570201163e-02,2.825900472440844372e-03
8.207346396076845019e-02,-5.023045511013543574e-02,-6.434386030216213137e-02
1.210021458092884993e-02,-9.786714818965675401e-04,-4.598217566475163581e-02
-3.360096371635042101e-03,2.614341126510607389e-04,-6.394910500580969215e-03
-2.524168757369408406e-02,-3.846558481086517073e-02,3.790342344598201380e-02
-2.005143708594241125e-02,8.333027981516714922e-02,-6.667032120576159293e-02
-3.105835164010885968e-02,-6.221737291285292515e-02,-7.091636158294284398e-02
-1.573777400560597006e-02,-2.828661534523930002e-02,2.745784400680632148e-02
-6.814925849037573036e-02,2.057960643910246475e-03,2.701737274654237436e-02
9.563116434709272029e-03,2.129719727757371783e-02,2.871242709040285057e-02
-8.314438347411137742e-02,5.736108014210322681e-02,6.557855278871488336e-02
-1.854837997650012407e-02,-5.599301651408441355e-02,3.841758668340428118e-02
6.093421906675439148e-02,-9.341520051528486024e-02,4.220866827846518100e-03
-4.000851832022683970e-03,6.502494044895754111e-02,1.097470850346832366e-01
-4.746623417944175610e-02,-4.336708843831337673e-02,1.041480549966354932e-02
3.693892468791711708e-02,-5.889062906060656653e-03,2.670713604384629403e-02
-2.113194695667815204e-02,3.239029745911839453e-02,5.954058802346914869e-02
2.681231812409014259e-02,-7.859057112998310557e-02,7.567242016354784780e-03
3.100045167338775706e-02,-6.640341785567803641e-03,1.209412513096187400e-02
2.375740560957317893e-02,7.615570298388834800e-03,1.233052160065595086e-02
2.876426570868455008e-04,3.286102809436233091e-02,-3.425786792236393263e-02
7.528349285446762906e-02,-3.692797127913186733e-02,-7.118507373454347788e-03
-4.279316273815769039e-02,1.489129969441231605e-02,2.018119832239786277e-02
-4.493286540510630506e-02,7.057267880022019546e-02,-7.847593544532363574e-03
-6.150897387560975288e-02,-5.073112593115748636e-02,-1.464188941868746138e-02
5.420300804940858183e-03,-1.931512428079303588e-03,2.520728551667385589e-02
3.963989110553576417e-02,-2.272692635420005963e-02,4.402819952970727507e-02
-6.957811312722541816e-03,4.086552373249488501e-02,-1.556394349078887504e-02
-2.018409187119592219e-02,1.989626646976290231e-03,-1.210408045326333108e-02
1.232889051782246927e-02,-3.489807815532889462e-02,5.139235404972078425e-02
2.973646774090106179e-03,5.238331395111769928e-02,-1.123889391340077322e-02
6.866981383956032199e-03,1.762003429339126931e-02,-6.108071628358280325e-02
-2.261213682086678917e-02,5.838467102146876857e-03,5.633980918971807916e-02
-6.807521223971249591e-02,9.472920562574690950e-03,-5.194322138143010401e-03
1.668625766979849046e-02,-2.037905767854970504e-02,1.307695793650659986e-02
-1.870251081687418493e-02,3.707967947320124635e-02,-4.108534270794392609e-03
-4.482093378336995948e-02,2.492133698877395040e-02,1.823660869514282662e-02
9.540942545108031803e-02,-1.223498096488571246e-02,2.840022912589626816e-02
-2.417604132712699791e-02,-1.717861303616041030e-02,3.075709628475944285e-02
2.052926302432575567e-02,-1.185033628238789209e-02,1.065087334777927407e-02
2.671297972935933115e-02,2.915839647764573508e-02,8.207478429275505416e-02
-9.021362546811614869e-02,-3.059240417377717680e-02,-1.355722278546367789e-03
-2.002275832195473532e-02,3.156138547735851205e-03,5.624522271145205449e-02
2.249693997908831095e-02,1.012939715921323813e-02,-7.689969075163180859e-03
2.336097279511244879e-02,-6.007472360963914820e-02,-4.360709620399189079e-02
3.680043541665569545e-02,6.928727736184990549e-02,4.338162481532481518e-02
-2.090426782471577552e-02,-1.020061695827121674e-02,3.558396828129462008e-02
-4.680105635254734608e-02,-3.313261227953562260e-02,-1.536362295732411273e-02
1.576595925652776731e-02,-1.313636071184254642e-02,-8.907385474799316485e-03
9.983116718985721172e-02,5.555663947732780716e-02,-3.827621974141355576e-02
-7.530543560141247927e-02,5.331443260440126009e-02,1.368442508295865563e-02
-4.411545289053996066e-02,-1.238107668129289967e-03,1.155078796670701638e-02
1.368737186248956093e-02,-6.303741420387531935e-03,2.869089350592137280e-02
6.156213726007371545e-02,2.161889488005649951e-02,-4.053603765330662800e-02
-6.473912066824290268e-02,6.732930226377294158e-02,-3.298274969771369802e-02
-5.801067758441769140e-02,1.061081517045486290e-02,-4.536983632849901638e-02
-6.739986047760911092e-02,-1.991311004323018021e-03,9.423661070685575292e-02
3.191356501632435470e-03,-7.194599188278159863e-02,-8.169674072475348325e-02
2.516974659945772977e-02,4.524168125912694099e-02,-2.436897127510663161e-02
-2.267165136863596216e-03,1.027288976152000433e-01,-5.380435211052640027e-02
-4.119982219629070297e-02,-2.572223256503845118e-02,2.088878393391753810e-03
-4.872101835966567880e-03,-1.047432995643743717e-02,2.195915115056521275e-02
3.804552042791061600e-02,-2.103181493623497433e-02,-1.824251510792251202e-02
6.109037670475091913e-02,-8.913009702652370525e-02,-1.111093848462526290e-01
8.186818956675716297e-03,2.070818688085476061e-02,-3.964141256990968976e-02
-3.549092632589484486e-02,-2.516715914106143828e-02,-7.471952730245290386e-02
3.405755880530478980e-02,-8.124807611377345834e-03,1.964979635865950203e-02
5.571411778599465181e-02,3.836463720885893713e-02,2.878705360345456751e-02
6.197902709511006296e-03,-1.834497573078178179e-02,7.810081833034480774e-03
2.070841458665191245e-02,8.582927171715231188e-03,-7.170148489283537097e-02
-8.541882442014932242e-02,-3.752026809099327787e-02,3.952023353226835622e-03
3.418685991370922633e-02,-4.002346161258823337e-02,-4.202510229186429830e-02
1.633544689442364105e-03,-5.429828967733396627e-02,-5.038247324482027917e-02
9.472071568907300051e-03,-2.749828819946615807e-02,6.394091502831805718e-02
-8.771832881544457117e-02,-5.589036535056128574e-02,-7.642369845840996101e-02
-2.145964619767467066e-02,-5.848479049223970216e-02,2.968648004102570140e-02
2.003399534746693259e-02,-2.902381145258659152e-03,-2.032810192196199059e-02
5.715215243083127811e-02,-5.171509263260857386e-02,1.855978879140237486e-02
2.113286580017955871e-02,-1.338972742355631386e-02,-1.843686030990375480e-02
2.595717001073058125e-02,-3.940024345190145522e-02,4.431530374068210626e-02
-5.626820877014845901e-02,1.886923696739688586e-02,-2.088308093709486529e-02
5.350220830960603774e-02,-6.495150156145373423e-03,3.403961536901990714e-02
-2.178777826715526042e-02,1.276288788784921135e-02,4.055870329153834358e-02
-2.058061655602266143e-02,-2.580483178753064169e-02,-1.823832679844789376e-02
-6.445862822787059958e-03,-3.177350298714299442e-02,1.657070589985541395e-02
-8.383553769806011136e-02,-3.299919071700870010e-02,-1.059152258582652349e-02
3.529958488126017611e-03,-4.447778546519791376e-02,-3.291324920557466699e-02
-3.173811753166796978e-02,3.081305223811007382e-02,-3.118727073038258038e-02
-4.489313054814312448e-02,-3.922149868538895440e-02,-3.857452153044449873e-03
-5.276603600313842929e-02,1.313162571195631602e-02,-6.820913903080778884e-02
2.551268833216984323e-03,7.101949940434050534e-02,-1.601863550607230194e-02
-5.674034385896816607e-02,-6.648507321211570564e-02,1.949505763977732106e-02
7.526608136226441148e-02,-3.829832735831756318e-02,-2.185292775111615654e-02
-5.196336553070794034e-02,-6.161984262583470456e-02,5.885339383255932914e-03
-5.810479112553058878e-02,-3.528111568552724092e-02,2.203773977726316766e-02
-3.176922546546846055e-02,-6.551381798251411370e-02,6.964487293520639326e-03
-4.332889122329634801e-02,-1.653156537321374617e-02,2.791078385805217249e-02
-9.574392190487593726e-03,1.662133563351369039e-02,-8.741069509678664473e-02
-4.062739348667671058e-02,-1.748018916916918228e-02,-2.419059350801280872e-02
-2.625933973756433559e-02,-4.967478119486404275e-02,1.380539842944394566e-02
3.353545764916626704e-02,3.659480852349755731e-02,-3.558669000592205086e-03
-1.272109729061703630e-02,-3.854125146122840736e-03,2.556024711273374890e-03
-3.499888763554993149e-02,-7.434348015809831220e-03,4.235971623804449249e-02
3.166004292316337149e-02,-3.287033728833487021e-03,-8.883480801532075977e-03
7.495694546351634735e-02,4.616682378286694928e-03,-1.383203354267937071e-02
-6.971538606920475722e-02,-4.715499555553932451e-03,-1.142754693160167668e-03
9.657716593772356153e-03,-2.798220670803179891e-02,7.457251340452446253e-02
-4.112648516531675763e-02,1.284447110553276448e-02,3.344031381389050983e-02
1.892118074632279101e-02,2.219899213608102218e-02,-1.125406976216586970e-03
2.467552901537707968e-02,1.693996418917688429e-02,-8.945522142219289319e-03
-2.932275542363068505e-02,4.750537192923395130e-02,2.129438732499492823e-02
1.430967445702323836e-02,2.164053098729260428e-03,-2.740555866402196589e-02
2.574001835166931946e-03,-4.119303471681830947e-02,3.427318596176946730e-02
1.631491890152904356e-02,-3.485713499006545119e-02,-1.016466177412401160e-02
2.435165144657919570e-02,-9.648469377128559080e-03,2.891663224121372722e-02
1.202086512640923935e-02,-6.501066461721951260e-03,1.630796499899345511e-02
8.939158170470014320e-02,3.967275395499639257e-03,5.161187754017937390e-02
1.288714985696292822e-02,-1.161241929324805487e-02,-1.170699329818712248e-01
5.073179484402815659e-02,-4.172802625163759410e-02,8.281523670757804170e-03
-2.382729577018589256e-02,-5.736926056755725645e-02,-6.402120448864989655e-02
-3.842781101339115546e-02,-4.602607284086101397e-02,-1.198339524421135512e-02
2.451375599367639629e-02,3.587552684711630552e-02,-2.308424886585370289e-02
-2.600725432367884896e-03,-4.643039557827971509e-02,-1.307953712556041981e-01
-2.185395030276678866e-03,-1.176777764342045590e-02,-3.163027226609561177e-02
-5.150769406182255372e-02,2.855887178328219214e-02,2.945430712476080487e-02
3.164292269982980216e-02,1.914133568129924607e-04,-2.923721588109343475e-02
2.274607497755730401e-02,1.704608564308008473e-02,-9.830100905312735837e-03
4.551437491966622145e-02,-4.510191162802310028e-02,-3.475991816094874814e-02
-1.061388834935016352e-02,-6.277316176995385855e-02,-1.603020582126004137e-02
-4.090883003769272414e-02,4.476624997943168260e-02,-1.804682127058426094e-02
-5.806926821563143486e-04,-9.446468886195115737e-04,4.090100622348842585e-02
-2.075381891726526401e-02,4.528885861469413021e-02,3.379893309893083203e-02
3.742194275853602450e-03,2.225713005382232157e-02,-2.274865909486560589e-02
-5.071053947467861478e-02,4.010102406722658788e-03,-1.929185778845351681e-02
4.469661868406368810e-02,-5.037147466563642734e-02,3.400264574589895866e-02
-5.234490610684033179e-02,5.153058551952653665e-02,-1.407845567722952607e-02
-2.706102544352122566e-02,-3.008344903828671577e-02,4.367546270837296268e-02
1.088505500168114870e-01,-2.787612947570892313e-02,4.223362662105219212e-02
-1.612968035605833253e-02,1.049254691290475196e-02,2.890761932245885027e-02
-7.990301668371847799e-02,2.033359381198163521e-02,9.861607205959362077e-03
-4.923159342620093970e-02,8.016610638318071025e-02,2.790563691680645730e-03
1.654394200328135334e-02,-1.559430586414276843e-01,2.107149553184705162e-02
-3.751519008848221148e-02,4.104403094809016411e-02,2.447500232769961315e-02
3.870289817127064991e-02,-1.043484072234783649e-01,-4.465879834457613107e-02
8.202335593278285708e-02,-1.052854638990134879e-02,4.353008174817501628e-04
-2.609131131034306966e-02,2.204338801581384386e-02,1.180201300651141302e-02
-3.394546050085320288e-02,-3.522003589198310913e-02,-4.202490476690745602e-03
1.119832391850237793e-02,4.794934185788831543e-02,2.448071300206716705e-02
-1.662547047946315651e-02,-1.689790300078553714e-02,-4.896465185263694508e-02
3.463774215658667333e-02,6.384606709391723450e-03,8.265496313460714284e-02
-2.147736648948969304e-02,-8.855056276053759057e-02,5.770135152610966073e-02
1.624200764941365754e-02,-1.402850193112934948e-02,-1.338341709599604086e-02
-5.873082843944979481e-02,-2.447445209946103040e-02,3.894078517221143121e-02
9.192910999612652345e-02,-4.319899919812179162e-02,-3.858220183899582767e-02
7.036425165147155991e-02,3.029080187310347061e-02,4.703135340375932949e-02
2.270326794600548148e-02,4.938080461277144506e-02,1.906394445254121564e-02
2.844544645440652813e-03,6.899199134920017129e-02,7.824949865945857175e-02
-7.180853722999208655e-02,-3.773326973063224898e-02,3.595253699280199361e-02
-6.993836709666736637e-03,-8.140940966735231432e-02,9.589495389117224516e-03
-2.735470144184369914e-02,-1.505507256696540265e-02,-6.933091973603902960e-03
3.701146724701622620e-02,2.156640423723386879e-02,-6.568655828158258270e-02
-5.349603802314843032e-02,3.369206288271748423e-02,-2.278030259386236087e-02
2.293319137403078758e-02,5.000895225319922088e-02,-2.206105791213131689e-02
6.723532803862856955e-02,-1.020867233608700742e-02,-1.521524353307045392e-02
-3.305967570358443741e-02,-7.463166894957408773e-03,-5.240717513538680102e-03
-2.981032704917797524e-02,2.058677876786300584e-02,-4.336990215898842843e-02
-2.521573934895749575e-02,-2.773636939484849795e-02,-3.539515631136820346e-03
-7.944366246551473262e-03,2.539605652418845325e-02,6.854447043978659747e-03
-2.677000877957947181e-02,6.700650348283541946e-02,4.041094196473382985e-03
-4.771850380896301008e-02,4.031448231353640388e-02,-4.795383231267617841e-02
-1.188137797970015633e-02,-5.259475404343001009e-02,3.068149309617768800e-02
-2.104689613119689259e-02,1.797482505488135276e-02,-9.441251731516036444e-03
4.231927483532865741e-02,4.922665769273304459e-02,-7.759712258171953814e-02
2.785467120629052731e-02,2.993693549895717204e-02,-6.934798888737278913e-03
2.298721438669593456e-02,-1.000426598270407266e-02,3.490880307398230159e-02
2.544605648369692094e-02,-5.290303399654272890e-03,1.031817142989348290e-01
6.112228851827478798e-02,-6.834151431318968850e-02,2.159132583917957454e-02
-4.237272945393839862e-02,-4.200778466736689726e-03,-3.213548630748717938e-02
5.445406493645484070e-02,2.851997990995322821e-02,-1.516550308006097379e-02
1.922513971776445771e-02,-5.018936588075420535e-02,4.281751741999618999e-02
8.429419633669849032e-02,5.204968261503564730e-02,-2.612105177212238616e-02
5.211440175891953602e-02,2.400444352312186211e-02,6.890558282006663260e-02
3.277393988368924871e-02,-1.221426078579089351e-02,5.041419424737168115e-02
9.910896544692064658e-02,-3.768452466355255454e-03,-7.110092829843418089e-03
1.775911263491819145e-02,5.953712303326926187e-04,1.152733808066992542e-02
-1.980138608140070283e-02,5.240799198827426203e-02,-1.410879547739539164e-01
1.857001816808349914e-02,-4.779429304658205750e-03,1.766441118919772485e-02
2.126706352517026763e-03,2.263060705283694712e-02,2.362236177391795894e-02
9.706875498188841100e-03,1.892033729339285056e-02,5.160503820611696962e-02
-2.906100877358329046e-02,3.761987480359930969e-02,4.424315046302790960e-02
-1.017781973473001755e-02,4.466607635390691666e-02,5.248094675738362858e-02
-3.245299948717057098e-02,2.663583050121507909e-02,8.262784093130300794e-03
1.364200049516322601e-02,5.030187656697107483e-03,-2.835718606291819793e-02
-4.903250595587566735e-03,-1.183300501377562708e-02,-9.265696791815769551e-02
5.661949264635039725e-02,-5.609191082955485019e-02,2.605599170728749997e-02
-1.029879211500742409e-01,3.322233044195159468e-02,-8.546643184050550790e-02
5.069376965465062393e-05,-1.526294540297608825e-02,-4.245822349107605809e-02
4.243546449257748487e-02,6.371114843782479942e-02,2.842302005960719441e-02
-3.165932566482936722e-02,3.591781430360540660e-03,1.070437762760078487e-01
5.652732216158441562e-03,4.956228640822826770e-02,-1.924114899652648245e-02
2.204610654711743403e-02,2.138650870353881600e-02,1.395555443065905551e-02
-2.635051981195181761e-02,7.230451715584688879e-04,5.536292733937318855e-02
-3.990100280328226501e-02,-5.234158491542133945e-02,-3.383190376138212746e-02
-1.748254585748809653e-02,-9.599432421226511414e-02,9.988024214741052058e-04
5.317765870363022444e-03,6.831623331723278569e-02,2.722439023857322130e-02
-1.292333557145856904e-02,-4.792389273151592688e-02,3.675818790464493091e-04
4.047610241251372448e-02,-1.398232938536351881e-02,-6.344308361194987700e-02
1.768656792010637330e-02,-3.733208231084695662e-03,-3.649542648240965137e-02
-2.592508277538384948e-02,6.032012244308645587e-04,2.199236043861368950e-02
3.084810943179409903e-02,3.170494401113378713e-02,-4.823540319955495898e-02
1.348248975942885515e-02,9.103074537539477401e-03,2.549571534172246495e-02
-4.169857398646143604e-02,2.137051050049074141e-02,2.861609087128885037e-02
8.902163972408538850e-02,2.983007685717433202e-02,-4.609477379864386493e-02
4.497853888061249111e-02,-8.147890830146406471e-02,-9.764538391415529886e-03
-4.421565753481199873e-02,1.628742295233389162e-02,3.306073188567429377e-02
