accel_x (m/s^2),accel_y (m/s^2),accel_z (m/s^2)
3.671313632127509025e-03,3.532543773441318338e-03,-9.789178883258140118e+00
6.507893239533877813e-03,4.610994886586984587e-03,-9.795036802003275866e+00
2.260768980257715517e-03,-2.735945876251642036e-03,-9.797656100856174888e+00
-4.295406459955089518e-03,1.957350272964020806e-03,-9.796968980986950015e+00
3.389791725036657086e-03,-1.299337068099543384e-03,-9.794899041552772800e+00
-1.283410325184935639e-03,2.976229128263361244e-03,-9.787669770655874402e+00
7.666305417410444745e-03,-2.737707705708355282e-03,-9.802390405725418532e+00
-1.535604857550172024e-03,3.021402943226648836e-05,-9.794686749478204391e+00
-9.334712894962675367e-03,9.538608384578938643e-03,-9.794822795378701485e+00
-3.440837511651190141e-03,7.662374843631952932e-03,-9.800826119353777344e+00
3.894686034656721571e-03,5.825461098820868032e-04,-9.791914711456723097e+00
-8.465636524485691764e-04,2.095474699388558733e-03,-9.796808176901750542e+00
-5.465386963008826357e-03,-6.614423754709971952e-03,-9.796258636798896191e+00
-1.406686758881468173e-03,7.168558482394973147e-03,-9.799374810978612516e+00
-1.099912153037422126e-03,-7.524092767404447733e-03,-9.790878377985869463e+00
-2.456436796155770860e-03,1.979490701027019836e-03,-9.795938447693274043e+00
-7.182316485839322119e-03,3.738095417281513469e-03,-9.795154703031110799e+00
-1.565191113564383656e-03,6.394816928424290788e-03,-9.789188385233547507e+00
3.243929718494491764e-03,-5.225305209366364056e-03,-9.804441761163717572e+00
5.470141910566726599e-03,3.696397125268928181e-03,-9.792582317004459469e+00
-1.028495440202409003e-02,-2.317442088132662479e-04,-9.787031045653575845e+00
-2.254580431884175510e-03,-7.647541214198298742e-03,-9.799726693033141700e+00
5.370251256369256918e-03,-4.400608203406902730e-03,-9.800557517670259955e+00
4.214312799748737401e-04,-1.550473127571310415e-03,-9.791181014406195260e+00
-4.093206658441918451e-03,-6.013135314303172808e-05,-9.784103359949620327e+00
-8.877380993204227666e-04,-3.243729399533835153e-03,-9.786066807692334280e+00
-3.724330648587473314e-03,-6.094826782926858998e-03,-9.805451642198313777e+00
3.452657664751654799e-03,4.617497291536824333e-04,-9.798342373430424246e+00
4.948839043259576492e-03,3.062323303837049746e-03,-9.795320120953448395e+00
6.258250483407956600e-04,4.228270460496177767e-03,-9.802330100716472927e+00
-5.055006488383235672e-03,7.357793318489454920e-03,-9.803917741573252798e+00
-9.546111076390664113e-03,3.403120709579204786e-03,-9.798455130282727410e+00
1.014663469480450242e-03,9.849777734346615299e-04,-9.790292222674448652e+00
-6.785251250522591560e-04,-8.664274273393067537e-05,-9.795957301182760091e+00
-3.068041230732379467e-03,-1.532824174418147799e-03,-9.785429939687031009e+00
-2.773227777550990678e-03,5.683701939147534250e-03,-9.813189806732875553e+00
-1.367624622451154431e-03,-2.256328971038932575e-04,-9.789788209019098630e+00
-6.264521465746250052e-03,-3.345506649899553705e-03,-9.798106129968767064e+00
4.596319716282971056e-03,-1.333514371291519502e-03,-9.794945783466642908e+00
1.192877606469858664e-03,5.790582500906442040e-03,-9.792675634772272986e+00
3.203249164983086681e-03,5.640045040988947260e-03,-9.809053829420445680e+00
4.861317218522224169e-04,-2.948491413658776202e-03,-9.789690233060962754e+00
8.407209872561251240e-03,1.984416562803763360e-03,-9.787137225801842533e+00
-1.950533604610152046e-03,5.260699264435769913e-03,-9.797674440175558885e+00
4.426753739871831621e-03,-8.556062700215695234e-04,-9.800600444472117090e+00
-4.737908144576333637e-04,-5.383618173341329742e-03,-9.795413376308806264e+00
1.454627499083971094e-04,1.026948434998734483e-03,-9.780916930773072338e+00
-5.783743472487834492e-03,1.194994423333671290e-03,-9.810842246414791745e+00
-5.998956578370132769e-03,-7.761557144586744578e-04,-9.790857334245620436e+00
-6.962099228663602181e-03,-2.543318059188533122e-03,-9.793812880378304442e+00
-3.479210914972147468e-03,-5.310234224172103020e-04,-9.787142892548734707e+00
-7.863620705681595826e-04,-6.262112837640752133e-03,-9.791790371877056032e+00
2.108669675704321136e-03,-1.685130426435210022e-03,-9.782725414701490152e+00
2.098351457251801128e-03,-8.270871189627715392e-03,-9.800253331300250892e+00
1.649240749784768728e-03,-7.445223582633269700e-03,-9.806069986487282009e+00
3.894354088268143707e-03,-4.474029916586111724e-03,-9.808927979876283842e+00
9.461821812550615801e-03,2.391535796814197711e-03,-9.795881982662731247e+00
-1.912990735812442706e-03,2.083626111218364260e-03,-9.797014289918312357e+00
1.391612517497409912e-03,7.852592576297648744e-03,-9.810041652980324045e+00
-1.016748452625363666e-03,6.306618403360739721e-03,-9.790739159757379184e+00
5.140752063260542806e-03,7.785082426377340145e-03,-9.803516985129009598e+00
3.396481440478061925e-04,-9.375736180560088548e-03,-9.814864883396198891e+00
2.037375867190009161e-03,7.667225837977173497e-03,-9.795472968172770578e+00
8.792340579451628224e-03,-1.001077607873985479e-03,-9.783972181727074613e+00
2.812618215050928256e-03,9.946057537418544897e-04,-9.786435426032047857e+00
8.977796358938423815e-04,2.745851306550815656e-03,-9.786740173754816752e+00
6.096654218877006759e-04,-3.111716909015125373e-03,-9.803635234444584512e+00
-1.156075893904348877e-03,5.906636218237755823e-03,-9.789957547180785369e+00
-3.344772686169925763e-03,8.326853866134483959e-04,-9.815945086460784452e+00
4.469260264648139414e-03,3.070007250928649851e-03,-9.793684132208372972e+00
2.420157214147876552e-03,1.103707273384044348e-03,-9.793728490086142102e+00
-9.125839814191259941e-04,-4.438649944855446727e-03,-9.784704996608155625e+00
3.609630689755556014e-03,4.773992852579702489e-03,-9.796348081548273967e+00
7.255580548334175130e-03,5.227699612982205724e-04,-9.795999755349829030e+00
-7.063439454547470325e-03,-1.383519246092958666e-03,-9.791541548517553650e+00
1.097392611500530406e-02,-2.429003910159634617e-03,-9.800071251133045891e+00
2.467213495727475347e-03,-5.814911052856611097e-04,-9.798132332919696097e+00
5.854709382840435176e-03,6.254151704949762955e-03,-9.794046935593478054e+00
3.846972566475844249e-03,-3.110104887221770264e-03,-9.787331570161358130e+00
-2.823998930032650158e-03,2.296034602846623932e-03,-9.798729583831239154e+00
1.757962116715561978e-03,-3.032755643452596586e-03,-9.790578109575477583e+00
4.159601783694452833e-03,8.489700042996397439e-04,-9.791941552092000123e+00
-2.111737949248121762e-03,2.893785931221666032e-03,-9.799123574953760851e+00
-4.337010473383611474e-03,-1.172442984496295136e-03,-9.796022093548145904e+00
-5.496163319984738449e-03,9.015935442703542756e-04,-9.793649808900649845e+00
5.769279628380864257e-03,4.005314740295440670e-03,-9.799674521144638106e+00
-2.997400948783420643e-03,8.454559792024796822e-03,-9.795103635539932796e+00
-4.688497216435049048e-04,-7.365298584211086783e-03,-9.803536975991928415e+00
-4.102154500397153618e-04,-3.842751285039304812e-03,-9.790821408168476125e+00
1.174586898935887783e-03,1.484548895746367573e-04,-9.805842403248361094e+00
-2.550656867783148395e-03,-1.175405822189708183e-02,-9.783781413333908716e+00
-7.465827004927546619e-03,3.357303142858272371e-03,-9.790723419857760845e+00
2.686808852837050277e-03,-4.722992194262828881e-04,-9.792945320011115840e+00
-9.682971426481621138e-03,2.357826582912848131e-03,-9.800887051293690533e+00
1.001322239015998419e-03,-7.523743361056300580e-03,-9.809063531987520790e+00
-2.117724042435829238e-03,-6.160535229638002160e-03,-9.794596852504763973e+00
8.461124815465114260e-03,1.128547904911200587e-03,-9.797827255109567091e+00
-4.556218989592025412e-03,-6.073777911503319693e-03,-9.801281280878599844e+00
8.144257545514820831e-04,6.734905899411988695e-03,-9.796846958907142522e+00
-1.581798219931534501e-03,-1.500999198434327820e-03,-9.788625281727510341e+00
1.931475280287075222e-03,-5.981642080676342031e-03,-9.801441060540955874e+00
-1.574257190276784259e-03,-3.366408134074977670e-03,-9.791187200310281114e+00
1.009612198244542536e-03,-1.767671583632559988e-03,-9.791312000723404907e+00
6.593761569580705584e-03,-5.084134021892997533e-03,-9.791963309219802625e+00
-4.285167065664041361e-03,1.145751452811217316e-03,-9.800006873860887424e+00
-1.028980515629238437e-02,6.555326002948177501e-03,-9.783580812266269078e+00
-4.823130679904029687e-04,-6.417972690927369658e-04,-9.792191078312937336e+00
-5.306082138589641875e-04,-6.931370506496302430e-03,-9.797342869079107786e+00
-1.058323746198102018e-04,6.559082360896565170e-03,-9.793872306582196430e+00
3.865415902312244970e-03,-1.343874913913997758e-03,-9.782620221565341723e+00
-2.601290822942384836e-04,-4.056333965219077048e-03,-9.800098689528326190e+00
2.299241471206159640e-03,-8.648100641644805575e-03,-9.800256857138792910e+00
-1.059120639680350556e-03,3.034105259860177695e-03,-9.785909249394951104e+00
6.024745067810235912e-04,-3.218006822690173616e-03,-9.815579967995464727e+00
-1.585539154361818208e-03,-4.932297908028387273e-03,-9.809661462342509353e+00
7.489785779866333509e-03,-7.093788397593983955e-03,-9.801906271340190102e+00
-6.331958301502783187e-03,5.567149020503194597e-04,-9.802698155609785857e+00
1.413109044396251932e-03,-3.420330054437537015e-03,-9.807293513286218456e+00
2.327885472396762844e-04,-1.280449063103333840e-02,-9.795877372949163941e+00
1.397802494594634071e-02,1.963103051869287841e-03,-9.792688902053912514e+00
1.282291364085401441e-03,-8.155758216912663977e-03,-9.802754894686444231e+00
2.558443439616335611e-03,5.449922254147412590e-03,-9.803557764834147648e+00
-2.034142895515009871e-03,-4.146048272995059986e-03,-9.812041618821908173e+00
6.979492249786406304e-03,-2.111403713313620388e-03,-9.783693472534862323e+00
-4.707085092812396399e-03,9.642594154693089059e-03,-9.802286541659455565e+00
-2.851435217480713380e-03,3.322447795868529140e-03,-9.794919765691263436e+00
-5.445316122465971784e-04,-1.102025280261428528e-02,-9.789992183783727597e+00
-2.124493439470914009e-04,2.737142935290614188e-03,-9.792826491727561589e+00
-2.830945973235037666e-04,-2.145234407125078211e-03,-9.790107048571766057e+00
1.738475046842453920e-03,-8.409103706192699174e-04,-9.777036936223581165e+00
-4.934234282486175526e-04,-1.772811851877307198e-03,-9.789727222451771738e+00
7.435621486758470450e-04,3.094422706562422604e-03,-9.799985246094337299e+00
9.339784921125668642e-04,-1.849188531268186868e-03,-9.808903480428798005e+00
1.189146257258756265e-03,1.409941635322145212e-03,-9.807766649954592353e+00
1.578221973120616083e-03,2.378585859695922858e-03,-9.792811953884200449e+00
-4.226917200955064395e-04,-4.344833757624277319e-04,-9.787618111435545387e+00
4.629199219567037803e-03,-3.645278648487580535e-03,-9.789934271478967887e+00
-4.120715551157070992e-03,-6.718383028189346554e-04,-9.803048145967146354e+00
7.469560893172905516e-03,-8.166266745576914810e-04,-9.789732359285435948e+00
-1.942879089552332350e-03,-7.514603097432914075e-03,-9.775580745884496991e+00
5.041273818926977207e-03,-2.801071010766207400e-03,-9.801157744088593304e+00
1.928197434454724133e-03,6.137621619519607495e-04,-9.797058879756693983e+00
-9.469819639857065749e-03,5.259422387199578532e-03,-9.816885270656641183e+00
2.560550411123846751e-03,1.351505185001952583e-03,-9.812270503847043912e+00
-3.727945696916775895e-03,1.760572473361972628e-03,-9.797268483545801487e+00
-2.339486216673005922e-03,-6.292273857739180166e-04,-9.777147092294582009e+00
1.167703778420531996e-03,-1.082826140392962721e-03,-9.794055893751481889e+00
-1.836445550002417659e-03,-3.485647960209302398e-03,-9.801583894770724115e+00
2.603046077537946468e-03,-1.002538053931802467e-02,-9.809828016641976234e+00
-3.924729411908953192e-03,-2.308867423074497782e-03,-9.809667092947186973e+00
-5.466434922015439742e-03,5.526827359434768189e-04,-9.799652692610711924e+00
-1.491544905289695451e-03,-1.300842795513801288e-03,-9.783216071182238238e+00
-1.842579894790518974e-04,4.545329892385367720e-03,-9.796452539425832384e+00
6.839594473834529178e-04,8.970794628832597789e-03,-9.786288519072694925e+00
-3.580937768487190299e-03,4.168986013054060830e-03,-9.788864313441607123e+00
4.119940714181560023e-04,1.110254797914871300e-03,-9.794923949327710488e+00
-3.391281118791347315e-03,1.484245611337457521e-04,-9.798836217429377271e+00
7.034265964275540975e-04,-4.874038115756152735e-03,-9.795449144513328932e+00
-6.124917390134382821e-03,9.845757746064779520e-03,-9.804295379091858109e+00
-1.862689311980748582e-03,6.982284723192327264e-03,-9.800299633273027666e+00
4.367749911541388141e-04,8.871129951523974363e-03,-9.794978844247717475e+00
5.145444199106816857e-03,3.823196905543284948e-03,-9.798391303122354401e+00
-1.842707844918541667e-03,3.289233525951476729e-03,-9.801367212775526028e+00
-7.875991806770210255e-03,-2.743879684596699491e-03,-9.787423332714739743e+00
1.381903854982943682e-03,4.728436252837925867e-03,-9.807821943481938476e+00
-1.639689897965517645e-03,5.661044386338591819e-03,-9.802948349296910280e+00
4.838061882502246356e-04,3.262223786243022804e-03,-9.805347165093666106e+00
-1.398829232630451405e-02,4.788543437342159155e-03,-9.786496051307295829e+00
3.308969481665531825e-03,-5.603203995950375082e-04,-9.785279950464142118e+00
1.254606856441049714e-03,4.551777828545369373e-03,-9.806857807917703340e+00
8.205002973042970285e-03,-2.605214033347448294e-03,-9.813046931171301779e+00
-8.016173574503569039e-05,3.100179572145087166e-03,-9.792046890031111062e+00
5.026912406763074312e-03,-4.248924369287209596e-03,-9.800859782004716081e+00
-4.272372464383725893e-03,-3.024502763102976193e-04,-9.783217348986783080e+00
2.600531159132589160e-03,1.159019335429806001e-02,-9.808652029215716439e+00
-9.104364333646371805e-04,-9.831360512015600850e-03,-9.800296191735590412e+00
-7.455225752925471322e-03,7.821448491758949909e-04,-9.802609227067994979e+00
3.812509477028224163e-03,-7.821235288827277365e-03,-9.794029520121727117e+00
-3.461555484063150515e-03,4.663017469018786686e-03,-9.796252992678612159e+00
7.320213497081484158e-04,-9.907168082459215722e-03,-9.797301903688859781e+00
2.144709512774775780e-04,5.613464080886943278e-03,-9.778533441199611431e+00
-4.649447602405561326e-03,2.450136820697128206e-03,-9.798767446906026635e+00
2.049234271667002734e-03,-2.834626812388744629e-03,-9.800601100397402732e+00
4.153770674704623973e-03,-1.283794900782672622e-03,-9.791035825470856935e+00
-4.644885898720747634e-03,4.911320027927186006e-03,-9.788982759348570539e+00
8.145422122477979183e-04,5.730251979528464858e-03,-9.813139646430190766e+00
-2.643406388127310727e-03,4.837478462951718718e-03,-9.779897276158564523e+00
7.732368061493446500e-03,6.600331461063082324e-04,-9.779609904979528423e+00
-5.291302141433885118e-04,-6.359023278466793133e-04,-9.797647732339738624e+00
-3.020953729080102113e-03,5.355440953445234596e-03,-9.789066947941437391e+00
-1.217724719610504104e-03,-5.862727731390742977e-03,-9.791419800097267867e+00
3.505398903052093888e-03,8.312382276894464059e-03,-9.793150349321290804e+00
1.165526013648493205e-03,5.238112717564257642e-03,-9.797948979008817005e+00
-7.081051763316927559e-03,1.132618234578760576e-02,-9.819588408141729730e+00
3.788959921462066970e-03,3.869606497265162901e-03,-9.788117023230638480e+00
-1.826802768074147886e-03,-5.564080981387703202e-04,-9.790505090093185814e+00
-2.810696284513250313e-03,2.837924797463324458e-04,-9.793459991812031973e+00
8.114245015954343388e-05,-1.857147221833670972e-03,-9.806898798249831017e+00
2.736937322868379218e-03,-7.178197993172421784e-03,-9.792426498187106532e+00
1.739811576825205834e-03,-3.067948301604582050e-03,-9.785525099245734992e+00
4.661537547421864533e-05,-1.412391707076794938e-03,-9.785853786591973247e+00
-1.797826556208282972e-03,4.076326112332203343e-03,-9.800082571704882284e+00
-1.959661119134706786e-04,1.391702117337718404e-03,-9.788987987936831558e+00
1.595594188861247263e-03,-5.288601623517645480e-04,-9.788814579443640085e+00
2.918167083477270825e-03,6.071877536944127011e-03,-9.804642525431818356e+00
-2.260210786980261467e-04,-9.176593992013407433e-03,-9.784753063031180531e+00
-2.821980343334389539e-03,3.125080175200627575e-03,-9.798733032895059480e+00
-6.965426637518091308e-04,-9.092964976242162234e-04,-9.787152948567356958e+00
-5.567954336275096703e-04,4.794141749424088786e-03,-9.782896472490456574e+00
1.746828063095772984e-04,3.347471948076545523e-03,-9.797631548778639399e+00
4.465873001803228118e-03,1.891188517716780931e-03,-9.790475790233308828e+00
1.587402422959385308e-03,-2.489995177891710966e-03,-9.796795788794689486e+00
2.202329912960158151e-04,3.317214070031176357e-03,-9.783541545773145387e+00
-1.830548965026315570e-03,-8.861162205469641853e-03,-9.794907705826124911e+00
4.732546736213941174e-03,-1.565633682400030015e-03,-9.803226682033988837e+00
-3.381631164691797919e-03,-4.196751868102002042e-03,-9.802333037789049186e+00
1.208764856566311779e-03,-1.367070589223447772e-03,-9.785402736734912565e+00
1.864632756144711913e-03,-4.099957320021888757e-03,-9.802555222112717459e+00
3.044815423495447239e-03,1.614716832924307632e-03,-9.781147642582011414e+00
-1.942886393820070744e-03,-4.815629957175285303e-03,-9.795410061935301727e+00
4.340901586444662237e-03,4.002667174710997089e-03,-9.794441478504424481e+00
7.392268992492093301e-04,6.278821814557168646e-03,-9.799808976299301477e+00
-4.863369637117033809e-03,-1.758518102704358186e-03,-9.805119680780407521e+00
1.135809435730333102e-03,3.747465596492225142e-03,-9.797382516995957857e+00
8.358332110909588589e-04,1.778632289834396977e-03,-9.798283294116522768e+00
9.128496247798946776e-05,-2.525814066984148187e-03,-9.772029459699696829e+00
6.864450969754634473e-03,2.353279407479595426e-03,-9.797849598302635243e+00
3.759076714858729587e-03,1.139441975397904351e-02,-9.799800431497860842e+00
-5.257156921927848975e-03,-2.853523217019959899e-03,-9.799276882218102003e+00
3.110230773701043623e-04,-3.391758647123493606e-03,-9.801978247746204076e+00
2.044496433045763124e-03,-9.786633527096690391e-04,-9.791920904554528349e+00
2.484300873896478235e-03,1.672886765949074296e-03,-9.794558612032854938e+00
7.832361719262914614e-05,7.589778317717237217e-03,-9.799580469438229358e+00
4.893917078533602597e-03,-1.276113218395126189e-02,-9.793574376119421387e+00
-1.416241152376562481e-03,4.777580137403032549e-03,-9.803728022983403179e+00
-5.845119297321929412e-04,-1.234666977455362892e-05,-9.802691327296400914e+00
2.090180837728087930e-03,4.715442880843780972e-03,-9.789098574923938756e+00
2.475025047148833070e-03,-8.036864751235611379e-03,-9.795823445642303895e+00
-1.294949277327865113e-02,1.288841387472138000e-02,-9.801926948821625629e+00
-5.674677283077043943e-03,1.027099615670681865e-02,-9.800587006261940459e+00
-3.454202807907705113e-03,1.586164503434558297e-03,-9.793414409620757155e+00
9.886275252171181430e-03,3.888054996131364623e-03,-9.795765100844127105e+00
1.126538500411471133e-02,-1.261709900309483179e-03,-9.787764489775703680e+00
1.151931732223573576e-03,5.374991228913638883e-03,-9.812854335917604587e+00
7.143709088455693981e-03,1.414830521007278937e-03,-9.774858137417055559e+00
-7.313602832749305487e-04,3.241217777361142267e-03,-9.790010623418300639e+00
-1.223354824866834840e-03,4.396239437220956191e-03,-9.796907885397255100e+00
2.312424878972460345e-03,-2.429698591208411754e-03,-9.790393214620735307e+00
-3.717408960751273413e-03,-2.880985858418474294e-03,-9.786756774386564217e+00
6.644315644868378833e-05,5.362076508471723402e-03,-9.794848480049097361e+00
5.102261470607039094e-04,1.231261627105573186e-02,-9.797449337396711755e+00
-4.202962104857740737e-03,4.179231918826710294e-03,-9.799597917333528585e+00
9.505097662556652449e-03,-3.046182081499664365e-04,-9.789307081320339776e+00
5.639804361138881818e-03,-1.227979960688488532e-02,-9.796672132543854161e+00
-7.323645157717119034e-03,1.482514797430011227e-03,-9.788221978242068744e+00
2.268153709832179329e-03,1.377184587352519966e-03,-9.795526529516985548e+00
-3.102107166075142568e-03,7.592819958153243162e-03,-9.801026153910800787e+00
2.927646126703342590e-03,-1.790610337547719148e-03,-9.795625103207431295e+00
4.514149903846954165e-03,1.040417745360783155e-03,-9.799200694383925381e+00
-2.510038678222911886e-03,6.086987991585121605e-03,-9.796750200528700603e+00
2.887762357041595389e-03,-2.367806197424251937e-03,-9.793426752617763853e+00
6.824051258158929378e-04,-2.742324818423292222e-03,-9.799515126729565040e+00
3.141164180418900848e-03,-1.298204042999368890e-03,-9.803653611360793718e+00
-7.864812997973369196e-04,-8.077809652285779241e-03,-9.788237695875668720e+00
1.636331042799600436e-03,9.244053371400166386e-04,-9.794121915443833259e+00
3.878832156081690676e-04,-1.280889408146828517e-03,-9.784561247052172561e+00
-9.083794398765860680e-04,1.220628016234769683e-03,-9.792893313237764019e+00
-4.349962478456507347e-04,-1.119361012690230084e-02,-9.797960942775675974e+00
1.633202639194017858e-03,-7.338191689869724699e-03,-9.804023357427061214e+00
4.001289465696199156e-04,-4.164048757820738508e-03,-9.792410279968649434e+00
3.119689710003135854e-03,-1.427977321066692742e-03,-9.794625663542607441e+00
-3.091689295465666369e-04,2.574296667026630334e-03,-9.798925748649596201e+00
1.547130874055926671e-03,2.055170269729417014e-03,-9.796924079298436894e+00
-2.620152563601225743e-03,-1.862935182885390884e-03,-9.797045779546623478e+00
1.242981990629424618e-03,4.639585704411593181e-03,-9.801317672963318017e+00
-1.423709337504792342e-03,-8.547060813776256871e-03,-9.789362067174659288e+00
1.447055411881914468e-03,4.267542527228575071e-03,-9.798090319050183794e+00
7.640061062797823439e-03,-4.435998079279276744e-03,-9.774001899925961467e+00
7.687200366184377028e-03,-2.903198251253170676e-04,-9.805904470856976474e+00
-3.683955635012476672e-03,2.974305459836136620e-03,-9.790649424779505949e+00
-9.994621545645610266e-04,5.473119493592913318e-03,-9.787469876938111213e+00
-3.245058138718059926e-03,-9.062165301948407747e-03,-9.792713961004027468e+00
-9.629643136886478294e-04,5.139885702294621182e-03,-9.798953548902423094e+00
-2.423327063137862419e-03,-9.349582544662212629e-04,-9.793806821852774291e+00
-2.277161094897396133e-03,3.442955662182803204e-04,-9.806769223927229717e+00
-4.134830670416277977e-03,-1.898276246030950560e-03,-9.790504555189977864e+00
1.446171798714661338e-02,1.088188106978007358e-02,-9.793814048813100470e+00
5.056526939317552548e-04,4.573740697879627101e-03,-9.798192527386706985e+00
-4.290072581025049930e-03,9.773845781073268318e-03,-9.790752492766257475e+00
6.545670396264256178e-04,-3.116668698407892672e-03,-9.799378260823420561e+00
1.221602620950371001e-03,-1.888168769528000314e-03,-9.789383811373124189e+00
8.617868516107090541e-04,-7.268352197481862953e-03,-9.803323968128227150e+00
-3.469241465372080360e-03,-1.738223337641676015e-03,-9.806556831501492155e+00
-3.447087911840099241e-03,-7.275512000150014154e-03,-9.788853303162582620e+00
-2.491667647296616842e-03,6.415318622398641889e-03,-9.783562429729199650e+00
4.329515434875959821e-03,8.137683893821951939e-03,-9.790506573550608493e+00
9.761148757135454032e-03,4.401728437004071535e-03,-9.788100829878931819e+00
7.791965327463399747e-05,-4.186466799672519841e-03,-9.796280433691372025e+00
1.048736867755151137e-03,-2.959779312912487644e-03,-9.797161523944058814e+00
4.810409258271360761e-03,2.722732163499808587e-04,-9.796236858415912963e+00
-4.361941168693823055e-03,-4.615062593613218980e-03,-9.789919278703665739e+00
-7.191262241054253296e-03,6.814636513908397392e-03,-9.778077452855507445e+00
-4.022137288812475953e-03,-1.913647943353401779e-03,-9.796786651979621396e+00
2.948317528508979414e-03,-1.828628078556137617e-03,-9.804468709669347248e+00
-4.131342834751713586e-03,1.168534995516288567e-02,-9.785887725896602163e+00
8.396854611480904793e-04,5.471493561304509833e-03,-9.805062300499338690e+00
-3.149801941366739150e-03,4.998303935409393120e-03,-9.803682670800673904e+00
-1.432228786883459667e-03,-5.707899623139381026e-03,-9.801681719027875772e+00
-4.739610201543699268e-03,2.331595262663370763e-03,-9.803447548808616574e+00
1.192976449888927216e-03,-4.161967752104860953e-03,-9.799072365686114949e+00
3.615503775684446742e-03,-3.569008714467282895e-03,-9.795768848248318506e+00
5.937133209600112260e-03,-6.560220206924800498e-03,-9.793902909865064288e+00
7.738467716790837364e-03,1.355215865148823350e-03,-9.787077818082025260e+00
2.523695473366613113e-03,4.550827471791258315e-03,-9.804733385098694853e+00
6.314622980586701451e-04,1.566136333325074447e-03,-9.786766222256389369e+00
3.740165339443453970e-03,-1.189642298249369515e-03,-9.799511828788256551e+00
-5.664229832118729399e-04,-9.716707909101602800e-03,-9.788930687347718873e+00
2.131288984825586812e-03,1.828178781554450462e-03,-9.788039442534110179e+00
-3.414818599349744768e-03,-2.992531460093174160e-03,-9.790028646957473768e+00
-5.821711471201090980e-04,-2.865929068026488221e-03,-9.796775522283526882e+00
8.764791000198192449e-04,3.265217478734840344e-03,-9.796128639737684551e+00
4.728180987893782633e-03,1.274177604415951568e-03,-9.805526750474026443e+00
-3.760543980198710699e-03,1.715510012795516117e-03,-9.787155153398135354e+00
4.559486023174564283e-05,2.181438470032606106e-03,-9.792300234106862789e+00
2.919787264248244890e-03,9.739013496683403964e-04,-9.781351024576268927e+00
-2.101585718538117892e-03,-9.594881660771712936e-03,-9.791534434669376452e+00
-6.908921036324994387e-03,-1.832107124064008769e-03,-9.794253357864262099e+00
-1.143798279072127944e-02,-2.453851301583567530e-03,-9.807981960189335879e+00
8.669989586935829707e-04,4.090708674514744597e-04,-9.808902818703472803e+00
8.796794775842869691e-04,4.209186062030054881e-03,-9.785763227804936903e+00
2.760617017153473886e-03,3.548159839258114342e-03,-9.792468418556355303e+00
-5.874570064356827125e-04,-4.288415189628557063e-03,-9.803437122976772500e+00
3.146345901480510944e-03,2.306754960011813370e-03,-9.778634355516217624e+00
9.919829710560558542e-04,-5.406432118111004562e-03,-9.791707263642210890e+00
-1.157650492734208555e-03,3.745470571349102454e-03,-9.791045115884621453e+00
-5.803756414776903121e-03,-8.799029254843796985e-03,-9.803452287619165872e+00
4.110792783914586613e-04,3.689681227366554180e-03,-9.791319967558969495e+00
-2.853124031345646416e-03,8.027376590154657043e-03,-9.789933610073065395e+00
2.107690047885639201e-03,-1.092148281907139593e-03,-9.788762629320295616e+00
-7.522940720438248650e-03,-1.216481038269547066e-02,-9.800986915097007923e+00
5.236287509084620873e-03,6.007323585168916971e-03,-9.802612289786981847e+00
2.674705528013753258e-03,7.452906400166886200e-03,-9.786482926626204559e+00
6.889706686179041103e-04,3.718467484874392846e-03,-9.798078722195061374e+00
9.484593121792997926e-04,1.944318374995079261e-03,-9.798751241386977284e+00
-5.689356990527259838e-04,6.657710402142104182e-03,-9.792203241381784551e+00
5.713547364709753093e-03,-6.344031005788956096e-03,-9.791061015585352578e+00
-1.282083560756609383e-03,-8.964222466513188528e-04,-9.787419591406274932e+00
1.170109875261871914e-02,-7.954243380695551202e-03,-9.791514277112353781e+00
8.863377191772433194e-04,3.585768960847283710e-03,-9.797166764863010968e+00
-2.185687860776896335e-03,-6.832692813878732223e-03,-9.807066507531065014e+00
5.709466112784842944e-03,1.274650476747705465e-02,-9.796327785449934211e+00
2.419542972464990265e-03,-5.280767591082143747e-03,-9.794911549242497628e+00
-6.742030965389676604e-03,2.596343694793105082e-03,-9.794108497130302737e+00
-3.244793875588272182e-03,4.521710987911885075e-03,-9.806131739377040191e+00
2.722935862714747843e-03,2.509409940327713470e-03,-9.794031349479229931e+00
5.959609658422833009e-03,3.465723797218606865e-04,-9.791669329575817926e+00
-9.194404738380137403e-04,-2.543643073122091661e-03,-9.795378336967484501e+00
3.917059748211095807e-04,-2.321996988821140636e-03,-9.810293793415059582e+00
-1.506391829272548137e-03,4.193042899421562525e-03,-9.785633044296558225e+00
-1.194519443201499595e-03,3.761224631694540937e-03,-9.795004331912462447e+00
5.027958574542642535e-03,2.772783156324130742e-03,-9.801895718950826009e+00
-9.154680979211488479e-04,-2.089293445693578277e-03,-9.790390688046823442e+00
9.646922061198119321e-04,-4.389538034250616786e-04,-9.789155453425067321e+00
4.540190318261576319e-03,-2.432468688366027070e-03,-9.800304470303270676e+00
-6.473502691850897654e-03,-1.299763820376497857e-03,-9.805347865483321712e+00
5.176167240847388221e-04,3.367740360492055187e-03,-9.804359373889054652e+00
-2.148544678774699703e-03,3.265451552580862955e-03,-9.804142200600487911e+00
9.234891148618791165e-03,-4.746143013432244551e-04,-9.810331340428486868e+00
6.141714720942376485e-03,-2.652623090311012795e-03,-9.794674795263668798e+00
-5.776950786008532013e-03,2.025100311063620447e-04,-9.798325876799980350e+00
-3.396009249790558210e-03,1.116513625061857189e-02,-9.803109934615363841e+00
-7.127809014684335052e-03,1.169670305651647653e-02,-9.801680458675813057e+00
-8.376928396185421340e-04,3.320751237776968512e-03,-9.792092280703908358e+00
1.438836439346031105e-03,5.087409616339936755e-03,-9.784241573396791125e+00
2.393684882145599279e-03,1.535307982671178448e-03,-9.786147773270833738e+00
2.566092423008704305e-03,-6.842345422063118507e-03,-9.790878902721757981e+00
-3.898256887202504288e-03,9.993413671969209044e-03,-9.802025526314080750e+00
1.628268684993595256e-03,5.301679741130710301e-04,-9.803922090955097701e+00
2.162359720983807361e-03,-5.483277189585390732e-03,-9.805544288094418803e+00
-5.359313806462565229e-03,1.078389576075697472e-03,-9.780000259618892855e+00
6.861215246439694541e-03,-9.628804750463010667e-03,-9.790647216653507456e+00
-3.352296037506113501e-03,1.072963188753977204e-03,-9.795710630964233445e+00
2.436728141540882298e-03,5.334068627490063351e-03,-9.784697911478287935e+00
5.065825922251497620e-05,1.394640398317206417e-02,-9.799022068755579795e+00
5.755670333133899429e-04,-4.618669729228122058e-03,-9.798251370286674700e+00
1.193533476772108432e-03,3.579996651510348928e-03,-9.793868656836638209e+00
-2.149233982644573309e-03,5.864487893056454133e-03,-9.793942028576703152e+00
5.140459482331093469e-03,1.190390031285412133e-03,-9.799647600825139193e+00
4.283661667431518279e-03,7.845503921795486712e-04,-9.791464412892544544e+00
-5.364365831328730093e-03,-3.057155970418718024e-04,-9.793033704568943065e+00
2.800947794123781302e-03,1.815699446546500126e-03,-9.794726824578395608e+00
7.373995700045259116e-04,2.121220697751993820e-03,-9.822547087722114156e+00
1.258198769731616422e-03,-1.199003367216874838e-02,-9.794177018071987817e+00
-1.457547990165787045e-03,1.176753630415393499e-04,-9.778417776061989031e+00
5.828727137372316340e-03,7.148371464536351812e-03,-9.785897376796894420e+00
-1.452024925662725487e-02,-4.099454444662520985e-03,-9.792066256915267886e+00
4.472030759003891957e-03,2.280630650301067840e-03,-9.804299295737239461e+00
2.098280717538472760e-03,1.267318171121325793e-03,-9.796587828195413294e+00
-2.896953538398782876e-03,-3.259304547101630686e-03,-9.799181732577483928e+00
8.668004589738575669e-03,4.554600912310221086e-03,-9.795075523415624374e+00
-2.756154135883823967e-03,-7.884600281208688569e-03,-9.795506148035508787e+00
4.988620987251513213e-03,3.750034817894309317e-03,-9.785073069402379531e+00
4.140386189732445489e-04,8.911233526937775706e-03,-9.805506945893247561e+00
5.078097134564507273e-03,-2.485059509480589193e-03,-9.806547279710725817e+00
9.192834493889158508e-04,-2.296102864489067957e-03,-9.798678901188290880e+00
-1.079201693748388065e-03,5.265096103276459792e-03,-9.800855261139295393e+00
1.442640789982418698e-03,-3.663763203720896925e-03,-9.803715132323620907e+00
-5.236169234229498363e-03,1.084808921475618288e-03,-9.798521234370989319e+00
-3.623115319501986602e-04,-8.811777257607195796e-03,-9.789683991290340614e+00
-4.740793184499709004e-03,4.693040096298859397e-03,-9.799547064471992641e+00
6.505962667576123404e-03,-5.079270361736599321e-03,-9.784686018442249278e+00
-9.218315845288772500e-03,2.436271885301847726e-03,-9.785601327464647170e+00
-3.890146688201292103e-03,1.747938234403649581e-03,-9.796641653291541019e+00
9.904603941171291615e-03,3.871034343865779360e-03,-9.806649380731487398e+00
9.328576788548681095e-03,4.757631789672779436e-03,-9.804544163915975830e+00
4.278871260490752296e-03,-5.308806480972079120e-04,-9.792045935103020682e+00
4.500995722480038400e-04,-3.253712135514317400e-03,-9.792153765517737085e+00
-6.537841529196360309e-03,-8.200478362275455055e-03,-9.791643299613365770e+00
4.881308089347522437e-03,-3.466385385801745689e-04,-9.786395381682961414e+00
-3.622045247703436382e-04,-4.260399656461659121e-04,-9.800548291124835387e+00
-6.985819344916959460e-03,-1.008326328738796528e-03,-9.791211262886818645e+00
3.745188089925090367e-03,-3.809716085777767151e-03,-9.795511537408273739e+00
1.796779484418990899e-03,-3.980683384380806315e-03,-9.796801950086692301e+00
-4.277010664617768299e-03,1.132274617039640170e-02,-9.786834527522866978e+00
6.491872684353370941e-03,7.709464590756584350e-03,-9.780324684758832987e+00
9.819829084925946888e-05,2.895957823096248496e-03,-9.799801481139532200e+00
3.422634799200285080e-04,-5.695501641250317118e-03,-9.780596615879941780e+00
-4.798541006083646525e-03,-1.289236312989860619e-03,-9.800584532787432579e+00
-8.122937561803232620e-03,7.187490410920313773e-03,-9.788027119633802897e+00
-2.305896969046182532e-04,5.850998852674356952e-03,-9.812110726775255642e+00
6.249703022311975734e-03,-4.125255214756894974e-03,-9.793790339373199316e+00
-5.120476180641032188e-03,3.225100021120888300e-03,-9.787762554337252396e+00
2.676319775431575641e-03,2.739157336597655007e-03,-9.792163581471736933e+00
3.267551029730776050e-03,3.472511696673462149e-03,-9.797366789660280517e+00
2.495041285756877288e-03,4.260034857251751572e-03,-9.785338118503689842e+00
4.622040751409596873e-03,7.417682774109074680e-03,-9.794314036608216867e+00
1.134529136857187048e-03,-2.358614956601836135e-03,-9.794649353720641827e+00
5.305292661005839121e-03,-5.425181080299600576e-03,-9.782182666390045966e+00
-3.326877425568898917e-03,-6.103984986565268839e-05,-9.811329877064828509e+00
-4.069674430756199494e-03,9.374864548774144296e-03,-9.784820776047453705e+00
2.337687506927611184e-03,-1.112829366905009922e-03,-9.790490617733071943e+00
-1.880589341797330241e-03,6.482878656788002535e-03,-9.788116344638613242e+00
-1.315199371162985732e-03,-7.150389198556149437e-04,-9.795233483544825148e+00
7.308433897694849475e-03,-2.863864504909551488e-03,-9.781327430275558399e+00
-5.140450553120652329e-04,6.420280495070572642e-03,-9.804041769045754862e+00
1.750165705093544672e-03,5.770504513842765297e-03,-9.804306508881806437e+00
2.046919434878721050e-03,7.057061510488466492e-03,-9.805562191823277374e+00
-8.225204857192068911e-03,6.471718834679938991e-05,-9.788693638441761991e+00
-9.537670383759950729e-03,1.052622696298078893e-03,-9.798559392608792606e+00
-3.614076346073452801e-03,8.714911013952806457e-03,-9.791410808799367871e+00
5.229862795785513926e-03,-1.181816156100827173e-03,-9.784226936541465136e+00
4.400087250632943661e-03,3.291105776416192955e-03,-9.802546254272648696e+00
3.650541343728552334e-03,5.767005583549842957e-04,-9.795460259684094950e+00
6.223835650334092612e-03,-4.545312938357697237e-04,-9.798336173707491881e+00
-5.390742218297450011e-03,-2.642646541348435928e-03,-9.787350669205652665e+00
3.803292491545300774e-03,3.121665842544597488e-03,-9.811850686750011263e+00
2.128040252521306262e-03,-5.256806752765035354e-03,-9.788341663521965330e+00
-4.712604875217690325e-04,8.805426349648632408e-04,-9.800504507402882481e+00
-3.430290078434486672e-03,-4.668268682692411006e-03,-9.798372718779170043e+00
-8.334336443812538013e-05,-3.010028972139994468e-03,-9.784775991253573224e+00
-4.744282883752211875e-03,-5.386127308123987364e-03,-9.803670913961266109e+00
-6.423346711081880578e-04,4.087053341620909726e-03,-9.783050240963005351e+00
-3.299242933161224047e-03,-8.160106021906286117e-03,-9.794021753513140638e+00
-8.374009297217152088e-06,-1.663939971034960469e-03,-9.794656228755004079e+00
5.060817469557602442e-03,-8.652494250621126440e-03,-9.786247687283843533e+00
-4.746350656324796469e-03,-9.892876768388997495e-04,-9.786446639082271304e+00
-5.273407395688573841e-03,-7.061189545043874451e-03,-9.794873948399278163e+00
2.309718182222985500e-03,-5.382105469141522380e-03,-9.779419198422484527e+00
-4.273766179370769129e-03,5.070830242716422610e-03,-9.792075799306150685e+00
-1.507819516876047258e-03,6.300703581571517669e-04,-9.791484071441901804e+00
6.858850580259070497e-03,3.420894260909284907e-03,-9.789543682460992713e+00
-5.813520999931920440e-04,8.071517458199152506e-03,-9.790159566258770596e+00
4.088045839704139775e-03,-1.972735176625549890e-03,-9.803773890859030615e+00
-1.726636134622582756e-03,8.340389847670239476e-04,-9.793907426482606482e+00
4.571934808856860551e-03,-1.208599544768494856e-02,-9.790115109164924334e+00
-1.819787990861556444e-03,-5.738126338460363546e-03,-9.790174183693508780e+00
-9.989327972878731671e-03,-1.703739287616810481e-03,-9.780867616038980472e+00
-3.344299125359828651e-03,-8.001132362708003598e-03,-9.797633368721648139e+00
-8.593435086056900500e-04,1.179696805279882967e-03,-9.788461436120613257e+00
-3.708287763777226576e-03,-3.049266692789354225e-03,-9.804477164792917421e+00
-1.735021472349996575e-03,9.887525282792762604e-03,-9.794276029753115509e+00
1.070204810567584137e-03,3.651903383551855821e-03,-9.793959510593817086e+00
4.482929733460293449e-03,-3.072152820254007597e-04,-9.802661630522338854e+00
7.577816527385785456e-03,-7.131552407528142512e-03,-9.793530363712166675e+00
4.316564466301570438e-03,2.854639463072355487e-04,-9.803993840959014605e+00
5.008927652394174097e-03,-1.146983049950589745e-03,-9.802454435648725095e+00
3.971057550209960117e-03,-1.221817551225471993e-03,-9.786744925818597451e+00
-5.657237428545283317e-03,1.056890588389645599e-03,-9.778402265571189744e+00
-5.502254880005844929e-04,-1.431049083231834829e-03,-9.810708443554791103e+00
5.480587962229620073e-03,3.331135952699034505e-03,-9.782706344234718188e+00
-3.806403872534324067e-04,2.892252081700516248e-03,-9.791186429891702403e+00
-3.995853929736601674e-03,6.526452106055943836e-03,-9.784281466064868482e+00
7.360555100062840354e-03,-1.604608459614748159e-03,-9.825235632372457673e+00
6.569152490383749210e-03,1.135017714299291734e-02,-9.777826407834446343e+00
6.959766213707118884e-03,-9.338878178539591207e-03,-9.792470407580580627e+00
-1.028621966774701272e-03,-3.655323506341505435e-03,-9.815681065750748502e+00
-2.995146348756834356e-03,-9.954088315412617724e-04,-9.787349613621884714e+00
1.823558029789720467e-03,-1.253620323611820495e-03,-9.795724186778686615e+00
-5.976921853646199575e-04,7.993878130234335520e-04,-9.782636825647164969e+00
5.500462619360225666e-03,8.170390713204399649e-03,-9.792399321056892703e+00
1.056837971037494694e-03,-2.591337533682020865e-03,-9.791791273633151604e+00
1.191032378817026387e-02,2.068673824230299937e-03,-9.794036855168281264e+00
-4.992472851358080790e-03,5.455509941597454400e-03,-9.797101573100217564e+00
2.400637254509753286e-03,-6.812763988312231208e-05,-9.798852982175336734e+00
-6.619406927794577698e-03,2.401533789024317637e-03,-9.796353650051377926e+00
-8.061095254386930684e-03,-6.799025772398992196e-03,-9.810252511475761494e+00
1.560742496246323059e-03,3.795426565646565793e-03,-9.787211835436391283e+00
2.922202999636646834e-04,1.990095464449919381e-03,-9.786216164181494648e+00
-5.552915863625420591e-03,-1.265214125202466545e-02,-9.793878327007803364e+00
-2.147477290487567227e-03,2.707573184772576157e-03,-9.800508065645001210e+00
4.329473342940971109e-03,-1.501414758268641413e-03,-9.794928915686634596e+00
4.663560312277351301e-03,-4.557485923162305831e-04,-9.797363659053162976e+00
-7.539567841977149951e-03,-6.382314493960464805e-04,-9.800395807536782300e+00
3.825104106767368995e-03,5.044078029331910832e-04,-9.785513162059661596e+00
-4.494578807034453095e-03,2.100574045293561454e-03,-9.774911182239030438e+00
-7.977711061574471393e-03,-1.223754266275178630e-02,-9.793744124270364892e+00
-7.185054036691987953e-04,2.165060248243238800e-03,-9.796575201278498568e+00
-4.445730063757965221e-03,1.476863190545307097e-03,-9.794178055707615016e+00
-3.909012466266089877e-03,3.116872198740090489e-03,-9.799138043915522900e+00
2.970345761124953098e-03,-1.970892936942309458e-03,-9.798917375478657377e+00
-5.156502486484655819e-03,-2.801361863193916994e-03,-9.803735480542258074e+00
-1.840019282696651708e-04,-1.104108937506740121e-03,-9.795914401281011763e+00
2.276229915912270779e-03,3.401574427872338345e-03,-9.790906559850627744e+00
7.458137503180657830e-03,5.752308632290756702e-05,-9.796024119715166734e+00
-4.710661930242134726e-03,3.909447259180318514e-04,-9.799308288447432957e+00
-3.583779001544998115e-03,4.137196024093764413e-03,-9.783037557953450758e+00
6.194394171693067518e-03,9.161019834711337656e-03,-9.799743109935105778e+00
3.655904087858027462e-03,3.622104690452874684e-03,-9.790141960187002113e+00
-1.270499767111506065e-03,3.704820300889884351e-03,-9.798777042936002601e+00
-5.165250217113697383e-03,-3.869667468590210716e-03,-9.793794614647630681e+00
-1.472873055939150641e-03,-6.394938584668932377e-03,-9.794944257575666668e+00
-4.182335731815724038e-03,-7.987299104855028961e-03,-9.785235417570575578e+00
-4.719025529984308132e-03,7.276479691705688146e-03,-9.787480265200562357e+00
-2.187359767440577715e-04,-3.155847870391670666e-04,-9.792828601702554536e+00
-5.332118797386504322e-03,-1.730481762521526900e-03,-9.785683645949241338e+00
5.940879075771495453e-03,-1.098843480556797219e-03,-9.798514536907616090e+00
-2.682563518982555937e-03,4.944613600936333293e-03,-9.794075990565772827e+00
-6.665053314228329764e-03,-5.987836904953684324e-04,-9.796477869093868307e+00
-3.778032703896133399e-03,-9.935377991674109593e-03,-9.781540836391972249e+00
3.288720871653078026e-03,-3.626712762835178957e-03,-9.788580191003909192e+00
-2.891827687886081889e-03,-4.202189518168697457e-03,-9.792079625248465646e+00
-1.990004101912986809e-03,2.687270590339634665e-03,-9.800800048232478190e+00
4.578635187473973148e-03,2.353279045356795364e-03,-9.801596098806161450e+00
4.931464500725452407e-03,-2.763846338455518310e-03,-9.793069121313589420e+00
1.290427162127199580e-02,4.679497092203123085e-03,-9.792904289925276728e+00
-4.744955830576713662e-03,1.070441587120074230e-03,-9.796595301071450379e+00
-1.624165005683653965e-03,-6.760332083481341604e-03,-9.802399560635837616e+00
6.328909353500401444e-03,1.511815339919387246e-03,-9.809854838469034277e+00
2.458557983310065772e-05,-5.030875124299915603e-03,-9.794542837546421410e+00
5.936060159204457724e-03,1.759813836021912768e-03,-9.805714922040543513e+00
1.466859482580500995e-03,-2.999523080091297776e-03,-9.790474127675786065e+00
4.099921671591957688e-03,-4.122465888164352464e-03,-9.787211165271985536e+00
-6.530294159014218315e-03,6.884944206759535321e-03,-9.808270248717898099e+00
3.100644873934251845e-03,-3.001434053606865347e-03,-9.792916609581221010e+00
-8.860124680868952402e-04,9.108111753117800443e-04,-9.811751706772975368e+00
-7.189027470772841460e-03,-7.950512717017495581e-03,-9.772320505836162852e+00
-5.646710022428993656e-03,2.895564098944806552e-03,-9.786215422568311340e+00
-1.572504717882271166e-03,6.163350008935186307e-04,-9.783308700075467712e+00
1.124637470011283962e-03,-3.645898944129640201e-03,-9.777030429793676092e+00
-7.491285725242358660e-03,-1.569222624330670821e-03,-9.786525103821483995e+00
6.306805024563509935e-05,2.100492727601702223e-03,-9.786865652644323177e+00
-1.692464410544104649e-03,-1.813206311312527610e-04,-9.790776481412200027e+00
2.149093205916710689e-03,3.618134865107789071e-03,-9.800985645875870844e+00
-1.091275196834231784e-02,-1.145936709522108561e-03,-9.800341920952398311e+00
-4.065506025318526770e-03,-3.930834805465673455e-04,-9.802066335523013763e+00
3.858257492000227371e-03,3.566007580316256365e-03,-9.795350326617130676e+00
-3.438097635514908261e-03,4.534570687611624677e-03,-9.796252490952669589e+00
3.518868573459819644e-03,2.231258478617318807e-03,-9.790979144426708913e+00
6.303724560562650250e-03,4.846556138631617598e-03,-9.779701399269168149e+00
-3.331990195684404830e-03,7.411137663712057469e-03,-9.798386787208340110e+00
2.144076318016828117e-03,4.923573708886627882e-03,-9.795386280475010921e+00
1.005318536545374633e-02,2.550075040766443344e-03,-9.792922245332295716e+00
-6.555372151719689178e-03,-4.310535335325646478e-03,-9.782146339554994796e+00
-3.028425240186015995e-03,-6.303334154744153102e-03,-9.791747890971961965e+00
-1.600866749020580636e-03,-7.120547924011563085e-03,-9.796254091467456959e+00
-8.233491001128408898e-04,3.299908836165492149e-03,-9.796699728464044910e+00
-7.633455029271335283e-03,2.624744746512326600e-04,-9.777175324779584287e+00
-1.849532863904282832e-03,6.033753176067646780e-03,-9.790361538230662575e+00
4.658861729455311511e-03,-3.178918916438904559e-03,-9.799700966460976659e+00
-5.531010712568213902e-03,6.294139802286677875e-03,-9.792978668428370170e+00
7.930791990134458333e-03,-8.613107614323530468e-05,-9.797935919915767400e+00
2.244540694731601404e-03,-1.289946365959238213e-05,-9.802499489225601437e+00
-1.517138956464143687e-03,-3.332153185252365989e-03,-9.783099209012084074e+00
1.567989350567683708e-03,2.934038797694390500e-03,-9.791632098546696028e+00
-4.051605708015507123e-03,-2.316332000001733796e-03,-9.786791363438322122e+00
5.956410348385853676e-03,7.042838751544926168e-03,-9.789261313219427052e+00
5.490890426554934610e-03,1.075434090292829098e-03,-9.799917836920752023e+00
6.214166795506677159e-03,1.517513439236021361e-02,-9.803159516954263353e+00
-1.265779792265460998e-03,6.225976043385716280e-03,-9.801871450377309003e+00
-2.702572521847367275e-03,1.961891476757032186e-03,-9.798082694825772876e+00
-1.316343269313479053e-03,-2.761787527429121567e-03,-9.804286177588661388e+00
-7.851023493006656709e-03,4.126530248083888283e-03,-9.782316357671746232e+00
1.400992970657374782e-03,9.044665803720696243e-03,-9.799459373785978755e+00
-1.813129225825854240e-03,-4.106534088258523979e-03,-9.795257750250744522e+00
-8.898837016918993053e-04,-4.541142064299054544e-03,-9.800036154827662216e+00
1.915156302107454611e-03,-1.937170636807731541e-03,-9.782592985193968360e+00
4.689249816629612391e-03,1.821391769261446972e-03,-9.794082913319543948e+00
-3.752011311381406311e-03,-3.235324458713675043e-03,-9.795746365310554538e+00
2.039661558724852747e-03,-1.300726496120729880e-03,-9.793347287683726421e+00
1.518255675106789304e-04,2.255108317656814073e-03,-9.789394195858536207e+00
-6.347279765068890127e-03,2.329534152607277368e-03,-9.797534346280203366e+00
-2.813168278494847414e-03,2.699677525932517742e-03,-9.799935045254260402e+00
-4.937631976188925319e-03,-3.370941600702723803e-03,-9.788317685751149355e+00
-8.239592948762076291e-03,4.852133711415735143e-03,-9.782048920295361327e+00
3.630207187047028786e-03,-4.224357445190576009e-03,-9.794031374469389206e+00
4.147771754243741865e-03,6.269142337483712100e-03,-9.793943278180261558e+00
-6.477927045498213347e-03,-1.619235807745899799e-03,-9.801827661751284282e+00
3.306422169852637431e-03,8.200554071154411012e-03,-9.779525053586509031e+00
-5.314270634409567692e-03,-3.398433274501617800e-03,-9.795009157750437012e+00
2.335686674117538279e-03,-4.368451842701354636e-03,-9.805952771401310386e+00
-5.952096442672173693e-03,3.380163309885020687e-03,-9.779619200596069817e+00
-2.179530005706092552e-03,-1.359826603406038420e-03,-9.794023515919194622e+00
-2.005875304189576802e-04,3.495718376377415868e-03,-9.791905249174460479e+00
-9.411494158373501879e-04,-6.904704035903571138e-03,-9.791693568159500316e+00
-1.390009362977448005e-03,-1.580698464826486502e-03,-9.781046975937638166e+00
-9.162928470679111226e-04,4.430429333732752856e-03,-9.791052128594824211e+00
3.941914538902015382e-03,7.388225849858043315e-03,-9.808484216121124533e+00
-8.243476377792891387e-04,-5.728068624433242315e-03,-9.802415783266258842e+00
4.872136414456495167e-03,5.330226076459772949e-03,-9.791905021344783577e+00
4.455001509951706830e-03,-7.315731451897995383e-04,-9.781103158121720043e+00
4.979348444851844791e-04,1.190500219286652790e-02,-9.794426368338234212e+00
-2.480094598186976477e-03,-2.226816054793084518e-03,-9.790936894010110692e+00
4.691363957917539171e-03,3.454266686525108137e-03,-9.793060093188207915e+00
2.697896535067230081e-03,5.729026602050258515e-03,-9.795912004403676931e+00
2.276319490490552860e-03,3.037209936929770662e-03,-9.794236717032719142e+00
-3.472005999035762333e-03,5.765528456888349869e-03,-9.793822711206786380e+00
-1.807833119995183504e-03,-5.802894335560442561e-03,-9.787534009340818741e+00
-6.732977269511043923e-03,-5.417671272098092093e-03,-9.810923295999877780e+00
2.642121988785012081e-03,4.618391375303006890e-03,-9.789469919299287781e+00
-4.496805844034101711e-03,8.310458212972477929e-03,-9.793221536288323037e+00
1.572117682758220666e-03,3.916377931701946354e-04,-9.784882297974311527e+00
-2.160077258687191724e-03,9.516622068105459395e-03,-9.794631631435283481e+00
-1.717060366518790649e-03,-3.101608545240871497e-04,-9.799573414666973292e+00
2.318725834482639019e-03,-1.481993492862628719e-04,-9.801829312232824165e+00
-4.408706292410292243e-03,2.077475024866261028e-03,-9.792041455769641800e+00
3.000035687248018331e-03,-1.855807877195940784e-03,-9.784173842641623153e+00
-3.951231423224130582e-03,1.887973734781728122e-03,-9.786924937346981324e+00
4.613659843890530361e-03,-5.074544523983699588e-03,-9.791804707962974419e+00
7.438981944078107032e-04,-5.803772088808213832e-03,-9.799599782353871191e+00
-3.860243087026376196e-04,-2.773377735355394679e-03,-9.805135161292957591e+00
7.112506495362864870e-04,-2.614830322882646355e-04,-9.782036139125890983e+00
1.655956369588143171e-03,-1.718527550656872823e-03,-9.792934346864139883e+00
8.050091832082681073e-03,-4.765946316863167503e-05,-9.803023578615775335e+00
1.426733763156682721e-03,5.096742782679663727e-03,-9.785490340939908549e+00
-5.561642259480061024e-03,4.179175372024254535e-03,-9.798316500229697468e+00
4.398151276448049123e-05,-3.771237428010499639e-03,-9.793259025579644117e+00
-2.405061855014446835e-03,-5.035428735876476720e-03,-9.798685315218154557e+00
-4.630178919852671882e-03,3.056879078569570314e-03,-9.791010388460174241e+00
-3.290265151207270779e-03,-1.352693494310226594e-05,-9.793438425826986204e+00
3.362122338119786016e-03,8.385607800920810359e-03,-9.800031690366919790e+00
-6.314059899879230497e-03,2.376257382029878327e-03,-9.800626128293597361e+00
7.544818418740366177e-04,-1.466057620994093164e-03,-9.787691137820658582e+00
3.064546995493624623e-03,1.347789805246897869e-03,-9.807527495130052841e+00
2.086526877315372807e-04,5.604892978356338209e-04,-9.798568305448394966e+00
5.468572940477209451e-04,5.610810299630141808e-03,-9.794536882856228033e+00
1.313384927711802467e-04,2.103134423909970054e-03,-9.805595760607715761e+00
3.830908176566892240e-03,1.628460380601495392e-03,-9.783511784353901675e+00
-5.562027283083839126e-03,-2.328448877029067748e-03,-9.792909784606960599e+00
3.600369964725823931e-04,-1.493255442520330465e-03,-9.785657372880718796e+00
-6.340982549308774030e-03,3.565065184640623611e-03,-9.794723840973381002e+00
-1.228494113301094965e-03,2.601335823434545134e-03,-9.784982446772099607e+00
-2.251092800096800555e-03,5.719791454159193003e-03,-9.795076635970394463e+00
-1.308946829157973946e-02,7.021964893290923333e-03,-9.795974328266149556e+00
-1.406731014788162922e-03,2.991131244402069501e-03,-9.803740121905541116e+00
-1.913935831605157638e-03,-1.843541197443722369e-03,-9.792008555169005035e+00
-3.753380302723102833e-04,1.863850156056111622e-03,-9.784215307595015787e+00
-5.903725507866178224e-03,6.323627928367854881e-03,-9.801680125136455146e+00
6.479239736727042571e-03,3.836010383133957660e-03,-9.823812740953423273e+00
4.299254214118758931e-03,-1.029048294323156587e-02,-9.796581848341256560e+00
3.947874837813408581e-03,8.434470963819216613e-03,-9.795710025755090200e+00
8.080228273946651885e-03,-7.248890397882261881e-03,-9.778226833174546329e+00
-3.410493315595796143e-03,5.136994116403608736e-03,-9.811487017254220788e+00
9.080491834181081412e-04,9.791491717240415754e-04,-9.790566796968191099e+00
-6.561415516688281916e-04,-3.348719945584779749e-03,-9.793394399595561239e+00
-5.372099917588872911e-03,-9.099397867102067619e-03,-9.797325853299884812e+00
-1.007986388979865023e-03,8.224422231956083143e-04,-9.784233647893938013e+00
5.610749501793020275e-03,-1.640669216568721054e-03,-9.792316912689207342e+00
-5.408900693132591593e-03,-4.938106643769022731e-03,-9.799076718652655060e+00
-4.652235055915241412e-03,-6.339433089800970700e-03,-9.783873147359118505e+00
-3.136700660826596213e-03,1.220113414807366854e-02,-9.774322845825027528e+00
-5.107845656583266235e-04,-2.148611481684149088e-03,-9.777061362207140505e+00
8.230018862672492871e-03,-1.035420358931630862e-02,-9.789024431142157923e+00
2.963404054762831634e-03,3.003568671786682135e-03,-9.799251644465494238e+00
8.188541875211646781e-03,1.647295104415065145e-03,-9.805720785283218888e+00
-4.893044265309250303e-03,1.403187344928305286e-03,-9.803575523246799150e+00
-8.856375033916603782e-04,2.197269571073305681e-04,-9.789203006511273841e+00
-1.734007022229136800e-03,-3.050703232534407623e-03,-9.775702213929228890e+00
-4.672680772537935769e-03,4.607420584082377174e-03,-9.788453133156842512e+00
5.575141721553142577e-04,-1.278415033798887277e-03,-9.805614376407788768e+00
-3.086403262018904119e-03,7.276504992972863267e-03,-9.793771598794489108e+00
-1.847803764721831724e-03,-1.482152294901183803e-03,-9.784711015644129262e+00
-5.286249507349762705e-03,1.343919739000612934e-03,-9.797392149864826649e+00
-3.463707644031573194e-03,1.232081584759828208e-02,-9.804013547730765055e+00
-6.900385910951653719e-03,9.034997870392373967e-03,-9.791706448131305862e+00
-1.819211236602403083e-03,4.098217197883097414e-03,-9.802093722477788873e+00
4.010094573210876514e-04,3.700901530788599744e-04,-9.814293766488340509e+00
-2.433181489970273528e-03,-5.822646752511117553e-03,-9.789698445312629005e+00
-5.824696104061128504e-03,-4.866669820829868168e-03,-9.793824558739302688e+00
-5.934819287131554676e-03,-5.465503120300134465e-03,-9.806207705620600734e+00
1.266384873765578727e-03,-8.285269133799077340e-05,-9.804051440667313599e+00
-2.050615407538647079e-04,-6.670021422292658243e-03,-9.779780040415969822e+00
-8.941703928937445693e-04,-1.040654233594959406e-02,-9.779491258928267428e+00
1.541678073577094389e-03,8.345735403689811356e-04,-9.793905228993560641e+00
7.133453190996836939e-03,2.153904104891270471e-03,-9.799289208801679862e+00
2.941158982090197067e-04,-4.326465573442123472e-03,-9.792781625088213815e+00
-7.023601492302486947e-03,5.601339217471242721e-03,-9.802579845516307344e+00
-4.466765053509406252e-03,5.520920945234934936e-03,-9.794258218468030464e+00
3.581540335028722457e-03,-1.241595228380279600e-03,-9.796779555274033768e+00
-2.382773887869885608e-03,7.570358330656263776e-03,-9.792263862024496390e+00
-1.315115969965821065e-02,5.705384506892612929e-03,-9.784325664454055271e+00
-2.050791192914389049e-03,-6.422681059763925109e-03,-9.784493315916492406e+00
8.825975174123805661e-04,-1.062305597203401356e-04,-9.800809240762797359e+00
-8.588783467925508244e-03,-7.483907919125228981e-05,-9.795453699996647501e+00
-5.163391129500589103e-04,7.299982992879116596e-03,-9.798843392445286682e+00
-3.409077546837749936e-04,3.540491129697464351e-03,-9.805915842799825199e+00
-1.233502081027991210e-03,-5.500729471227658665e-03,-9.794445547239526206e+00
-4.367412614933821949e-03,-3.685916500153089536e-03,-9.794213063947021070e+00
5.463991045534761365e-03,1.974677262717963473e-03,-9.783781094640675136e+00
2.566684858701868792e-03,-9.912508935936129376e-03,-9.790983057651025945e+00
-3.836511369075701772e-03,4.145106914963449588e-03,-9.799804183122208912e+00
2.601590839637612021e-03,3.902601395368329555e-03,-9.791102696174030839e+00
1.703812486213121926e-03,7.529043287181972667e-03,-9.787501398682453058e+00
1.649136889512354230e-03,1.940180950556631787e-03,-9.784759183693497064e+00
3.370936228057071216e-03,2.246589336576843877e-03,-9.792381205564911539e+00
3.880566220624287075e-04,1.586831013092535221e-03,-9.798473453553434354e+00
2.098840724199895185e-03,-4.578971901844695533e-03,-9.809706606776456894e+00
4.161982345020279542e-03,-1.123683124328270656e-03,-9.791030295589930432e+00
-1.567093029318095349e-03,6.372363758717611987e-03,-9.796932863436706995e+00
-2.355127520850420781e-03,-5.434109301910665206e-03,-9.789601438863867244e+00
4.662220839687187743e-04,-5.109912723676963281e-03,-9.793010186432509201e+00
-1.708207132640391073e-03,2.509593634559856117e-03,-9.802008027861417006e+00
1.710674600962084268e-03,2.185421350424944162e-03,-9.795010364404381775e+00
4.765011799985843614e-03,5.244811313226148408e-03,-9.815235014757686116e+00
-2.836077103573948679e-03,6.104187718838520243e-04,-9.793430763656933991e+00
2.661698716186620094e-03,-4.850279318463267784e-03,-9.777644434780983218e+00
-8.333524876559594364e-04,4.976097521732596868e-03,-9.789823702293899643e+00
-1.170851596044209658e-02,8.043275379394085930e-04,-9.790060417487783440e+00
-1.877063536755298190e-03,-9.985673573278062640e-03,-9.792858990013677101e+00
1.764473620647704580e-03,3.642192016591353550e-03,-9.789282856215859141e+00
-2.089439514913268500e-03,3.446953735139605436e-03,-9.781661876764330188e+00
-5.059542903239303870e-03,1.399309057141777911e-03,-9.783115475027035046e+00
3.663985358291543381e-03,-3.349050739791403167e-03,-9.798005946535301547e+00
3.396402588038859548e-03,-8.815366095956711804e-04,-9.783876537020727682e+00
4.479895792540356490e-03,4.611271205708626793e-04,-9.817474727920332711e+00
4.250271444997719139e-03,1.319485960542784433e-03,-9.799670845783522211e+00
-1.236367158158872652e-03,-1.681627309398771569e-03,-9.806014408730282739e+00
-3.182074680748421189e-03,3.214289478444230363e-03,-9.788415345484729357e+00
3.407464719578479073e-03,6.541208487806525387e-04,-9.792034756528138928e+00
1.948749068689802164e-03,3.640242079422171227e-03,-9.803415605826730328e+00
5.295390721132582114e-03,5.925434026647980953e-03,-9.779386259374691193e+00
-6.582197542854745231e-03,-1.266526503747540493e-02,-9.787676347697788160e+00
1.199457808469743970e-03,5.579940823787023002e-04,-9.799659328118240254e+00
3.454232421165667668e-03,-7.110549307140864471e-05,-9.790337776748570420e+00
5.234375314385595994e-03,5.628711372683951192e-03,-9.794254029192948963e+00
-5.141006534445435872e-03,8.087409755705274230e-04,-9.787582195951673114e+00
1.290177608741446347e-03,-3.504014597149110281e-03,-9.785663193808378679e+00
-1.045900007637369858e-02,-3.542454635335199925e-04,-9.799588599698187963e+00
2.035825981172597818e-03,5.348198357217369588e-03,-9.814488108232470864e+00
7.224606263958918695e-03,3.991648224604818669e-03,-9.791096789720871385e+00
2.602145758020902276e-03,-5.111858020354035671e-03,-9.783624058426596548e+00
3.909131496353870916e-03,6.207142700015599868e-03,-9.784165228560331329e+00
1.102211776100199591e-03,2.959353034430598633e-03,-9.798618023155320600e+00
3.747605915560622315e-03,-3.415966927360794374e-03,-9.797179844408496763e+00
1.976814729446682171e-04,-9.467624329245513670e-03,-9.786083401748863153e+00
9.337036962707738127e-03,1.673447966814457051e-03,-9.790654006607439896e+00
-8.723671056674700205e-03,-4.451962597379528069e-03,-9.792685780494762682e+00
-7.241387452985354259e-03,9.105838995887337653e-04,-9.804008219529361412e+00
-1.266379891202902477e-03,-2.141800670038266751e-03,-9.791542719072868550e+00
5.478120048372839106e-03,1.071716467379274290e-03,-9.789414267500443856e+00
7.452094560398191212e-04,-2.684552488857744855e-03,-9.790006349998531476e+00
-4.883986080098203127e-03,2.932492433040680222e-03,-9.802894435998293687e+00
-1.188832190985585980e-03,-8.264483696138880467e-03,-9.776465685678251916e+00
1.263098062662406556e-03,-6.526649608067774770e-03,-9.794734816356671203e+00
3.389923046515565686e-03,-1.605405316937550276e-03,-9.803026820675675879e+00
1.545201801815194217e-04,2.356657281302130744e-03,-9.794995207898290701e+00
1.003019712759586120e-03,-9.777607960859274749e-04,-9.806180445004258672e+00
-8.494819451769531097e-04,6.376123859300936864e-03,-9.786410642631890866e+00
-1.110911221088626416e-02,-5.557883590936608248e-04,-9.792868889483102635e+00
-9.870636992693563108e-03,-5.694811559438404600e-03,-9.786983211679604722e+00
-2.403545396520967523e-03,3.835418196661788631e-06,-9.791067301407775147e+00
-3.780883603079585042e-03,6.723729915071934363e-03,-9.795954387237397754e+00
-2.147769195201995954e-03,3.743569970827371595e-03,-9.772974914899551280e+00
1.480938356896673675e-03,-1.153389417684818968e-04,-9.797114458249890134e+00
-4.956199610664002546e-03,-1.017035611799422764e-04,-9.798505552292491316e+00
-4.051881894070919095e-03,-4.660185110691422890e-03,-9.799326379650930008e+00
-1.972426043062268375e-03,-5.411586919255497591e-03,-9.795669582960552901e+00
2.078617000603857727e-03,5.883510076612615339e-03,-9.807564485439442592e+00
5.192680672044653299e-03,1.193971144128156943e-03,-9.796858672730230921e+00
-4.120791574108255244e-03,3.558599279840782021e-03,-9.779660675659888724e+00
-7.373661309708106487e-03,-3.586245727086371203e-03,-9.788356477966857483e+00
4.819597932852557470e-03,5.065681521352479247e-03,-9.794721778866325224e+00
6.281475218282998353e-03,-5.583271161797966411e-03,-9.790782409353010252e+00
9.787750676833253949e-03,-1.356652148677036903e-03,-9.806303771692078897e+00
-6.881954191906092602e-03,5.537397166551479531e-03,-9.802676332566800710e+00
-2.912770201592868556e-03,5.749154699076910319e-03,-9.792366537936910476e+00
-5.785707781059082171e-03,-4.694967862664946832e-03,-9.794316452566746989e+00
6.282450926364995317e-03,-1.134034151324767731e-03,-9.790981540286388451e+00
5.668704420072083125e-03,3.125377975586612293e-03,-9.795489750974168075e+00
1.715593584380895303e-03,4.588780756549578829e-03,-9.788601965434592600e+00
-4.556550961057277520e-03,-3.663843515075198166e-03,-9.782733999257017032e+00
2.940648899430394446e-03,-4.444860301123326925e-03,-9.803411366898139079e+00
3.083530808458334257e-03,-3.984271217806594108e-03,-9.794177719793625059e+00
2.150082661248252976e-03,4.838411240616870106e-03,-9.809936620106974203e+00
3.817910729175536672e-03,6.104358580145079378e-03,-9.795741745746756379e+00
2.498221198168367255e-03,-1.451711466366322140e-03,-9.789641017746097518e+00
-2.724869177512979782e-04,-3.092392592045979747e-03,-9.798117155075143359e+00
1.364370924589839535e-03,-6.021591843804838251e-03,-9.806243066903988392e+00
-4.534784707352951965e-04,-4.515871003160110489e-03,-9.792389020985275749e+00
3.849867906167712354e-03,-3.125892026035544721e-03,-9.805292184308683545e+00
-4.569828161173153554e-03,-1.401427127301330816e-02,-9.785895948775191755e+00
-1.206670578549918875e-03,5.123252098529653201e-03,-9.778740770086312040e+00
2.420512038055605206e-03,-5.334580704198270233e-03,-9.813428818077802873e+00
-4.345748344346531296e-03,6.700580555592761285e-03,-9.800462011284901465e+00
-1.988429688611146389e-05,5.839806688269284785e-03,-9.792676669958018110e+00
6.009912348869490654e-03,9.059829517636926524e-03,-9.801964454090891010e+00
4.839963667817382201e-03,5.542192586040295757e-03,-9.796085990380733577e+00
8.635747195201472215e-03,-3.971250832080247539e-03,-9.784087518010545992e+00
2.663756312614807935e-03,1.052904542689909496e-02,-9.792973901240177526e+00
-3.229894127370497043e-06,6.280059628781752522e-03,-9.786562794649107389e+00
-1.131189734389598288e-03,-8.737926091099039796e-03,-9.785008784543398619e+00
7.207838040971794799e-03,-3.882031365268656420e-05,-9.802486695890948454e+00
4.067681258846622379e-04,-4.977507290655218582e-03,-9.787028968573649124e+00
1.902414196539554221e-03,6.880378601106098418e-03,-9.804812672233783388e+00
-7.964557076536532901e-03,-4.104873494330565399e-03,-9.791138512655958692e+00
-1.691724784308162605e-03,-6.037089936262474490e-03,-9.796793638199096321e+00
-1.010378538208764332e-02,-5.431239039698022679e-03,-9.797573446081912607e+00
-6.113610085771435318e-03,6.192703783990580711e-04,-9.799816502377568739e+00
1.243932720630832028e-03,-1.970908223863707034e-03,-9.784963622082727852e+00
-6.270939465159970985e-03,1.294137491375684824e-02,-9.799126116785862095e+00
9.285322636307801955e-03,-2.375176217077772101e-03,-9.808476370327911198e+00
6.785462127111213833e-03,1.347457248742389571e-03,-9.793903344556053270e+00
-3.603496020582562867e-03,-2.823096134938597821e-03,-9.796900184068242368e+00
-2.550110602937709272e-04,8.908222258452900069e-03,-9.807139406521931946e+00
9.335501771261007706e-03,1.282563365397441056e-03,-9.794816035745181892e+00
-2.424784069284965492e-03,3.902353585374732526e-03,-9.802726990201456658e+00
1.750295457795468003e-03,1.642857468740667736e-05,-9.791618441861109190e+00
4.248547978031667026e-03,-1.977308630976193815e-04,-9.800797375771102438e+00
9.990521264748994032e-04,-1.629095937057822288e-03,-9.794872875276725566e+00
1.399713475782307561e-04,4.461761009341967698e-04,-9.794159513614333790e+00
-4.893428940617909964e-03,2.422745485370905814e-03,-9.790097338495890256e+00
-3.372653994145425682e-04,7.926255854303818332e-04,-9.803856524841760844e+00
-7.184676370291197094e-03,5.388753672559823404e-03,-9.802165522637009687e+00
4.895020101857213563e-03,-4.538328117194759107e-04,-9.788882859001908798e+00
-3.793886443690678602e-03,-3.297181174075993360e-03,-9.796207464270009879e+00
3.809115124860488338e-03,1.083219882335764717e-02,-9.800860299665094644e+00
2.654203794907184725e-03,5.784646077987359251e-04,-9.788961255019874130e+00
4.010648420006932349e-03,2.706394740960894191e-03,-9.797405862230007756e+00
4.774938915678998176e-03,-2.243873387284447962e-03,-9.788020529691856098e+00
8.830913286539279414e-03,2.034764546710041491e-03,-9.788274375066844613e+00
7.938163194611803919e-03,-3.358523081115451572e-03,-9.801615532134901443e+00
-5.893391230013688212e-03,5.935231149221256892e-03,-9.782879736843835161e+00
-1.977395877151226066e-03,-4.370675038387305568e-03,-9.794564879971522586e+00
-4.652609463815971999e-03,-1.994289211649419996e-03,-9.793705804633484391e+00
5.106331538047344937e-03,-1.086113353929986109e-03,-9.801451979055665120e+00
-5.869370125466955891e-03,-7.758012603919830488e-04,-9.792469367564512694e+00
-8.108205044821206048e-03,-1.198264769962756088e-04,-9.792241888940457883e+00
5.978595000569794822e-03,4.867646355048697469e-04,-9.776293191288301543e+00
-5.123432377836228263e-03,-8.316581447635935237e-03,-9.797945955236011528e+00
-5.994543824836943285e-03,2.708042589725104601e-03,-9.800561805712655783e+00
-4.838258175662742827e-03,-7.950364142687542032e-03,-9.792106017110905114e+00
9.505007223652851660e-04,3.327337093184800677e-03,-9.792908817884248052e+00
-7.649058267454501500e-03,-3.900151391292912273e-03,-9.799105191056428410e+00
-3.102589170907048711e-03,2.689901346718356467e-03,-9.776638618169373629e+00
3.152447594087662373e-03,-7.009755044696787396e-03,-9.789607424257914303e+00
9.576656082799376093e-04,-5.364587244826078769e-04,-9.788140606386873444e+00
-4.297493108164811629e-03,-4.347905621916372566e-03,-9.793910481002049195e+00
4.114723942962073694e-03,-2.301241055403586869e-04,-9.805784524261923707e+00
2.311685292074989150e-03,-1.259509246564781849e-03,-9.783662955969898434e+00
9.941363495353407534e-03,6.035896245861111648e-03,-9.807896898359773630e+00
7.561620306267702188e-04,-5.190456060645931395e-03,-9.798569593147234968e+00
7.370378079690359258e-04,3.927215705730333073e-03,-9.794616579320438277e+00
-6.488718317684132346e-04,-4.761543946552345211e-03,-9.804242876163073106e+00
-4.152272530989769986e-04,2.245409500039197842e-03,-9.789834391470170871e+00
5.783146675299081704e-03,-2.625162813560102861e-03,-9.788885853412390148e+00
1.789419902870432056e-03,-1.589265437749313222e-03,-9.791549360907254140e+00
6.507390208706684796e-03,8.722170254503074441e-03,-9.809562643315802077e+00
-6.928252197942783887e-03,2.588109242512765299e-04,-9.803350609417929462e+00
-3.138030693869770654e-03,-3.169414088862459230e-03,-9.807383548488278535e+00
-3.387384337431537801e-03,-3.312808509035731520e-03,-9.800240961724353994e+00
-9.933894390222883924e-03,-8.551735916392883214e-04,-9.798971764693833464e+00
-1.661949452703581458e-03,9.851368661651484573e-04,-9.783565165794762208e+00
-2.427459654886591491e-04,3.807586801894970955e-03,-9.797426374747535860e+00
-4.973078535478463354e-03,-1.417510282505523396e-03,-9.789559075892077189e+00
1.089888872727742646e-02,-4.299203323144398965e-03,-9.788271999979464510e+00
-8.352492966323427082e-03,-5.200527938637395167e-03,-9.794775713337804390e+00
-8.696796757094046870e-03,3.424829623899665765e-03,-9.784092043934739635e+00
-7.610264528653077308e-03,-4.527605448634410522e-03,-9.803695207940512191e+00
3.993914696192612558e-04,8.040681734173224862e-03,-9.803614319559560641e+00
-7.702879881043135299e-03,1.600360510572231573e-04,-9.797059197261448915e+00
-1.112828898139154145e-03,6.084353894173965584e-03,-9.791327923706594660e+00
-1.017778032486017607e-02,-6.398092699331433229e-03,-9.794419450114544290e+00
8.758868752168564795e-03,4.654956421352500658e-03,-9.807412565564128215e+00
-1.067613077993129992e-03,-4.151972195485944574e-03,-9.792091291526929808e+00
9.946892046156206608e-04,2.126696955033339706e-03,-9.782524372236162336e+00
5.206039402333250896e-03,-2.685961755289900665e-03,-9.794130136632507089e+00
5.303676511057523781e-03,-2.388628060505609916e-03,-9.782963261682366962e+00
2.867737268970801338e-03,-4.207483601469580448e-03,-9.777860568003621466e+00
-8.989383933236857679e-03,2.936081962249926548e-03,-9.795119459766199910e+00
-6.525894218294454744e-04,4.633972603900757617e-03,-9.812112705711117044e+00
-5.855164632455556184e-03,5.392570153601459852e-03,-9.794614245767986560e+00
2.139962586647593812e-03,-2.032184524783803032e-03,-9.791231266087208951e+00
-4.515999996354567135e-03,-5.996085646537241236e-03,-9.793386816031283360e+00
-2.286056257960623634e-03,-2.922865004239624679e-04,-9.794761888301701802e+00
-4.358039095720463857e-03,1.203982406050584791e-02,-9.777741644082800221e+00
8.264451838806675076e-04,4.512449813022067612e-05,-9.798348772168669285e+00
7.511890437226838302e-03,9.953609609538108661e-05,-9.791479816385571411e+00
1.493035634612719124e-03,-1.277999330937198855e-04,-9.783121221162282666e+00
-1.907380177178450917e-03,2.088052633597756256e-03,-9.795868903734705313e+00
-7.540656534777264103e-04,-8.333811723689122514e-03,-9.802536042882000089e+00
3.953467310450334282e-03,-2.141634988240544418e-03,-9.780297288518321253e+00
1.074976402668152784e-04,2.918051211641793999e-04,-9.793859910018843706e+00
-1.507079970271827871e-03,2.586125983994871984e-05,-9.787061144152046310e+00
-5.729775590920084885e-03,6.428147320556789820e-03,-9.786587841975164181e+00
3.528458842656491835e-03,-9.288765669795139316e-04,-9.798152932718242170e+00
-6.543799937187956897e-03,2.432853035839642464e-03,-9.795078777156506433e+00
-4.179116770831521090e-03,4.328214284403564976e-04,-9.791526562885062290e+00
5.968908293698460066e-04,-3.240729826727719188e-03,-9.801818272204670279e+00
-1.139182216641760129e-02,1.405699248464164011e-03,-9.784453650430801730e+00
-7.316426392265793638e-03,-3.305309577846303991e-03,-9.788407211510381956e+00
9.261691828944375662e-04,-5.806071271316354254e-03,-9.782725413598569730e+00
-1.317774857505108442e-02,-2.113072675653226637e-03,-9.792084445377680524e+00
8.176192893515287462e-04,2.196719204290322261e-03,-9.794190699212707685e+00
1.059035680982587215e-03,7.482065231327310155e-03,-9.801339368141398722e+00
4.504403240459797612e-03,-2.493577977686907855e-03,-9.793253893695451850e+00
-4.247955772260827642e-03,-3.041069140259557418e-03,-9.797820335112872314e+00
-8.623079976601992491e-03,-4.334007802064469925e-04,-9.799294655660178321e+00
-7.133642280443984376e-04,-1.242272816878788565e-03,-9.794548058680314639e+00
-4.282062331890982253e-03,8.644286688039000063e-03,-9.788229225499668118e+00
9.156720891902897161e-03,1.159449238761846128e-02,-9.791528761407079173e+00
-6.955456874135965487e-03,-9.890853521674227919e-03,-9.808536339744961197e+00
-5.930253047568085668e-03,1.419750161180483462e-03,-9.779982113595139026e+00
-5.474258147812461998e-04,-2.119024673121768561e-03,-9.796341519623213756e+00
2.703314737832585458e-03,-3.372708545150463703e-03,-9.789379808471217359e+00
-1.241912240745081560e-02,1.001970224632085620e-02,-9.801083090848868196e+00
-3.814936945667240370e-03,5.107699722197554630e-03,-9.789797994241579815e+00
7.106693786955150215e-03,8.328313213872730672e-03,-9.790040349698937661e+00
1.952434127066348399e-03,2.192836605917058371e-03,-9.796389841741740767e+00
-1.277241222273302985e-03,-4.868290439454261986e-03,-9.807346024288815300e+00
-2.172502943406501991e-03,-9.394377304406952315e-04,-9.794011528420993429e+00
-2.996520291552762314e-03,-1.026557413332752780e-03,-9.795438152969257573e+00
-5.798571507281526441e-03,3.127403660763834227e-03,-9.793422591933092392e+00
6.387042730061843337e-03,5.661712666051094654e-03,-9.806394832951179197e+00
-2.524774417429459517e-03,-2.369539365082804633e-03,-9.803979050977661203e+00
-3.407851681855574109e-03,6.200731186927127547e-03,-9.797424701389557455e+00
4.429808682982598785e-03,-5.700533376941420167e-04,-9.800852498815581626e+00
1.144964814608012390e-03,-5.723869143685750283e-03,-9.812388259156710646e+00
6.972214885967965674e-03,-1.234107494295766209e-02,-9.784201197289362995e+00
1.434437954499301858e-03,-3.984733428247533640e-03,-9.796685968986635018e+00
-1.438244510342600408e-03,1.557878109954502922e-03,-9.802431430416861602e+00
8.435542297858799124e-03,4.288082743241319536e-03,-9.799886645950657282e+00
7.017913183597380977e-03,5.490463301313787403e-03,-9.799828905802527856e+00
2.982590635046898121e-03,-3.751009240648126345e-04,-9.793333252440360681e+00
-8.327808459213176728e-04,-3.690754087660556414e-03,-9.782772970557617853e+00
-5.798381142253657659e-03,-5.817358603706752895e-03,-9.793385818889690952e+00
1.398373158274395130e-02,1.968210993267306263e-03,-9.786901622235584242e+00
-5.261847107876972164e-03,-8.856199796029388602e-03,-9.794794284612066804e+00
-6.530578453915947788e-03,1.162788125323397335e-02,-9.807343063366390723e+00
6.305166826087382596e-03,8.041191135247222760e-03,-9.802915019916026651e+00
4.405976882086966653e-03,3.692318978285036735e-03,-9.786566529820776239e+00
-2.674883860334908211e-03,-2.849170601588850178e-04,-9.805021543307571363e+00
-1.074069921580248291e-02,1.442324609725136519e-03,-9.797991991747625917e+00
4.672448754766112509e-03,-2.992917090964311057e-03,-9.796332625059259058e+00
-6.358170818053929078e-03,3.455218427688829148e-03,-9.786760361833197308e+00
1.743195905215641928e-03,-4.875563590722008928e-03,-9.790324940883754934e+00
3.401146555544829180e-03,6.323607898371107726e-03,-9.800230778465717663e+00
-3.058404988068950687e-03,2.799158095765894288e-03,-9.794630551912488770e+00
-2.997776457637851399e-03,4.788115783066434518e-03,-9.791615443370909944e+00
4.401919818633958162e-03,5.240170519485680758e-03,-9.805840462375105204e+00
3.433687754607628057e-03,-4.275388998320410472e-03,-9.805384887739176492e+00
-3.781840635817076794e-03,-7.971343715142431910e-03,-9.790852053403330757e+00
-2.027384639127881825e-03,-2.239403182202077264e-03,-9.800027715913472548e+00
5.412166692723211631e-03,-9.357816707604543456e-04,-9.793474028047489455e+00
3.212205366702958458e-03,4.042285715144982791e-03,-9.796607298110444617e+00
-4.617300689383406660e-03,6.499154805875923327e-03,-9.799675717011469445e+00
8.942049946133260804e-03,-2.503225639495310854e-03,-9.795188739964844515e+00
4.100419496698328847e-04,4.654406013279871815e-03,-9.794559143276297064e+00
4.550723371577945070e-03,-6.377550141054218495e-04,-9.798038763812051855e+00
-8.464563128759781951e-03,2.223795215905639052e-03,-9.794970065817652838e+00
4.147225189835259535e-03,-2.849662998619380098e-03,-9.791649393637538168e+00
-7.041328298481313794e-03,1.695814093690360290e-03,-9.797488246532191525e+00
-7.339294467069520760e-03,-6.341898614450942710e-03,-9.799850300947730020e+00
-6.436097330020526530e-03,-1.817563260185715271e-04,-9.795139092288206228e+00
-8.239976741403637903e-04,-4.779453978367325870e-03,-9.791127483164459022e+00
-2.302556902887337685e-03,4.347493202553600646e-03,-9.784180196187282519e+00
-8.178492194105631621e-03,-3.857836244863810989e-03,-9.789206734522089448e+00
-7.496610696067754556e-03,1.263583912717938318e-03,-9.805688014752060866e+00
2.614795941379497411e-03,-2.864071540162280941e-03,-9.804240018655979938e+00
-8.250915184303606173e-04,8.147107988346524634e-04,-9.791043231061879126e+00
4.226845007400052701e-03,6.408763142290771877e-04,-9.786013016516035279e+00
-6.879661527340337653e-03,3.159443988045022595e-03,-9.801048275091829964e+00
-1.696738586219049367e-03,2.309586758020627795e-03,-9.782981906873747135e+00
-4.115231140987138858e-04,8.127010531054943560e-03,-9.788965809662109052e+00
-3.520541406205628457e-03,4.083654379278598041e-03,-9.796460259012313543e+00
1.216206652010777371e-02,-7.227903625883384982e-03,-9.796441908148015187e+00
1.543111167916752773e-03,6.404828656105744818e-03,-9.791561729188964947e+00
1.573261933910312426e-03,-3.822973951872562018e-03,-9.798223727646361070e+00
6.838301258354021091e-03,5.438726847424365553e-03,-9.787718749461006951e+00
2.208588574218267597e-03,-9.133675093508574969e-03,-9.796056657878654761e+00
-4.606494234165683412e-03,1.805999407530065872e-03,-9.788249824302061697e+00
-3.681183172053421621e-03,-6.749163505205680105e-03,-9.796596828272566171e+00
9.990749694554654781e-01,-8.737453475535759267e-03,-9.798996509102368080e+00
9.950528699970333513e-01,5.194374659974221840e-03,-9.790161369704989625e+00
1.007956831750166593e+00,-7.055947074217715220e-03,-9.787410715041366061e+00
1.008747470029224935e+00,1.168131954112500758e-05,-9.802321335507301114e+00
9.994923878155126395e-01,1.163422361361859080e-02,-9.801465111203182090e+00
1.006586611419644006e+00,2.024363694885697538e-03,-9.785197237499033918e+00
1.000863183752115360e+00,5.277101021913231833e-03,-9.803618373580546219e+00
9.991849914935844179e-01,-9.521313098638781169e-03,-9.793098048715208392e+00
1.002211503723458019e+00,1.682839737888130148e-04,-9.801516478737770655e+00
1.004231468698479901e+00,8.446725243317255646e-03,-9.788791311154268371e+00
1.003829126759841817e+00,-6.434017912317996531e-03,-9.786576478203340201e+00
9.972113993748160654e-01,1.002893388253125843e-02,-9.795739833736714530e+00
1.002869944945689706e+00,-1.173739288326987535e-03,-9.793009594574293430e+00
9.916844601885197452e-01,-3.070852176510207275e-03,-9.786406595128811503e+00
9.986650780032584329e-01,-5.623298138556537436e-03,-9.791647387516709600e+00
9.914174729967575317e-01,5.807267173776951667e-03,-9.802541058650030337e+00
9.919981069966784526e-01,-5.123083113525913994e-03,-9.794217562164975632e+00
9.987545690416961275e-01,4.387199055042756424e-03,-9.792432947689754030e+00
1.000405537597566230e+00,-7.856826049508916845e-03,-9.799032596249164229e+00
1.008050109398892724e+00,7.950827206514025219e-03,-9.798378121714561573e+00
1.000750766931781666e+00,-5.514119478205848669e-03,-9.796804844765489406e+00
1.002701713640507641e+00,1.292051573405733275e-03,-9.808262485564705813e+00
9.965302945139822288e-01,7.159254307151902315e-03,-9.795398229530398737e+00
1.001713235700395721e+00,-5.281335338861679017e-03,-9.799313231037988459e+00
9.940803722050547409e-01,3.792310358494705401e-03,-9.796998188385133588e+00
9.972239681280502532e-01,-2.354862743427715756e-03,-9.789883696708884031e+00
1.003888744210703399e+00,4.575885688404006022e-04,-9.791906773979389911e+00
1.003364001870467259e+00,5.447430306106611263e-04,-9.795121350960430462e+00
1.000146148128380430e+00,-8.692903165946825814e-03,-9.784351005056496575e+00
1.006668656480187884e+00,7.110157667034434177e-04,-9.795232513778762140e+00
1.003005514769675033e+00,1.594088707159649213e-03,-9.797329304929119687e+00
9.983134435187663858e-01,-1.693728862454238482e-03,-9.789055916430912774e+00
9.998801925270124347e-01,2.715285201689651099e-03,-9.784927702511090786e+00
1.002973282510541519e+00,5.790948014692321767e-03,-9.804534076588677038e+00
9.968732449516854999e-01,5.236212746752187501e-03,-9.785691580923927546e+00
1.003500420085173372e+00,-1.971952327617196299e-03,-9.809371257615856265e+00
1.000650135793778261e+00,-3.171155838000293986e-04,-9.806585079728840526e+00
9.961072782632731659e-01,5.406113906095517778e-03,-9.813113416117195342e+00
9.968027045685053933e-01,-3.630528669916161660e-03,-9.788027546200464002e+00
9.937168373958386036e-01,1.732521197421305103e-03,-9.804099875193733382e+00
9.940966635157933995e-01,-3.271763800940694425e-03,-9.793647028804452148e+00
9.927664286824124940e-01,2.114862522430245237e-03,-9.805824486555151154e+00
1.001513302946397621e+00,-1.588916645481259484e-03,-9.798445888456512876e+00
1.003337842266706303e+00,9.827060565147933534e-04,-9.788419502923700222e+00
9.989248870045419615e-01,1.842770706766115769e-03,-9.788551016074793054e+00
1.002624471956708785e+00,-7.467097835939994106e-03,-9.784530329245743729e+00
9.973421804552752290e-01,5.922283129570414702e-03,-9.806818473704305816e+00
9.928259098317819831e-01,-3.846731073253820046e-03,-9.808793472117484313e+00
9.932103799376735820e-01,4.109336952784992288e-03,-9.791685024164934248e+00
9.993620323646273951e-01,-2.448736500998482252e-03,-9.792889536899323843e+00
1.003492179791441341e+00,-5.876755391238123495e-03,-9.801130658882806657e+00
9.984467561745206110e-01,5.958817504764736019e-03,-9.783625564476333025e+00
1.005728234542839994e+00,-3.075040819135228202e-03,-9.783356800360360594e+00
9.875649334774800892e-01,3.184124695648305001e-03,-9.797815483227665823e+00
9.956026843937888504e-01,-6.530283975149436468e-03,-9.792796380597460271e+00
1.003250293922366199e+00,5.184383865849196034e-03,-9.792917252541373685e+00
1.004471265897790788e+00,2.636378222274705137e-03,-9.793750759729697108e+00
9.966433921269106655e-01,-2.944790525128281652e-03,-9.817086905932244534e+00
1.004319078666224607e+00,-2.523160847645201845e-03,-9.797505477085556080e+00
9.978715146824689297e-01,8.409818228564652342e-04,-9.796230410720291104e+00
1.000723580680253688e+00,4.764518446223013973e-03,-9.785392433161756998e+00
1.007390086754291758e+00,3.833545279817687085e-03,-9.785538445036095823e+00
9.992278842681897588e-01,1.030338227689456265e-03,-9.788246050389794561e+00
9.991422497121912327e-01,-1.755115988831541188e-03,-9.793128106884902095e+00
1.000916687101057523e+00,-6.700218830680389898e-03,-9.786464405316390724e+00
1.002750284695538063e+00,7.833441166187556787e-03,-9.791707003055078573e+00
9.962157626090597518e-01,1.075083116706279738e-03,-9.792396585105665352e+00
1.000772964825811018e+00,2.115439511096055009e-03,-9.799643416460394718e+00
9.989804908045424314e-01,1.942692589320932752e-03,-9.800615371721736580e+00
9.933837559252427507e-01,3.770441381732544690e-03,-9.783317781220489451e+00
9.996446453738120352e-01,4.534071588326520075e-03,-9.800900749485464303e+00
9.996035346013647516e-01,1.224132649003876420e-03,-9.793078065573482149e+00
9.920135926757488454e-01,-5.155042887427011521e-03,-9.780738523007894258e+00
1.000278013111319364e+00,-1.516546529741788323e-03,-9.791308667125425913e+00
9.937372293900345044e-01,7.980471230786510828e-03,-9.797784116867791937e+00
9.947484486617120814e-01,-1.290736398525381542e-03,-9.800119276828427317e+00
9.998795536082613067e-01,-3.653611735763747422e-03,-9.796300537397979014e+00
9.981535993176073873e-01,-1.615520538373664723e-03,-9.794562877424196401e+00
9.920349514003805602e-01,-3.586870220231121783e-03,-9.792562915751258146e+00
9.965474441805065586e-01,1.300317267260371439e-03,-9.795229032773596245e+00
9.965997876253821497e-01,-3.752494586308126497e-03,-9.788640552159789010e+00
1.003661376552655859e+00,-5.284158934578234851e-03,-9.785899040651326430e+00
9.941166087221274816e-01,-5.395376984452334226e-03,-9.795115139966215523e+00
9.986279828384595492e-01,1.208684408118199452e-02,-9.800209193261514073e+00
9.973677464719896690e-01,-4.146008257605734992e-03,-9.794599661525534628e+00
1.010653862507052025e+00,-7.514005353222679220e-03,-9.790429946954871454e+00
9.950286905481555699e-01,-7.444589152877982563e-03,-9.787507585029059598e+00
9.912436439144244327e-01,-2.716048145753118762e-03,-9.798696628631164529e+00
1.001337575690742776e+00,4.951634556691598098e-03,-9.789087712969406496e+00
9.962904904044438403e-01,2.132121098729098090e-03,-9.804852983430885516e+00
9.968529917662692919e-01,1.247885043414819492e-03,-9.798986900799819821e+00
1.001245761415635149e+00,3.351289574179925094e-04,-9.802707160009333620e+00
1.003462302255605509e+00,2.507775372347635211e-03,-9.796297229872187984e+00
1.009162981101283441e+00,4.525826782373548046e-03,-9.788347870018807129e+00
9.943363266703109105e-01,1.071081996228401842e-03,-9.803357550885364091e+00
9.976519832896962869e-01,2.590673285293901718e-03,-9.797243735382606289e+00
1.006755548602968675e+00,3.162664281635175177e-03,-9.782922439819193627e+00
1.000860084078854850e+00,-1.291325408893976429e-02,-9.796862668000821728e+00
9.977627342867033677e-01,7.445807422822306660e-05,-9.782805238493672562e+00
9.905974951904776837e-01,1.977482385157404692e-03,-9.787256829413021109e+00
9.950058501539997824e-01,-3.090084452899716748e-03,-9.792891952386016285e+00
1.003262216510769411e+00,-8.988580480274429088e-03,-9.787580949418927645e+00
1.008991814390248543e+00,-5.566415633067957336e-03,-9.796242104349623503e+00
1.002354426213444727e+00,-3.296233307055246656e-03,-9.799883738864009430e+00
1.002086206884950981e+00,1.060039866109036954e-03,-9.796521299436365737e+00
9.936474647889335099e-01,2.136254297745506393e-03,-9.798548623648406064e+00
1.003566660837442281e+00,5.647842414711913008e-05,-9.785878352129566693e+00
9.941200682249821119e-01,2.014924135978490155e-03,-9.794200648727636960e+00
9.990596626275720649e-01,-9.866198964947557257e-03,-9.781451254441746457e+00
9.980554413170660277e-01,1.736106336856754360e-03,-9.799398775810828965e+00
1.001453486358062639e+00,3.870078271700121055e-03,-9.777963884569475184e+00
1.000141751478007546e+00,-1.608845250249046335e-03,-9.791025065482038769e+00
9.998620854898693233e-01,7.247900730774335838e-03,-9.785359527026187720e+00
1.000679073211821590e+00,7.321910929714861571e-03,-9.792337872743290816e+00
9.941884067123951674e-01,-7.307435430407768599e-03,-9.787804555153249098e+00
1.002515127627561453e+00,-4.743176606536848947e-04,-9.806674391674091495e+00
1.001246007095556889e+00,-6.117605191731833453e-03,-9.802031677585636871e+00
1.000899088442685159e+00,4.476250308442707333e-03,-9.800160459172854388e+00
1.001660314107195804e+00,9.976705796687912464e-04,-9.803918446603768544e+00
1.007159687043811092e+00,-9.032273362502427766e-03,-9.777663576264984613e+00
9.976898414521583325e-01,-3.978141470449733999e-03,-9.798793521386231831e+00
9.948426125609558524e-01,5.492716444253339762e-03,-9.790926584848474334e+00
9.989999298873635247e-01,3.026990165093937021e-03,-9.793356562334349036e+00
1.003276318296492109e+00,1.347969770330955568e-03,-9.779584441056924149e+00
1.012821223771490198e+00,-4.201510114271011370e-03,-9.796792054110035508e+00
1.002072901227885948e+00,2.133489301154578837e-03,-9.803095991682592825e+00
9.943742312836173491e-01,4.129401150468188682e-03,-9.793480427959348589e+00
9.959323653126492815e-01,-4.492237153635540541e-03,-9.781805196495055199e+00
9.946966597642641350e-01,8.754455594252311817e-03,-9.799826664674199606e+00
1.003199614540092988e+00,-3.088208429706567042e-03,-9.801390821235539619e+00
9.984386345632191295e-01,-6.725128627423471173e-03,-9.801942578472136347e+00
1.001145857032256892e+00,-5.237614506261546385e-04,-9.799196239699694999e+00
9.999906649842033035e-01,1.497106188110710440e-04,-9.790743184161136980e+00
1.004316820903991214e+00,1.069505834064268454e-02,-9.813415786802778484e+00
1.000501570792242223e+00,4.773296375872975762e-03,-9.794679740381740274e+00
1.004550502671544221e+00,3.246427533001128990e-03,-9.803108616289371469e+00
1.007025838891683067e+00,5.182557037148316503e-03,-9.783639720710477050e+00
9.931689125067544310e-01,-2.882722833593448497e-03,-9.791070338719039867e+00
9.956109580470804410e-01,2.237177794175092792e-03,-9.781171844479356281e+00
1.004570658747682366e+00,-5.940923439137253334e-03,-9.804893337219855454e+00
9.957937162736335557e-01,-4.184143396595616134e-03,-9.789788951862494315e+00
9.936679839723828733e-01,-3.565859499330721084e-03,-9.798386695111176437e+00
1.002677567990576390e+00,-3.529489431909194411e-03,-9.784264549149419565e+00
9.971515308554927959e-01,2.985811639473426576e-03,-9.786324998948501275e+00
9.917904622302765594e-01,3.833746159341322110e-03,-9.789238774252510211e+00
9.958380994729736368e-01,-5.993050842989708187e-03,-9.796182918116917548e+00
1.001474348628552891e+00,4.712879898160008720e-03,-9.778532369256350165e+00
9.998148345016989458e-01,-9.951401163668213007e-03,-9.787393944259438427e+00
9.927676081293699273e-01,-1.578811110875661143e-03,-9.802773817194408323e+00
1.000351068074140093e+00,5.181054232385125941e-03,-9.793273732441084789e+00
1.008679922934735185e+00,9.478399734107644664e-03,-9.800228422525352201e+00
1.000105456838654261e+00,1.597625092348723590e-03,-9.786405936366870506e+00
1.001778996271845301e+00,-1.615450746146417267e-03,-9.814178520138066020e+00
1.000523099078737488e+00,3.439262531527717895e-03,-9.800046178499105309e+00
9.955779044104953179e-01,-2.822026023696128441e-03,-9.790710478128982430e+00
9.973136370429952491e-01,1.649703780805138837e-03,-9.805906418553265169e+00
9.980836557705121681e-01,2.731526264619242063e-03,-9.794400598134522795e+00
9.973453117640479482e-01,3.234566722181056301e-04,-9.783246565080215618e+00
1.000933212124208271e+00,-5.489949416528844446e-03,-9.796031042185111559e+00
9.917648749685747944e-01,-2.972637137005387266e-03,-9.791774663692663694e+00
1.004831603667406981e+00,3.542478484619248757e-03,-9.782479540813477925e+00
9.940259582905709435e-01,-8.562476514387807160e-04,-9.805360372724578610e+00
9.964151444810264158e-01,6.087610074853471755e-03,-9.801455303787721007e+00
1.007272578215063774e+00,-5.215274685077723495e-03,-9.801441407543464379e+00
1.008135518472724534e+00,3.081640952140347976e-03,-9.798529144211926223e+00
9.922594078867253975e-01,3.376676186557493308e-03,-9.794484419745806747e+00
1.007943618981208322e+00,-1.671391854763317787e-03,-9.790761646250761174e+00
1.000278172766784213e+00,-1.326232925264499152e-02,-9.792715180521618379e+00
9.956281123422052737e-01,3.649531063558568694e-03,-9.793995732905953489e+00
1.003664685272357415e+00,-1.282098216104619187e-03,-9.787154010595845222e+00
1.001985077745652486e+00,2.448581541150723646e-03,-9.797745893301350151e+00
9.896480235387125068e-01,-4.272523752960239590e-03,-9.802291013344719417e+00
9.949209676242354305e-01,-2.422788184145301810e-03,-9.805545838847345763e+00
1.000820475271257060e+00,1.330045730779215972e-02,-9.794766599929246809e+00
9.960244267000386564e-01,-7.847284515555599457e-03,-9.795027695860897055e+00
1.001544431531443013e+00,4.081716943245358329e-04,-9.796529897098102069e+00
1.000803760147750854e+00,8.058468086592688803e-03,-9.805305416117018780e+00
9.898277221330280540e-01,-7.947973121206699729e-03,-9.790989968700493762e+00
9.977660536907518862e-01,5.869972488691122502e-03,-9.792321279776345477e+00
9.923466045656874623e-01,2.220325164280781676e-03,-9.786639874805517891e+00
1.001437086346094185e+00,6.606659593009892029e-03,-9.802373578788341035e+00
9.991185863211901053e-01,3.533969897073364463e-03,-9.795667081382289254e+00
1.005454178455656100e+00,1.247692182435753468e-03,-9.787767438712306145e+00
1.000154329089547378e+00,1.918716005000690615e-03,-9.781195813845600995e+00
1.009941908810510824e+00,-7.103565935830018566e-03,-9.796334662346426470e+00
1.001437044142896582e+00,1.760821800376760832e-03,-9.782114841345743272e+00
9.852059035689769706e-01,-6.259175688564830656e-03,-9.778661152116722377e+00
1.000795720711614933e+00,-1.950882022840480946e-03,-9.798173250213983110e+00
9.934654898336583440e-01,1.082493666603616400e-03,-9.802258772463069647e+00
1.006355013089232475e+00,-2.842459101297149793e-03,-9.793826754826760350e+00
1.000226487073284876e+00,7.967046426922867047e-03,-9.793324164296592471e+00
9.962236802754809162e-01,3.483953624938591464e-03,-9.790547114200702339e+00
9.937074566787862384e-01,8.905944636919497018e-03,-9.803982781206306285e+00
1.001665756459542145e+00,-5.647601703388622878e-03,-9.784303275909737252e+00
9.935725777719323082e-01,-5.013010852591124472e-03,-9.800298712990450412e+00
9.980437034916527228e-01,1.280798356083451099e-02,-9.778876576627130390e+00
9.998010823990632900e-01,9.974253574588363199e-04,-9.780817964926457719e+00
1.003534941512087775e+00,-4.029065859695823287e-03,-9.792990266435966262e+00
1.000628220182866901e+00,1.047165616252134467e-03,-9.778396184460422802e+00
9.942459693440405255e-01,1.261332571676958628e-02,-9.801950272534003972e+00
9.968549791352130374e-01,1.207328341208544452e-02,-9.783442643676261596e+00
1.004817635059075842e+00,-3.615989351483727982e-03,-9.804891293206237535e+00
1.010940447908240225e+00,8.466038677100854500e-04,-9.816252132676767772e+00
9.995476395315273654e-01,-4.511872815026041553e-03,-9.792458847776595476e+00
1.006910543015290926e+00,-2.340830269838222420e-03,-9.791386898974314690e+00
1.005941302363230205e+00,-1.526007696170699661e-03,-9.802110975708067997e+00
9.888371263598139116e-01,1.064625719859712931e-02,-9.790127898671256546e+00
1.001864842306063874e+00,7.741361534107185985e-03,-9.785591026568047468e+00
1.000602680071454254e+00,-4.871150782850461845e-03,-9.802012858688243568e+00
9.923507626990554220e-01,-1.188765603308922832e-03,-9.797080154926856466e+00
1.009043828395592257e+00,1.657502398840651411e-03,-9.800180716674555370e+00
1.009808327883385148e+00,3.625977738007565496e-03,-9.792051683751900271e+00
1.002730494578818909e+00,8.039211734721518751e-04,-9.789752349052317726e+00
9.990059637187680419e-01,3.333386208392052994e-03,-9.788885881326201854e+00
1.006828595983441765e+00,-3.294008073217702479e-03,-9.800439346645118732e+00
1.000045601550481722e+00,-9.828343733632913769e-04,-9.793542611305154466e+00
9.934217005643705134e-01,2.418922555241030670e-03,-9.804455866590780388e+00
9.995080668241022037e-01,-7.692165490750546043e-04,-9.798458023422496055e+00
1.008989330698023323e+00,1.110152548122365955e-03,-9.786770287785955702e+00
1.010037748436119820e+00,-2.225700138495377654e-03,-9.787039081786256034e+00
9.965210587665144226e-01,-5.520915469464281189e-03,-9.778342220541231811e+00
9.887524991146644515e-01,1.421703692970700426e-03,-9.798266189535622672e+00
1.007397493497685259e+00,-8.159182342321566125e-03,-9.786177930964660376e+00
9.999109316809378090e-01,-5.099299233853128548e-03,-9.806437118162676825e+00
9.945592869405719405e-01,4.936146501610611317e-03,-9.791878704206077089e+00
1.007007203529485473e+00,-3.802748333803319079e-03,-9.815813792113845082e+00
1.002502412443809776e+00,3.544179629148346434e-03,-9.779949401027106859e+00
9.975333396130834362e-01,3.919942127291130805e-03,-9.797164359324153082e+00
1.004284172451916479e+00,4.457411174501302829e-03,-9.786895853257639999e+00
9.937693444217816641e-01,-2.576457286794617014e-03,-9.785819070028480837e+00
9.938768470541856637e-01,4.181167429447226434e-03,-9.776326761118625086e+00
9.909942165052528784e-01,5.239784827563583568e-03,-9.792929206590095248e+00
1.008060572855410619e+00,2.418777115541310453e-03,-9.800599790429624036e+00
9.868503366891794304e-01,6.776614264211077744e-03,-9.788690650638056212e+00
1.004269347771783671e+00,7.855585721056179823e-04,-9.796895926730600834e+00
9.957648831212482232e-01,4.036144999674502547e-04,-9.787935855906988891e+00
1.005802166386361218e+00,-4.021963857743846688e-04,-9.798401347085672342e+00
1.000235858778453002e+00,-7.736728019981735024e-03,-9.786735988120780050e+00
1.005379869209865662e+00,-3.425235736068736343e-03,-9.783291059328739436e+00
1.002382764485430622e+00,5.969433445277782212e-03,-9.800610624807628568e+00
1.005034210020635532e+00,7.930100810180034862e-03,-9.773051154865896706e+00
9.978275532306269957e-01,-1.982130845300589424e-03,-9.795029805297920333e+00
9.956768697378494126e-01,-1.125414402766845411e-03,-9.791554097510678289e+00
1.004609322835748886e+00,3.452243985194449697e-03,-9.791223825454455465e+00
1.005467963614250726e+00,3.908390658217316023e-03,-9.791430923510775486e+00
1.003999918516912393e+00,1.025363394749926162e-03,-9.791413097014432410e+00
1.003267261713982617e+00,-2.818425343672051374e-04,-9.791015336615524589e+00
9.975454778721062343e-01,-8.008042448503147753e-03,-9.799780531610094769e+00
9.985572669834473780e-01,-1.003441541910639508e-02,-9.786332263130958609e+00
1.000558196674772082e+00,-3.661924884945285882e-03,-9.790547268761272903e+00
1.000908582272069580e+00,2.594182387677541543e-03,-9.793489152035988354e+00
1.005800114474053597e+00,1.588390901741277964e-04,-9.796981092437853533e+00
9.979694302071213663e-01,6.122753533312015953e-03,-9.797848512847687985e+00
1.006520031086291178e+00,9.803594965228245098e-03,-9.801617507379479122e+00
9.940825133352829690e-01,1.271785655871572650e-03,-9.793218301798940928e+00
1.008380499233916039e+00,-1.810647220855868831e-03,-9.793202469919718212e+00
1.003294201661523388e+00,5.052717693378973134e-03,-9.792404540715711647e+00
1.004199870405855011e+00,-2.620640519883319156e-03,-9.776850075778352078e+00
9.983783103365082567e-01,-4.701906302317326175e-03,-9.806607141416888496e+00
1.000261871702051719e+00,1.023514826347435899e-03,-9.786144093161617263e+00
9.942746941578221032e-01,9.019289215421328124e-03,-9.793055129312941531e+00
9.958654705076790403e-01,1.159826818625640235e-03,-9.800481309834689014e+00
9.913766417340613701e-01,-4.676939891113871244e-04,-9.797638644734792734e+00
1.005243848141786689e+00,9.968577791043785330e-03,-9.781849058784192863e+00
1.012360024664713087e+00,-5.110091581811541418e-03,-9.793838223291743361e+00
1.003756175225202885e+00,-2.871412460892482977e-04,-9.804290870925948198e+00
9.985361504616140360e-01,8.918064362874637092e-04,-9.791902137105775950e+00
9.920835935064300504e-01,5.249569110426995609e-03,-9.790763364034480887e+00
1.001402035780764699e+00,-7.398644613546495954e-03,-9.798020148417657893e+00
1.007180066586418787e+00,6.903432270774030079e-03,-9.799571804866207714e+00
1.007008166805454463e+00,-1.943323540497615904e-03,-9.793111857139587428e+00
1.001562440896461847e+00,1.622747843003024713e-03,-9.797873355144695040e+00
9.989545003273763157e-01,-1.306439356688227083e-03,-9.802219328117425690e+00
1.004112574233450683e+00,2.353943162998569771e-03,-9.801607593935724339e+00
9.950479804159836350e-01,-4.245579249220758807e-03,-9.793231289733823175e+00
1.000664991093010769e+00,5.399745443650938101e-03,-9.807423164331167342e+00
9.977447715823390961e-01,-4.654741956780469522e-03,-9.800432300857496060e+00
1.002504410987627326e+00,7.717108503204668339e-03,-9.802042914462926859e+00
9.915492085740787997e-01,2.742461704257817719e-03,-9.790429657543771924e+00
1.002792370939254551e+00,5.614649581753433823e-03,-9.804369601512998855e+00
9.940428919260677620e-01,-2.673922333670105018e-03,-9.807050790775226901e+00
9.993600196787236767e-01,2.855791991757270810e-03,-9.795623606924790394e+00
9.898896801635770348e-01,4.018436602505491909e-03,-9.769681138970536693e+00
1.002437579588155936e+00,2.548849049501339392e-03,-9.783061928815511621e+00
9.970913085810751975e-01,1.932767026950825417e-03,-9.801278350141519269e+00
9.988752260269189165e-01,2.186511798063363581e-03,-9.798777132403532875e+00
9.981439359079362639e-01,-4.528772980565941297e-03,-9.783369267415773507e+00
9.972021152309178404e-01,4.607549989501074673e-03,-9.809956420808457978e+00
9.989572833252582384e-01,1.551688158954968397e-03,-9.789310832549652730e+00
1.001705142918838387e+00,9.552813040954680895e-03,-9.784130564495672644e+00
9.952406840380602082e-01,-9.980473166478784439e-04,-9.798925892248371738e+00
1.001125004795408779e+00,-5.027762995289932792e-03,-9.780954095737850906e+00
1.007051766821146277e+00,-1.212746780000506465e-03,-9.806885101097407187e+00
1.010225124802972108e+00,-7.287935409470607320e-03,-9.822224760091343043e+00
1.002645854330687758e+00,7.199819991364805015e-03,-9.812285317094380233e+00
1.005943524529744115e+00,5.766061405041863173e-03,-9.794483572427786555e+00
9.929328433928685804e-01,2.043989457079808860e-03,-9.793999666875297549e+00
1.009142997427111110e+00,-7.003397235429165710e-04,-9.806524477505879744e+00
9.976002788645970121e-01,-1.524941464133342363e-04,-9.795104530079886018e+00
1.001971559469841733e+00,4.100388881220874866e-03,-9.790040963297343524e+00
1.003499598214186994e+00,-6.330802977669395919e-03,-9.782218894330139136e+00
9.951512378124605096e-01,-4.683504204657992602e-03,-9.789059435938749942e+00
1.003179946617243967e+00,-1.978840179749764491e-03,-9.801431217807287766e+00
9.972119030302744047e-01,3.541024745423901245e-03,-9.799129422654443644e+00
1.005402504612151082e+00,-2.242988289580136359e-03,-9.795220754588749301e+00
1.004594471707422443e+00,5.619084566476082072e-03,-9.788522795928606968e+00
1.003595974709298178e+00,1.584511991416453092e-03,-9.797303413830212193e+00
1.002608361001015025e+00,-2.508788035882299379e-03,-9.792559196005537814e+00
9.969248118350358956e-01,1.470761748490855567e-03,-9.786302339693957464e+00
9.916461121144809487e-01,-8.772352784588319198e-04,-9.806098416483566282e+00
9.941573159673540161e-01,6.479368506207289734e-03,-9.803031319683906730e+00
1.006061183900384348e+00,-5.437093480556127491e-03,-9.790908688661225767e+00
1.004102676688702456e+00,5.380700285001021460e-03,-9.801786500986708006e+00
1.000446846274022139e+00,-2.210451998006710689e-03,-9.795026552606749704e+00
9.995466768905225674e-01,4.896318152803712373e-04,-9.799359150364882254e+00
1.005357473268893020e+00,-2.797664117630597157e-03,-9.785510599597541770e+00
1.004135286633734525e+00,-3.639799144791248421e-03,-9.798181746151678695e+00
9.943689576009734354e-01,-7.846477681998679024e-03,-9.795090116040876538e+00
1.004250058660267841e+00,6.131425402692844591e-03,-9.798673133598033047e+00
1.000095399492126447e+00,6.958730108094187024e-03,-9.793138284914567393e+00
9.993605686636344299e-01,6.776365937490512427e-04,-9.805569745867877884e+00
9.921801231599448601e-01,-1.440749750321303896e-02,-9.786630769708803967e+00
9.891068509687216403e-01,-1.028485199760588269e-03,-9.799968790023948273e+00
1.006701218172456391e+00,2.944635742057558764e-03,-9.789333361421137525e+00
9.949682455745807452e-01,-5.909206304032274364e-03,-9.800407900618322898e+00
1.004471338485730891e+00,1.776479997869800541e-03,-9.796539785852957039e+00
1.003150498456347739e+00,5.562090881123716093e-03,-9.787065639651883586e+00
1.003163127654313813e+00,5.746276547034206809e-03,-9.807094910618362249e+00
9.945507108125483109e-01,3.481577491290942412e-03,-9.790579330922653867e+00
9.985465103851580704e-01,9.040203972518288250e-03,-9.795128215201163613e+00
1.001206266149381685e+00,7.716426168280276186e-03,-9.792617882750294100e+00
9.975350474892369368e-01,3.658085116074002888e-04,-9.787448357291253842e+00
1.010104261632883471e+00,-1.059311777556256988e-02,-9.781834318899750969e+00
9.950725950470594716e-01,-7.397882452855085618e-03,-9.786341844696751835e+00
9.970439462828271093e-01,2.294842621110720644e-03,-9.784373040433253621e+00
9.999416168297755592e-01,-8.935327145484991962e-03,-9.793093892940751388e+00
9.977328289628470959e-01,-7.404571499469897282e-03,-9.811979881119968994e+00
9.959737606055586445e-01,-2.711760416991199941e-03,-9.813306310968142654e+00
9.922113117423778661e-01,4.104564637287520280e-03,-9.800304784745966558e+00
1.002737881425749267e+00,-8.308591334186645957e-03,-9.788142736269643152e+00
9.972578655466994846e-01,-9.979640989616315669e-03,-9.801129681848895103e+00
1.001023189890508647e+00,7.000711063983778085e-03,-9.790713709866734504e+00
9.941343987269558591e-01,6.741365904747839179e-03,-9.795303303790285909e+00
1.001147495131237353e+00,-4.448338500888357298e-03,-9.797783369875949333e+00
9.921305054243505506e-01,4.509053085265981621e-03,-9.789586716732909366e+00
1.001813473007938438e+00,-2.285608009133399936e-03,-9.791176491739118859e+00
1.004001398719245541e+00,3.662372610944395444e-03,-9.786556921631744288e+00
9.975968049456562792e-01,-6.545685921664331532e-03,-9.794626373742934433e+00
1.002534732920304483e+00,3.532039717639534008e-03,-9.790611963101016002e+00
1.000223421381862599e+00,-2.033113917436046858e-03,-9.798039849914481181e+00
9.983309317930302296e-01,1.724307639348373949e-03,-9.794699006706370170e+00
1.006357257474806310e+00,1.285969063553032499e-03,-9.799979602136719592e+00
9.927391842784777376e-01,5.251401026449383641e-03,-9.793712818798983477e+00
1.005561022208478983e+00,5.751816868001249309e-04,-9.801914183419638604e+00
1.000497404176421856e+00,4.540597094382673067e-03,-9.811570710536535955e+00
9.934487126924206324e-01,9.581826372145423303e-04,-9.807556343937127608e+00
1.000775999697781860e+00,4.693495083648369266e-03,-9.788979071559367640e+00
9.913952878799341395e-01,8.092791864232320911e-04,-9.777702504749839818e+00
9.937122283764291408e-01,3.986711059283477854e-03,-9.768141713301840667e+00
1.000556255819840645e+00,3.036889125825858494e-03,-9.804604498860955530e+00
1.004061250630857716e+00,-2.953152444451978488e-04,-9.787821198144897039e+00
9.960660492620478923e-01,1.630670925986303123e-03,-9.800598164490629927e+00
9.984673616690951103e-01,-1.191931019551060013e-03,-9.777563769657724890e+00
1.004126374130182242e+00,-6.859859593063470130e-03,-9.787799811902779368e+00
9.977128042677477771e-01,-3.015594155337664520e-03,-9.801753412416884359e+00
1.001147401509538071e+00,-3.758693153789698874e-03,-9.800237215362251675e+00
9.945576401053487503e-01,-3.685598239055053963e-03,-9.797420739378022603e+00
9.991995815834138206e-01,-4.294722663801145510e-04,-9.798021434442128808e+00
1.001307204735289558e+00,-3.265393177699324120e-03,-9.784463816589962448e+00
9.946807753423311249e-01,-4.414151746501782970e-03,-9.776758465857518843e+00
1.002434246627331049e+00,-3.107250303531382523e-03,-9.794932695438308912e+00
9.999691407414532662e-01,1.894927311226461729e-03,-9.794092632998188108e+00
1.009706950945456594e+00,-1.899522098879823659e-03,-9.789395038149564243e+00
1.011074359045286641e+00,-2.549663706578541959e-03,-9.800672009443060162e+00
1.001083504125449997e+00,4.391586533399295493e-03,-9.772861118597855778e+00
9.998259599046231960e-01,-4.918435080279745172e-03,-9.805027167207292393e+00
1.000066293031446563e+00,3.141867616108433379e-03,-9.800439945129635788e+00
9.935472470396783384e-01,-3.932290249032436777e-04,-9.797906688860079427e+00
1.001737078505167577e+00,-2.408939613055324086e-03,-9.796362644877001813e+00
1.001423140286920477e+00,1.186559750239664455e-03,-9.781525995171485022e+00
9.987532488853757551e-01,4.219649164727753803e-03,-9.801804445922433828e+00
9.982243261259554634e-01,-9.111633826446535397e-03,-9.811045375213684139e+00
1.012053146230227352e+00,-1.772801517252984215e-03,-9.791345856907174294e+00
9.947516374920167825e-01,7.462128002581515894e-03,-9.794870638781857153e+00
9.932433651344806380e-01,3.404814434636281757e-03,-9.793656342836557727e+00
1.006404097953143673e+00,3.107389266226328207e-03,-9.796978589135749260e+00
1.003255813744999170e+00,-4.031372101378122123e-03,-9.795455396977889251e+00
9.982461017893794475e-01,1.806360876790971117e-03,-9.797412500831086390e+00
9.881802197863336357e-01,2.856213837856438442e-04,-9.806493058199269086e+00
9.987598470219302138e-01,6.300145979279340828e-04,-9.801221329364592449e+00
1.002649707520004263e+00,1.184942983668194234e-03,-9.809497075399976396e+00
1.002428246358174180e+00,1.308350429908436766e-04,-9.790226152199778653e+00
1.000631690284220721e+00,2.166237026045695659e-03,-9.795041605667115903e+00
9.956941115491928507e-01,-1.752526557839638758e-03,-9.797244056988578365e+00
9.947025368460870043e-01,2.105776029029720264e-04,-9.795510578294262416e+00
1.002857839537603768e+00,2.992542704789795480e-03,-9.795441477880615366e+00
9.926495952444027715e-01,1.794692085977960070e-03,-9.783340319370863014e+00
1.001251499021879710e+00,6.356290158785397708e-03,-9.805948164007750378e+00
1.000468018801151882e+00,3.064531677557137245e-03,-9.774299637220755343e+00
9.959691779466458561e-01,-2.094696336553464842e-03,-9.796364151862521297e+00
9.964260682544071601e-01,1.731521215428455732e-02,-9.791780921898933343e+00
1.004027765461249500e+00,-5.506113192119022927e-03,-9.803861259526170713e+00
1.000184167072155628e+00,-2.265051258918652707e-03,-9.790370537682616003e+00
1.000929809163914719e+00,-2.071030139523285466e-03,-9.790482352239296304e+00
1.012618380478765623e+00,4.609246836027492897e-03,-9.795537579246278881e+00
1.002653034816508582e+00,1.037164446900420457e-03,-9.790982735449119900e+00
1.000441971016049258e+00,7.161851343902787869e-04,-9.795445478330215394e+00
9.938545275499687248e-01,1.200536964179750241e-02,-9.782758064480065130e+00
1.005796336277047232e+00,2.877367377153335938e-03,-9.785877330214656666e+00
1.000561330886313938e+00,-1.002405567151577401e-02,-9.803272709882639546e+00
9.970664037095969823e-01,1.050510203851631481e-03,-9.796883153891565499e+00
1.003526430149715543e+00,-3.587527264102606615e-03,-9.795092874484765844e+00
9.928471793934368073e-01,-2.251900632768537584e-04,-9.775870615075001879e+00
1.001711705110597705e+00,1.711062418753747346e-03,-9.787762840425301647e+00
9.939164042081937156e-01,-2.203939091470129893e-03,-9.783006084777532863e+00
1.004185996159396854e+00,-4.905319161411693038e-03,-9.800030202406253110e+00
9.971944259154247314e-01,-6.809986197285635388e-04,-9.792474442212343533e+00
1.003439682750501216e+00,-1.355270634693991807e-03,-9.789316432268977408e+00
9.994353751302059718e-01,-6.309930205516439856e-04,-9.791049599457403829e+00
1.013416526444820498e+00,5.726607435135566346e-03,-9.803660916468707853e+00
9.993579490689074030e-01,5.235905048598330121e-03,-9.780116687510528095e+00
9.953437773279567580e-01,-6.791222402719228161e-03,-9.790901730220905819e+00
1.008661737946439985e+00,3.219257681119631290e-03,-9.787954791054982451e+00
9.972108046215657495e-01,-6.807781534921051626e-03,-9.786676940566993110e+00
9.979458399716866213e-01,-6.757337485933193402e-03,-9.797427316567802080e+00
9.983075656041197066e-01,1.703602197649269154e-03,-9.797611864166885454e+00
9.954294397555062401e-01,-1.123388623865967904e-03,-9.791344232636019385e+00
9.947616981128103442e-01,4.070296725031076999e-03,-9.788080580579968881e+00
1.002450481273327698e+00,2.403115834876861159e-03,-9.794738188277291258e+00
1.004594239123372423e+00,-6.688910364535548183e-04,-9.804593534341890404e+00
9.971694797630357154e-01,2.662423157853741496e-03,-9.809851495794278620e+00
9.975390835274347001e-01,-4.829908724268528776e-03,-9.813905784437480406e+00
1.001252478558038783e+00,8.845290378627534283e-03,-9.784669626586795843e+00
9.984007790477457123e-01,-2.115989668175631555e-03,-9.796234500701473280e+00
1.009644388558189831e+00,-1.813344227210748633e-03,-9.787543091293606778e+00
1.000867310470500371e+00,-4.735124710857729728e-03,-9.805873027061650760e+00
1.003781924920647439e+00,-2.489501857263458871e-03,-9.792760964527822409e+00
9.948933599115959980e-01,2.321341126275017121e-03,-9.774674902729682202e+00
1.000931292568290942e+00,8.085628663643451911e-03,-9.795362912113775522e+00
1.003997056361883189e+00,-1.633845935942416323e-03,-9.798139357062783716e+00
9.996347172595876351e-01,4.086473130918959890e-03,-9.791445651707661568e+00
1.000208272433214418e+00,-3.436829905172391654e-03,-9.797942471609195181e+00
9.985299893788879277e-01,1.664816047968386485e-04,-9.783962989905745644e+00
9.969355110303844691e-01,-2.237837367896354773e-03,-9.783618496866326453e+00
9.908435810523398279e-01,-1.974061816389418352e-03,-9.798837273755832911e+00
9.999679208886164128e-01,1.037464752712712567e-03,-9.812754348161753626e+00
1.005189057713170575e+00,5.691803886676050778e-03,-9.788517438019029626e+00
9.972948249932205300e-01,2.980650850951110844e-03,-9.787308807665425547e+00
1.001062250769466866e+00,4.774278920431918906e-03,-9.802498017998185986e+00
9.988202822251730506e-01,-1.215245966467719263e-02,-9.787521076736325654e+00
1.002608707966328616e+00,-4.043491511603766048e-03,-9.798269416597571890e+00
1.000147287561641063e+00,-9.130912210879256474e-03,-9.816197955460040703e+00
1.004163005689856059e+00,-6.573225464272877336e-03,-9.793614149892233556e+00
9.960476331386796112e-01,-8.860780794827724863e-03,-9.800690644641473881e+00
1.007451773027833841e+00,-9.783312854311240845e-04,-9.789361519054986971e+00
9.971238384669698362e-01,1.446867116333709928e-03,-9.787690413610828699e+00
1.007265381859337339e+00,3.468532207521786946e-03,-9.780284062986936533e+00
9.983372153325752452e-01,2.780574320083246866e-03,-9.806749878610608206e+00
9.984153494390834993e-01,5.738918432452597357e-04,-9.802055840686268340e+00
9.981792951823273974e-01,1.611523039012747582e-03,-9.808693931339373506e+00
9.958814728713369924e-01,3.430151938176993520e-05,-9.792964689320074356e+00
9.991328695764221113e-01,-1.974147452196942099e-03,-9.791201935617889873e+00
9.987161905524377659e-01,-7.547093393536230023e-03,-9.802442722203981162e+00
1.004296271682799002e+00,-3.436253409411986742e-03,-9.778345918290003880e+00
1.005133632005378308e+00,6.296035324465629234e-04,-9.803168965080059749e+00
1.002668186953904694e+00,-1.404252267134674338e-03,-9.790907674704174113e+00
1.005442720246896071e+00,1.232921537407943987e-03,-9.801101485108940636e+00
1.007508890436388915e+00,-8.167522018434989622e-03,-9.782540117533590873e+00
1.000339069531306579e+00,1.167672290002642150e-03,-9.783089616020207657e+00
9.873183625653273454e-01,-9.375825045919097692e-04,-9.798472082914088332e+00
9.946701228205594436e-01,1.515498589179729415e-03,-9.792889641995454753e+00
1.002423111774533027e+00,7.181841395915529100e-03,-9.790912388444640513e+00
1.003808412520021509e+00,-5.197687383500134957e-04,-9.776521975170673784e+00
1.006324421105710298e+00,6.244874605776995491e-03,-9.801475625995847096e+00
1.008572055284010949e+00,1.040451432919793119e-02,-9.796222575453590764e+00
9.965803916709460308e-01,-8.036550964849663650e-03,-9.796795893448303261e+00
9.974971425203059683e-01,-8.837461658401400688e-03,-9.799027169882878141e+00
9.969172825383347813e-01,-5.513286292759463509e-05,-9.791723109106113654e+00
9.959522057336783751e-01,4.349489823202292251e-04,-9.781218602597087752e+00
1.004353817071445221e+00,-5.642412867330683264e-03,-9.797938863188798919e+00
9.991176139686820390e-01,2.343731683340845653e-03,-9.800780506317215313e+00
9.928658382672836957e-01,1.347562443264167407e-03,-9.802348530381646441e+00
1.003583598922451303e+00,2.490294152739944492e-03,-9.795177061637369675e+00
9.967086794964296059e-01,-3.687224987103041897e-03,-9.799073769864735439e+00
9.990235122810544599e-01,2.811437610037064230e-03,-9.785754292952049127e+00
1.002192084895231261e+00,-7.739819407640514438e-03,-9.800745281630927508e+00
1.004376256344577056e+00,-1.090542690523845252e-03,-9.807637799886474994e+00
9.982374614483130459e-01,-7.695805025735247490e-04,-9.798897407362655798e+00
9.996164518506089891e-01,-4.757415388438653719e-03,-9.800450143033238248e+00
9.978392258312885899e-01,1.351003485474056021e-02,-9.795406244910227045e+00
1.002713004793738483e+00,-3.617186963804150737e-03,-9.790840076864526509e+00
9.951865678873372811e-01,-1.777428271176992054e-03,-9.796073027162496061e+00
1.002885230774426706e+00,-3.495492294227461189e-03,-9.786461548105620523e+00
1.005042690215383505e+00,-6.937850219745586924e-03,-9.797832630229038386e+00
1.005456297065570936e+00,-3.404670727715255509e-03,-9.803880653704071690e+00
9.988241264393962204e-01,5.568301720124398807e-03,-9.806371444403097826e+00
9.920589223546240065e-01,-6.276055493900574737e-04,-9.787893025583480622e+00
1.001314793937655434e+00,-1.145784528648710696e-03,-9.790985301777253014e+00
9.948177860852283061e-01,-3.354650286302945580e-03,-9.805121308163208482e+00
1.006508709793414003e+00,4.146024304853689925e-03,-9.789515303827855064e+00
9.974746984780056280e-01,-3.876969398598602767e-04,-9.792601982366090141e+00
9.931207097487192437e-01,3.217672821455628109e-04,-9.800203182818037817e+00
9.986135441089106779e-01,3.876578062042444848e-03,-9.774282680828839887e+00
1.002407790820373901e+00,9.593663924901461404e-05,-9.785182351077786223e+00
1.001553366681146473e+00,-1.351136575445816392e-03,-9.794247233241556216e+00
1.004563699636160434e+00,5.119056526088872419e-03,-9.793572724846340449e+00
1.002617491673373440e+00,-1.235679042869560710e-03,-9.808101327159935323e+00
1.005122508848605545e+00,7.102020028256067746e-04,-9.818228439579240074e+00
1.006187499358982773e+00,3.343693899516048031e-03,-9.792531546636876527e+00
1.007145252582848149e+00,1.752538897659469208e-03,-9.791207993648852081e+00
1.006508000512676304e+00,-4.931233676175128186e-03,-9.794016077524119623e+00
9.978895436574800604e-01,7.759740173994476159e-03,-9.798752760457283273e+00
9.982909634396408549e-01,-4.143923314180157462e-03,-9.798935179488177383e+00
1.000270860914912463e+00,-6.463316999643443743e-03,-9.783735652984491438e+00
9.990728256731331580e-01,1.231831164894452114e-03,-9.792603115980050177e+00
9.964891482991301563e-01,2.425364001807791062e-03,-9.789039738791926126e+00
1.006580386415430350e+00,-3.638546004814884050e-03,-9.800388303467052253e+00
9.984255880073225065e-01,8.302969247039920092e-03,-9.803526688728462446e+00
1.004104303353771988e+00,1.549182443101961449e-03,-9.777344518901868398e+00
1.010287944049983677e+00,-7.232878536869173126e-03,-9.797792969459038659e+00
9.987874554111951797e-01,-3.769915707496900460e-03,-9.790603419832500265e+00
1.014212391230801424e+00,-2.780453494667570365e-03,-9.795907380109397877e+00
9.984120507580908077e-01,-6.582919788941750047e-04,-9.797604595643631953e+00
1.006089544451794993e+00,2.237446664399974413e-03,-9.793445368005556873e+00
1.000172314722932221e+00,-8.939592120453456348e-04,-9.788737900649055135e+00
1.000968804273146162e+00,5.026942177668978877e-03,-9.785921269589296756e+00
1.002911232700977040e+00,5.584375189065590370e-03,-9.789131038394632611e+00
9.980318201129748656e-01,7.714223368652999924e-04,-9.800720181812666354e+00
9.976161790641837612e-01,-7.305826940143604099e-03,-9.793467437506988560e+00
9.942699303129779453e-01,1.252188023859844438e-03,-9.803576650032702844e+00
9.975457150946644980e-01,2.546387075811137098e-03,-9.794741191998653562e+00
1.002581800442926330e+00,-2.438918991378290647e-03,-9.799508044198667278e+00
1.000904706275807632e+00,1.872453557974842163e-03,-9.802025741077505572e+00
1.000087076843035439e+00,-1.004854378172219355e-03,-9.802019561660458180e+00
1.000684764077506061e+00,-6.722593955826034438e-03,-9.794121444307346991e+00
9.981780233771871957e-01,3.707703454110302006e-03,-9.801342254984602320e+00
9.948357498390644205e-01,-4.943932675010911590e-03,-9.782752076382127626e+00
9.976981869546948101e-01,-4.384432663516243424e-03,-9.803497010078984886e+00
9.995624995470498986e-01,-1.144370403704955989e-03,-9.790382648109927644e+00
9.990662121453433020e-01,3.116742525060124322e-03,-9.794899322335835379e+00
9.998291799343870245e-01,-3.695673103061853770e-03,-9.806494675845568665e+00
9.969669399538996224e-01,-5.974863232518620206e-03,-9.809175509274924210e+00
9.972464753451147912e-01,-1.047817180908005305e-03,-9.776788765563773964e+00
1.008542333117030898e+00,-8.334448941732099797e-03,-9.797650230351377942e+00
1.008568158373872592e+00,-8.031258376676416941e-03,-9.780473777692526127e+00
1.002565534041631956e+00,-4.843676969926232964e-03,-9.792101717932137461e+00
9.919781921438394212e-01,-5.742781537447025006e-03,-9.783673641441469115e+00
9.991156812293582323e-01,2.110772615878087587e-03,-9.808430325219491763e+00
1.004580245046513109e+00,-1.302554969465316331e-04,-9.795702869567467275e+00
1.002693624128851768e+00,-9.731245478466621704e-03,-9.797434454211222388e+00
1.000221535051089239e+00,2.560779284694718761e-03,-9.792312303295481968e+00
9.926692140977202428e-01,-7.447681574829701466e-03,-9.791064495906582010e+00
9.914074778473559446e-01,1.032396550990853949e-03,-9.789152066681843678e+00
9.969011928506958942e-01,9.855886372705387720e-04,-9.803301827941858448e+00
9.987037169145999149e-01,3.223930295380732745e-03,-9.803074683771470177e+00
9.994452524608695709e-01,2.179616964801816235e-03,-9.787913597375331065e+00
9.993374019430190103e-01,-1.902626319383958877e-03,-9.794341274911444017e+00
1.005458993575799820e+00,-3.377076473636375902e-03,-9.788790082912031565e+00
9.847543029953186311e-01,-3.925368869025462094e-03,-9.794832423440531954e+00
9.938109431047639220e-01,5.009166743693329801e-03,-9.792902104156455678e+00
1.002185705775414437e+00,3.067506040693331743e-03,-9.808359051955042318e+00
1.000621248408438912e+00,3.083362163740467014e-03,-9.807010169608139094e+00
