gyro_x (deg/s),gyro_y (deg/s),gyro_z (deg/s)
3.938355275180584897e-02,-1.908649693572324682e-02,-2.550603357224910488e-03
-7.813588637454017827e-02,1.006658921982346230e-02,1.024131756206068528e-01
-4.452632491573244033e-02,-3.898839146608371747e-02,5.528227663303857814e-02
5.460945900074493792e-02,2.580498845910176448e-02,-9.012034263520288246e-02
-5.037674335756037181e-02,-2.234261024233295465e-02,6.620382166148497394e-02
-3.728176477936941124e-02,6.043990523474936094e-02,1.533885992661439962e-02
3.067551595690151678e-02,1.441848406254399653e-02,2.811422889802177999e-02
-3.413349273986217985e-02,3.201864045548820370e-02,8.830429410368310916e-02
-2.169750804867147040e-02,-3.533903059579143052e-02,-5.144754918603525878e-02
-4.876703940711533958e-02,5.107275005701167325e-02,-6.115181835983990281e-03
4.748565982324137562e-03,2.769464539089948329e-02,-2.774925904108380831e-02
-1.300774409179952275e-02,5.094063628462155296e-02,3.467744835962301847e-02
6.907842106878954447e-02,-1.041055805165442064e-02,-2.158322249674032162e-03
4.756068195020660833e-02,-2.088845647423553768e-03,-2.308576315702942985e-02
-9.882521628432691663e-02,4.572798992860657719e-02,-9.702917971765893934e-02
-4.774077909454451686e-03,1.516405729284302402e-02,3.290361715886860189e-02
-5.235804196828001272e-02,-1.661146448264988473e-02,-1.914862153956984128e-02
-1.372606462003482346e-02,-3.360794456008043413e-02,-8.167113042609652068e-03
-3.499762545094524391e-02,-5.368320736698078272e-02,-2.883589059408024624e-02
2.070583791307047811e-02,4.709698813707650922e-02,3.862993048219012099e-02
-2.557587406569974617e-02,-3.126593136622744795e-02,7.564675598043727259e-03
-1.949504658946511412e-02,-7.745188459354680754e-02,2.570512545588928346e-02
5.091338451443239849e-02,3.566834832439694236e-02,2.992707122184509738e-03
1.811370693297795209e-02,2.238533878786798034e-02,7.780818758814816993e-02
3.238147286582368500e-02,-2.481812807987369973e-02,-4.112191213805377332e-02
3.076695123495740841e-02,3.691434468106202099e-02,-5.838271550207887843e-03
-2.273560158649192905e-02,-4.133351406828205191e-03,1.975283336794243783e-02
-5.030690927375772864e-02,2.535020040940063474e-02,-5.194651900504814596e-02
-1.768809089379520805e-02,-1.119168831582889947e-02,4.103197331647302076e-02
3.292866676031919442e-03,-1.446658710191423697e-02,3.685358602004368961e-02
-7.494167493654725100e-03,-1.391850159041506906e-02,-4.925907492482198280e-02
4.688139959191386236e-02,2.965717435854617681e-02,-4.699312324155182491e-03
5.306991926574009671e-02,-4.727568556529773702e-02,-3.173500236534678581e-02
-1.240001040415905816e-02,-7.439644018548458027e-02,-1.896946811176462508e-02
-5.662784270365938186e-05,3.155933632748587903e-02,2.717518822985269533e-02
1.078350674216575489e-01,2.042700888637214926e-02,4.093226164310931336e-02
-4.817133734045826732e-02,4.065758845001225807e-02,-9.694071794703844683e-03
3.863160797327808149e-02,-5.501412753220395746e-02,9.749349360521587446e-03
-2.447975702278435556e-02,-3.858401163151397792e-03,-2.919384237424432413e-02
3.635162237794967860e-02,-9.754586711468754556e-02,-1.002861159928927770e-01
7.395177799242295957e-02,-1.815925309339389004e-02,5.511913181133525075e-03
-5.174325828241663899e-02,4.365969085717773951e-02,2.705494669407108518e-02
1.904857570413771156e-02,3.330921885224445711e-02,6.379056896397841681e-02
6.264280847472232516e-02,-8.404647975261815215e-03,-5.068421406129746537e-02
5.996356502589332560e-02,-2.312582984041453016e-02,9.384805413570825039e-02
6.789274762749926417e-02,-8.048430129931179178e-03,4.578197310147877341e-02
-2.774347346903146064e-02,2.839117331119163715e-02,5.625736655784317579e-03
5.834704796762636703e-02,2.160564950459700415e-02,1.257544756861898004e-02
3.095343084351971988e-02,-2.188094065411734859e-02,3.406427095781010966e-02
-6.341206905285058648e-02,7.172635349747563671e-02,6.411639974825279753e-02
7.039638834697149739e-02,-2.400869283154789119e-02,-5.984513195198400137e-02
3.283784921486588952e-03,-1.557082231161231733e-02,2.429330165890829230e-02
1.823889777164823534e-02,-3.172606260164459457e-02,3.769807995595204214e-02
-5.912779461773521456e-02,1.334877882914371067e-02,2.186781251327012121e-02
1.058007710099771563e-02,5.280263556918925877e-02,-1.730001498301187920e-02
1.313123825129231242e-03,2.385767774704137048e-02,3.215341058901494131e-02
2.716422617075323759e-02,2.223650098447417164e-02,-7.694294951979953334e-02
-3.863440607972553481e-02,-2.438157971025523701e-02,1.275276417297673687e-02
8.826114803664730779e-02,5.432358134802112160e-02,-5.160591306739642503e-02
-3.414064722049853229e-02,-4.944397840019168489e-02,-4.522900478070117185e-03
-3.748934908657210185e-02,-4.826910122952207671e-03,-3.801175442238206165e-02
2.406002128936259032e-02,-3.568672278929826275e-02,-2.907130390538983228e-02
-4.956371696339857691e-02,3.589526608906639521e-02,5.938462207879258159e-02
7.468414030721598484e-02,4.941046457067969563e-03,-1.169109281068597336e-02
-2.236831064612044423e-02,-7.798754360377719392e-04,-1.074404011062535941e-01
1.638589665467982820e-02,1.835004974833426283e-02,4.302754830344007048e-02
2.382991748083687980e-02,-9.581498771600878428e-02,-4.033982686863622769e-02
7.749122624760745523e-03,6.173256163452875422e-02,1.742311118145815213e-02
-7.790887962269228695e-02,-1.107379322781581153e-02,8.256771413222177558e-02
2.003895495390978221e-02,-2.254370360658069020e-02,-2.007842073098898075e-02
3.340693706734388507e-02,7.423161879877120985e-03,5.801333244814479984e-02
-2.933220590143829909e-03,5.332588961650840641e-03,1.805721544089513089e-02
1.801115783448865859e-02,5.188664476219671806e-02,-4.695655637920310987e-02
-2.005765931789732504e-02,2.438705834809232892e-02,7.173151648365359845e-02
-1.532249076335899345e-02,2.124312398274282477e-04,1.785438342777524029e-02
-4.876913504088250390e-03,2.605403332802004243e-02,-8.621727456313618698e-02
4.972825817126391885e-03,5.723149442784240815e-02,-5.721885624049487945e-02
-4.708506454601161378e-02,-3.979816420973192673e-03,-8.729870818173638466e-04
-1.174335086525967950e-02,1.011973245234998320e-01,2.880762860590392951e-02
-7.971010049538473918e-02,-3.389019644398702860e-03,-3.204717020748877598e-02
1.989079814715977862e-02,1.001781781858332269e-02,4.549414246739063965e-03
3.278391334579031785e-02,-7.198874005098198628e-04,2.862818243036407972e-02
1.052313376770274735e-02,-3.425594681853852408e-02,-3.367982856874558555e-03
1.680929801495453096e-02,-3.329761982789024993e-02,1.382140765486108980e-02
-1.171396769348783187e-02,-1.879066598209632594e-02,-2.273605341387430548e-02
-5.772708534668991032e-03,8.459991339213643324e-02,-1.943226271278727241e-02
-9.666884260311868482e-02,2.319417761659825841e-02,-1.039222044846879224e-02
4.359804147365832754e-04,3.673667457287201760e-02,-3.986495571992657028e-02
1.166378136919455077e-01,-1.101682819830730568e-02,-3.961491682062767694e-02
-3.724304596858467060e-03,2.255270832357605124e-04,8.425920631190689236e-02
-2.099077974322861515e-02,3.062886312747607233e-03,-6.105288274195460121e-04
7.616089807437863290e-02,8.827889322237973679e-02,3.393271552154219356e-02
4.204293655846410432e-02,3.970609869329250197e-02,1.203105953957216839e-02
-5.103830362827158247e-03,-2.548500489563627902e-02,-4.561253822373172520e-03
-3.307334728222027700e-03,4.083773376616010864e-02,2.963170452994709492e-02
-1.998079381925744330e-02,-2.697402749846462486e-02,-7.784596731350235110e-02
-4.403607355660232869e-02,3.100631446300301450e-02,-4.012569815901045889e-02
5.335998784199057904e-02,-6.673604383608415513e-02,1.489043380252712441e-02
3.886310638534222484e-02,-2.522568229488611913e-03,2.067910954284014891e-02
-6.116572988765302255e-02,1.495605669207828586e-02,-4.088475501139309659e-02
7.567313056222482390e-03,4.741720349318002958e-02,-1.058762306980595425e-01
6.201812420932116543e-02,-6.469742726092050748e-03,-1.123617875646276774e-03
5.142288201728315716e-02,-3.769446548860293927e-02,-4.642457116008397860e-02
1.497829791664626910e-02,-1.456406248308949984e-02,-4.443207351183672132e-02
3.114306340502689951e-02,-9.251531893701440967e-02,-5.456449619924309130e-02
-7.484184141474299612e-02,-2.938195823404854065e-02,9.288114663452704325e-03
3.194375322075984625e-02,1.995119155066287647e-02,-5.782668598089180101e-02
-2.969412014599507807e-02,3.536906644517662929e-02,-1.661044776825597660e-02
3.833205948130367219e-02,1.229282978688067685e-02,5.611518425704695862e-02
-2.140556835480652773e-02,-5.846761438689770246e-02,1.215189026318857449e-03
2.145292569754844378e-02,-4.695592200815527223e-02,5.030905030527119126e-02
4.625205404036254742e-02,-3.925228824154463475e-02,-2.523380235060011106e-02
7.218880648224207386e-02,5.084148692993579327e-02,1.217664435266691643e-03
1.861481872191868628e-02,2.716117520307914993e-02,-6.380914863968528694e-02
2.387609750191951874e-02,-1.899405017604617954e-02,-1.997810406265186287e-02
1.463476044385830614e-02,3.321875723368263728e-02,6.311690098070645016e-02
-2.810499015847152740e-02,-1.029444527636548404e-03,1.214407325853915712e-02
-1.502879627789533573e-02,6.005283331516816231e-02,1.856456825205726052e-02
2.388800124028727517e-02,-9.616365029727674818e-02,2.306665199381622081e-02
-6.198043073189116528e-03,1.277868080853471477e-01,2.073385555823750032e-02
4.390121154970912792e-02,4.873370211601467383e-02,-3.505103886578023187e-02
1.265312648750983593e-01,1.523859304504349144e-01,2.079957617696601493e-02
1.709820393448641118e-02,7.071469053654926007e-02,5.083122422577594085e-02
3.015593482158020894e-02,2.356150118621541320e-02,2.348488885565225281e-02
2.920637498046985830e-02,-2.695454128799307583e-02,6.319268983946764451e-02
-4.708130691823114722e-02,-2.971086310801929198e-02,-1.051043857471314902e-02
-2.016262342663669230e-02,-6.129912999434935367e-03,-3.655368483869617102e-02
2.433341607092140424e-02,6.355537110453486627e-02,1.224417149257567630e-02
-7.928905243319363250e-02,3.994251249176038188e-02,6.251530421888049603e-03
-2.197635073571826622e-02,-3.666729819628051362e-02,-4.381948630438278064e-02
1.199039796689171933e-02,-1.136355758588828042e-02,-1.651416585913214122e-02
-1.495115506658252214e-01,-7.499918128246664539e-02,1.833946878937434480e-02
1.311106073834223534e-02,3.484437436654306414e-02,8.413853650806978057e-02
-4.363987317083446900e-03,-5.865734105659591718e-02,-1.905781462510429403e-02
-5.759718883538744727e-02,6.516335827780282697e-02,1.160281653040033840e-02
1.166758240472200690e-02,-3.816220970170173740e-03,2.824032834332580733e-02
1.058857056929157249e-02,3.187832320740618258e-02,5.716374441173650151e-02
4.064083527722778949e-02,7.577119144556869468e-02,1.641222371457435811e-02
2.502765163000448320e-03,7.147407225015687225e-03,-9.927458925341197879e-03
1.621425181379835753e-02,3.427128074812603453e-02,-4.553689529608739156e-02
-1.906978239263689909e-02,5.612248754252215088e-02,-1.120330555220851732e-01
-7.706182719974163930e-02,1.974327484212487493e-02,4.392527935758086532e-02
4.743557077103194297e-02,-3.845295205372020048e-02,9.361932499033324973e-02
1.065068229067905360e-02,4.735739566983787618e-02,5.150696360696407905e-02
-3.515156077836062432e-02,-2.758551572214162483e-03,-2.951806387330411369e-02
-9.279695120214554588e-03,-5.220042862582898596e-02,-8.584007688466774311e-03
-3.196041231043519198e-02,1.541201506118034664e-02,3.342489797345891273e-02
-6.363744766681042608e-02,-1.082203230337341199e-01,-8.625111464936160294e-03
-3.126541438683627661e-02,-4.189205636035758795e-02,4.126773975980870673e-02
1.074579035865805970e-01,3.148655715346498907e-02,9.301204994702824691e-02
6.431078763159847611e-03,6.141504390317581094e-03,-4.025597239074645006e-02
1.009960257456499720e-02,2.419668997058010973e-02,1.125515397304102487e-03
-9.515701469955659131e-03,-4.284986541354415812e-02,-6.716456503155267266e-02
2.684264028736945123e-03,5.677305611027892718e-02,1.089667439117930764e-01
-3.745482428048412665e-02,-6.890632827121795367e-02,9.756727016389415627e-03
-2.563294351636397767e-02,-1.645235611709243775e-02,-1.555924721511153970e-02
-4.505210311916696408e-02,3.103157391261086515e-02,2.720223163569440369e-02
6.413648970484621403e-02,3.491009512323424435e-02,3.669736319698410631e-02
-1.205280523702939935e-02,2.006481515096866786e-02,-1.541302673284853167e-02
-1.274910381043032996e-02,-1.672972961991295651e-02,-4.561274144577916190e-02
-1.781368967152585289e-02,9.443793260747553042e-02,-9.757232113032436940e-03
-6.155363682075346704e-02,9.133345716549595705e-02,-2.186418728297543496e-02
5.657916592580844450e-02,1.750940054539676730e-02,-1.251832691684537195e-02
7.562058248327810372e-02,-4.387359241003643655e-03,6.413086858041777520e-03
-5.423306398248248922e-02,-5.688386346300538382e-02,3.859946073440278375e-02
3.230269677465193168e-02,2.861663140068626543e-02,2.512977931679446011e-02
5.705594630599077760e-02,1.503367802709688721e-02,4.237333398307015914e-02
2.758057565953418028e-02,1.442521393473054220e-02,-2.909768820853439117e-02
-1.159598262785641043e-01,1.068844226915035278e-01,-2.348904184575445475e-02
-4.435255896621686372e-02,8.180773250554926324e-02,4.960782298040430395e-03
-2.830876889264719379e-02,-3.121465405052213475e-03,2.862874867830242712e-02
-1.577436127146982642e-02,-9.794601515011503064e-04,1.314407410027393711e-02
3.433449639851637869e-02,-4.473633064607933363e-02,-1.177863692844399821e-03
-3.779820862192799502e-02,-1.215051120157282366e-02,-6.836093227700246189e-02
-5.813025796010298785e-03,-4.615441430886517947e-03,7.062758121394732691e-02
5.422038234328455109e-02,-7.556398153934185125e-02,1.051619640047797739e-02
-3.555656517348772944e-02,-5.102681203192487719e-02,2.819874466070577956e-02
1.439425030109996563e-03,-6.619182734281860159e-02,-1.458472671259120577e-02
-1.101523900285537351e-02,5.110890295655283466e-02,4.752577071527901154e-02
2.575580805619842248e-02,3.099593148300248263e-02,5.382650944875752574e-02
1.264430022909192840e-02,-2.848238317696510577e-02,5.698670157880540536e-03
-2.790386282046536034e-03,3.526090521666216948e-02,6.316641193211432193e-02
-1.080274396661396463e-01,8.791575209309993033e-02,6.322495922750850927e-02
6.069860687331937732e-03,1.899033262856545182e-02,1.853639192520882550e-02
-1.710972377781437917e-02,-1.035068463102441043e-02,-1.213072756610822089e-01
2.845378694632879832e-02,5.706927513415061687e-02,-7.612150600858068328e-02
-5.623490199173432173e-03,-4.531382657524543611e-02,6.499761833763807294e-04
-9.411968953734310694e-02,-2.144232860910321239e-02,5.142558956085455796e-02
-1.042411901878681664e-02,-2.774260371663289995e-02,-5.115807936329468120e-02
-1.413606657677272428e-02,-2.023374963566978296e-02,2.350637497322601022e-02
1.165212907908388246e-01,8.006424452955140242e-03,1.958902017369132387e-02
2.782884148861526977e-02,2.087498155126430235e-02,-3.619649727677836520e-02
1.117660988440551464e-02,-1.881836125674999152e-02,-9.637863310230124214e-02
-2.508337499974116688e-02,8.790742179022986713e-02,-5.757696814671117019e-02
3.261026190299426159e-03,-1.819202616649957110e-02,1.578654190896282283e-02
-2.103505100355522808e-02,2.994606536754776047e-02,-3.753915130955171736e-02
-1.521100803154663665e-02,-2.161725166023529057e-02,-2.829144809892249549e-02
1.644684702374817065e-02,1.079418180104681213e-02,-4.670220640443866617e-02
-1.627429473992417566e-02,-2.100715989735260289e-02,-1.216317994874968611e-03
7.126648297153485856e-02,-3.758182275213203111e-02,-9.980696327292849779e-03
2.876887158736190359e-02,-3.857728276373657839e-02,8.503031891466945880e-02
1.415503292372034642e-02,2.759738483982224905e-02,-1.793521610013750975e-02
2.803893712650480305e-02,-1.488987281237018866e-02,1.063267656276394024e-01
-8.210618186693850740e-03,1.320990015755775168e-02,1.650065804532710109e-02
-5.155672956053745926e-02,-5.095055556784523071e-02,-2.274589857402352366e-02
4.186403694172895901e-02,5.376519465213840110e-02,-4.218571159833171130e-02
-5.396709369947733786e-02,-1.669546670448925161e-03,3.897034524799648791e-02
2.283252088195627388e-02,7.312866420523493616e-02,-7.626661997133425686e-02
-8.659228746320047146e-03,-2.627014057169701697e-02,-8.430685782530793898e-03
-3.368748978408987044e-02,2.389437560836068022e-02,-2.539228590137033656e-02
-2.229854548115945898e-02,-9.637021488140353614e-03,2.067324018325270366e-02
-1.915313619394129127e-02,-9.467918648555989636e-02,-6.652659262801889628e-02
1.204599378677509158e-01,1.982010871185404827e-03,4.738566924483005038e-02
-4.457801849140351214e-02,4.623674148457800059e-02,-1.237811860980793550e-02
-6.703201595260938409e-03,-2.113347142511108959e-02,-8.520232767018853792e-03
-2.526110038473582207e-03,7.876504784124419012e-02,1.621893252037145614e-02
-2.166974463403571402e-02,1.367305978773070488e-02,1.060874134747443777e-02
6.092499354714840665e-02,2.918587999901361280e-02,2.021397768985287724e-02
2.727534623623745907e-02,-7.207283459191383794e-03,-8.556048119232426141e-02
5.407346071153923406e-02,1.967463768661700113e-02,4.471416456651541860e-02
-1.507705185951023139e-02,-3.438993943656875468e-02,1.323958280345398884e-02
-2.060371368296693567e-02,-3.921974561259482933e-02,8.102518531750106667e-02
-1.042221740002068908e-01,2.887594888052048836e-02,4.415128247965057623e-02
5.395028108949268680e-02,3.345565783680864297e-02,-1.443822875186976003e-02
-3.459611393648075878e-02,2.241733903990027893e-02,5.437308103296897149e-02
4.017579449986406759e-02,2.266713998065061561e-02,4.644770203140027864e-02
3.578367320025681054e-05,3.187328092752120257e-02,4.472528037513864158e-02
-9.771755765435462260e-02,8.487559008845176750e-03,6.738617487056295166e-03
-3.735850845250978519e-02,2.828754520118297380e-02,4.273478808321917038e-02
-1.640227147929943299e-02,-6.237841120012684037e-02,-2.640842046567233245e-02
1.554719048348896307e-02,-4.221748791594175099e-02,-6.407138095124042046e-03
1.940030432254821052e-02,-1.960310166130122683e-02,1.447641280831000500e-02
3.149534295901922770e-02,3.752891495659481380e-02,8.822608232213038915e-02
5.568495901339769183e-02,-1.361117891645913236e-02,-7.977795539525279686e-03
5.407963356244507164e-02,5.670241502949398965e-02,-4.897247764811870491e-02
5.421613348077717470e-02,2.855777827122823673e-02,6.191504440864786969e-03
-1.652004456250931452e-02,1.925928945255282396e-02,7.117713683351663788e-03
8.171733900089796221e-02,5.970634843775338846e-02,-3.758647136633505581e-02
6.301730345756460794e-02,-2.131146994978108319e-02,-1.951078923354447776e-03
-4.028638253442629047e-03,-3.622165658199723304e-02,4.994226745129113493e-02
2.750253158216058036e-02,-9.307740586334502242e-02,3.947764984309082292e-02
3.878169539273348260e-02,5.746475571900450628e-03,4.000151251625793519e-02
-2.084044498975130832e-02,5.103645959694272372e-02,5.044865534231772475e-02
4.127126246952500521e-02,-1.086756459579336226e-01,5.130487536277832800e-02
5.198483009181235209e-02,1.730595471102903612e-02,3.407306066490123006e-03
1.537174001366920818e-02,2.260496720256838579e-02,-1.991932586312828227e-02
1.722316763342110479e-02,-2.175308225398499620e-02,-7.063018416189689730e-02
-3.304150409977682501e-02,6.790795953973069454e-02,8.113477532240330817e-04
2.338111600396180004e-02,4.456412137643731702e-02,-8.423492955988366032e-03
4.981535783333769507e-02,-2.919318258133440230e-02,3.523057807947440408e-04
3.078470850483989649e-02,-8.943346944389005820e-03,-1.323079360725913124e-02
-5.031855387463798901e-02,2.210663738704980036e-02,3.076560341037924348e-02
-4.074883005382252260e-02,-1.038389740066140987e-02,-1.844292730490629945e-02
7.781880732839935311e-02,-9.903530038952605696e-03,1.265398340635404692e-03
-1.218449975189936016e-02,-2.764764253341910408e-02,3.066232053280102537e-02
3.699102039236645129e-02,-1.386297817779516273e-01,6.586962732558605815e-03
-7.434439685469378459e-04,-6.725263713283634835e-03,-1.383243378292479259e-02
2.129358901917920502e-02,2.454307068087410032e-02,-4.665777400216453152e-02
-3.657604538168313102e-02,1.596851393147936601e-02,-2.767644097148984697e-02
-2.894533338624202812e-02,-4.473235101881191389e-02,-6.635112409253559294e-04
-1.267041252227916852e-02,2.661478493650564978e-02,-9.857546681423459342e-03
-2.205252841801181272e-03,-4.144471369849857950e-02,-5.221227294382933815e-02
-5.123585965206374493e-02,2.153313120600487338e-02,-8.273903230085205215e-03
-5.891943717395309310e-02,3.122034206924541311e-02,-9.056424793038805182e-03
-2.641333949251030780e-02,9.440629673612435657e-03,5.967507557325758827e-02
5.292708802502540683e-04,-2.720826897069458447e-02,-4.816161239168668950e-02
-2.027624061189752924e-03,2.273475948708652758e-02,-6.863486438608619065e-04
5.859449336455367641e-02,-4.887740208256652341e-02,1.048365660928146995e-02
-5.231386823138242659e-02,3.492079154248339812e-02,-8.692282333004118164e-03
-3.054040257907708611e-02,-2.366633849001443732e-02,2.913728481604724654e-02
-7.809859449481920679e-02,-3.613033653481378948e-02,8.186830497724778555e-02
-1.771534545207779573e-02,-1.682194332630599504e-02,6.710072313376630460e-02
-4.546419389673752448e-02,1.171810004502208714e-02,7.370967307798773072e-02
-1.877167437671279152e-02,4.131117728700545860e-02,6.271886120340706972e-02
2.648338431487998190e-02,2.254563998855193749e-02,-6.738806048204876165e-02
2.951636832304766964e-02,9.249563954219981385e-03,-5.721546950711195456e-02
-5.199376736858552644e-02,-7.089850920800692957e-02,1.254915056825870075e-03
4.970226407405479302e-02,5.446023404467088130e-02,4.866789105843530999e-02
2.027330935821500951e-02,-1.601995456551628602e-02,-6.057332664942041700e-02
-3.178279631050220932e-02,6.667834221153949581e-02,-2.453059018913154865e-02
6.660813034429587109e-02,-4.954893723485384593e-02,-3.375871620427703390e-02
-4.580412573925816272e-02,3.000528527204878934e-02,8.038424890460776906e-03
-1.100764498166954299e-02,3.996424852153376839e-02,-4.412044853784571896e-02
-4.130056111116162804e-02,2.668986001559413984e-02,5.198782768803956317e-02
-7.770169477804811375e-02,-8.306858887275472142e-03,2.427558160769326123e-02
-1.387086249205211202e-02,-2.688680343272608492e-02,-8.143350651021482103e-03
7.691157652453412159e-03,-2.807130755942013195e-02,-4.964154693458965734e-02
-6.492204090137547283e-03,-3.170999877093125426e-03,2.701520698614712918e-02
1.482280851312198222e-02,6.075573454041704319e-03,5.695145946104551021e-02
3.439989503029826368e-02,-3.984014983679989158e-02,-5.210905942555619542e-03
-4.545207597828494761e-02,1.961901134039198066e-02,2.849842777974683633e-02
-2.083710869872627131e-02,-1.257053939561242860e-02,5.268783174952915149e-02
-1.003796830730028233e-01,7.390503843300623432e-03,1.842169934044872101e-02
-2.878336500900376821e-02,-5.773127983929933916e-04,-1.985913933662476066e-02
-9.582270280186873379e-02,-2.839384796767961683e-02,-9.658928436724488822e-03
-2.482434663199030098e-02,5.956025719324060941e-02,1.695285685542792173e-02
8.675187000284888261e-02,1.185452297851895091e-02,6.345354080155797029e-03
-1.725272663768781523e-02,6.797322189671838738e-03,2.996835066185461055e-02
1.448603365761757383e-02,-3.807954705234072035e-02,4.846925510358917472e-02
3.060869221058466413e-02,-3.408725199138648576e-02,-6.301169826377584111e-03
3.669611717370201143e-02,3.922467399364175378e-02,-9.238976375718477296e-02
5.166804517510768108e-02,4.268429242050238853e-02,5.686613127810628485e-03
6.821777066839969372e-02,3.709110759222274123e-02,-5.555230773440619774e-02
-1.877606676789951579e-02,3.278537927293574163e-03,-7.696633089305171364e-03
2.173081939307021371e-02,2.479843551341016569e-02,-6.840303710101945829e-03
-1.376139567104391233e-02,-7.949867710230684725e-02,3.320743993565991332e-03
4.692656777113905775e-02,1.802338248507450932e-02,2.323275177710281553e-02
-3.412684922658835301e-02,3.925175127475672571e-02,8.615285991484126008e-03
-3.294173996262778764e-02,-3.033802240198939237e-03,3.850027181850617514e-02
-5.018729984970025926e-02,2.193993589629483418e-02,4.601953999343881552e-02
-3.381320738976747575e-03,5.567124481591043117e-02,-9.923354482559429424e-02
-1.862017034225465703e-02,2.998311574935114306e-03,-1.887219819623620759e-02
-2.554203591658993355e-02,-9.577191440199179714e-03,-6.138375356850901861e-03
3.217522014456134644e-03,6.488082906716084210e-03,1.825926196471164276e-02
-8.872299581243417443e-02,2.011670321583312188e-02,-3.658086487112401086e-02
-2.527335126166517162e-02,3.030405778658466602e-03,-4.097827600814258481e-02
-6.059908420611526819e-02,3.104692695649719988e-02,-4.296151111123197586e-02
-4.685336122301525519e-02,-9.026837703127162105e-02,-1.358412298418822453e-02
-9.722365915329300376e-03,6.078311389708537793e-02,7.918416484710827374e-02
-5.884541906195157185e-02,7.180692145095011331e-03,2.771607853458190468e-02
-2.196377790656678375e-02,4.954410879052484340e-02,6.113405322054225877e-02
3.450700303333018720e-02,1.272637079964141719e-03,-1.351206666599603645e-01
-1.288198134899652680e-02,-3.814341535916471529e-03,7.578158110841980155e-02
7.727549010876826052e-02,1.308795920484832204e-02,-9.110408740155775606e-03
7.324563359373199856e-02,-2.228496398885159921e-02,2.937799706483367607e-02
-2.113708226023138306e-02,4.097574256794841129e-03,-6.011419488704262959e-02
1.114030197084127198e-02,2.553813951073690899e-02,-8.037820501768026815e-02
-2.172447400120177535e-02,3.811783492503238724e-02,-2.594830269582608200e-03
-4.573695031203797029e-02,-3.366904423631876531e-02,-1.049917057013940828e-02
1.167976901507752907e-02,-7.522057603279163999e-03,-4.930872692731168294e-02
4.237364658161504871e-02,-6.937481291457832377e-02,5.570912880258944294e-02
3.007101994039787160e-02,1.956705724998191245e-03,-1.569303843183405753e-02
-3.876831436508745149e-02,7.221330599140847809e-03,2.003709519220064558e-02
-2.245563127605966838e-02,-3.340846168824444101e-02,3.976210185208081671e-02
-4.497613289584386984e-03,3.494174306568573196e-02,-4.737666847773987222e-02
-6.247404144687478816e-02,1.331509135909837369e-02,2.867164781718326005e-02
1.886624884791026843e-02,4.489185104970974671e-02,-2.771663702417148656e-02
-8.176565573011966223e-03,-1.143714243671052275e-02,1.933818606634953030e-02
1.928303171114055872e-02,-7.400521419691669101e-02,2.290500310235581496e-02
-7.909480463808796907e-03,-5.199238361011473963e-02,-1.651524169519987331e-02
-1.976236944008837385e-02,-7.357844989524399588e-03,5.952343563022717554e-02
4.543215361561086379e-02,4.929719715031931349e-02,-2.743035485962698125e-02
-5.144975064960560784e-03,2.435629719497521203e-02,-4.986787417947901452e-03
-7.398005256087082128e-03,1.982905008686427009e-02,-2.951312644774101504e-02
-6.568392967942986160e-02,3.124002251278398465e-02,-1.269560217445110488e-02
3.590616930693931591e-02,5.690814305962495906e-02,4.108892409990956562e-02
-1.852464118613932065e-02,-2.458461956776265486e-02,1.509505612255916153e-02
-4.390903058969795186e-02,8.566833344646745951e-02,-4.024155419615598611e-02
1.092763594839636122e-02,-4.627612046275569185e-02,2.422065281774912066e-02
-5.576460891695563839e-03,-7.443181498292689158e-02,-2.114178434250322744e-02
1.704624505849006502e-02,-3.013736054165864695e-02,4.551944084306515153e-04
-2.465573975241237489e-02,-3.898914685784152928e-02,-6.272879943758633003e-02
-7.639811584701402571e-03,-2.847392659182797128e-03,5.755683270897467285e-02
-1.525705191128297160e-02,-3.606501802693801422e-03,2.680965988221734909e-03
-2.193718724572387216e-02,3.582305439683668158e-02,3.030892197107970532e-02
-1.826205850766017200e-02,-1.341185074003963806e-01,-2.334786566018981144e-02
-5.959900494259153664e-02,-5.660921099839680976e-03,-4.724458268602179517e-02
6.538562104449577306e-02,-2.700195429391862370e-02,-3.290918109474667841e-02
-1.751573369038418593e-02,1.194070451095195599e-02,4.247383078090372771e-02
-2.320820891810563072e-02,-5.185414923505572010e-02,1.843678850575970057e-02
3.314264709709398293e-02,4.297022374178097182e-02,5.943648035716888461e-02
5.265322328728480605e-02,-1.680575313639200846e-02,-1.986261889476582942e-02
2.319643304202520864e-02,-2.762682016511820715e-02,5.399771289825235770e-02
-4.648153994342580850e-03,-6.285167137506791901e-02,5.163540912299794533e-02
2.311225379265726548e-02,-5.110870193482790896e-02,2.945178625461879890e-02
-4.114296111854511689e-02,-9.065838915121689906e-03,1.944146820788778332e-02
-3.263944188399430131e-04,-5.797052488384089181e-02,1.661820861646749747e-02
1.155903877106009489e-02,-1.493806694490404201e-02,6.866954832553395782e-03
5.864395896335041630e-02,1.309916256408724666e-02,4.850745368443375172e-02
3.675058571585027717e-02,4.047469963309564649e-03,-8.064105630346772298e-05
-2.880254854543742513e-02,-4.964434842125076824e-02,-9.689051399829926720e-03
-7.585224812008968531e-02,1.853207000217970898e-02,-1.684498835886210711e-03
3.877338693818824233e-02,-3.501038713152832688e-02,-3.985029917841106939e-02
1.917917069167675292e-02,-5.799664275115349460e-02,3.558552954141382119e-02
1.576300068807108198e-02,4.775226413025566996e-02,2.010597958594013274e-02
-4.468375838093104589e-03,2.678495154128536157e-02,-2.431453580104456919e-02
4.298671975960881016e-04,-4.976645849382788783e-02,3.153900040994952070e-03
5.157684592108363608e-02,1.443013260587283283e-02,3.080115696229828587e-02
6.062575129155658993e-02,-6.418268165071484843e-02,4.065751208127370633e-03
1.205548359035889250e-01,3.497035206499454069e-02,-4.106359334736686684e-02
7.722470514488587179e-02,1.165330994226865258e-02,-4.409321399267103481e-02
-1.376321721041048191e-02,-1.017965707241892887e-03,-5.228752830976185484e-02
-3.547605182232475146e-02,-2.795359038449994268e-02,8.939021532227446262e-03
1.293742037067050106e-02,4.318844433456541128e-03,1.117697999510675923e-02
2.008604327462077885e-02,7.461501795052939701e-02,-2.159406327680730205e-03
-2.025681949865463290e-03,-6.321063540248698931e-02,-1.277218062843988276e-02
6.575568221181550543e-02,-6.100750867256451299e-02,2.118267812167335621e-03
-1.715951558839965904e-02,2.991382498560620981e-02,-3.185722514700653485e-02
5.843857180797420482e-03,-2.517029500114262297e-02,-6.021292364409565334e-02
-1.263339036612414271e-02,-2.879738344358366651e-03,-3.377231166288704317e-02
3.019776172029684652e-02,-7.154500357124372878e-02,4.213784680419129652e-02
4.455626148275555753e-02,-1.372782031706450655e-02,1.113642442741648655e-03
-7.617677741417746423e-03,3.233041914240849385e-02,1.120190244925068357e-01
9.575156846378097414e-03,-2.735565279177747458e-02,-9.753390483627109517e-03
-1.185173614196571509e-02,7.328923570844091129e-02,-4.791632060627500946e-03
-3.803834567274207157e-02,1.749012087809891786e-02,-4.172310883614428756e-02
2.762982603090402293e-05,-1.255601771681257202e-02,-3.743088532444780597e-02
4.232663975174952992e-02,5.400107343755496808e-02,-6.925785319617960845e-03
-6.168476155054328225e-02,-4.003548431385686723e-02,1.025646486097677931e-02
1.415475992228135832e-02,-4.223887169093231558e-02,-6.811513645493459668e-02
3.868594624137617396e-03,9.786365221140996135e-03,-2.111786176668765252e-02
-3.981275725349892047e-02,-3.992369873664246283e-02,3.623647312121686809e-02
5.907287173378097944e-02,8.010130405293958145e-02,-7.476036775051714267e-02
8.870749666869313932e-03,-3.438586283173915986e-02,-7.113543272005277973e-02
8.012726930201066744e-02,-3.211992150672157015e-02,-6.698747114714856225e-03
-4.141991935445767103e-03,1.894463701007249173e-02,-9.840927689657994522e-04
-5.009475782990958220e-02,4.636052173920220121e-02,1.570564336058156291e-02
2.595732232714795251e-02,9.255887689603756185e-02,-6.280072085866005016e-02
-2.025581249659066246e-02,-1.975259573094014301e-02,-3.696613905355514151e-02
-3.534975481738791836e-02,-4.076433307009674767e-02,-8.260089528607147610e-03
4.863551358603115937e-02,2.838607528323299628e-02,-2.728044160097889588e-03
2.284945086416550683e-02,-1.229304233267978358e-02,-5.455674519729818150e-02
-2.304186567196150892e-02,-4.716348581074995133e-02,-8.220097947867432975e-02
5.202401659753338320e-02,3.501119145007503680e-02,-3.210920271920039704e-02
-1.755962979159919959e-02,3.493630372680588386e-03,4.302807781972026180e-02
-4.761638268490543820e-05,-1.618941976967447002e-02,8.427843984773001826e-03
1.832250626877558741e-02,-3.472729489978981093e-02,-4.302457387649080700e-02
1.547517909759464454e-02,-1.714841053478730754e-02,-6.783271414714857339e-02
1.548942840080305521e-02,4.547788720891401265e-02,-3.708429361835547527e-02
-5.763774099585960986e-02,-8.278856804472209396e-02,-5.529732485694947852e-02
-3.171033713588193581e-02,-3.116532152527076369e-02,5.370455142947423016e-02
-1.284946103368019574e-03,7.198873630962645577e-03,5.043912513117646684e-02
6.293871541060054586e-02,2.546151650759791857e-02,2.252299837005811503e-02
-4.930120880241171261e-02,3.620769239245418686e-02,6.763266551110044301e-03
-6.981451345800371300e-02,5.140611765134186703e-03,1.016790721817345533e-01
-2.529055043038829984e-03,7.882497696175845558e-02,5.320324192090379600e-03
5.505491645214690430e-04,-9.972493423378288313e-02,1.220041291976285344e-02
-1.389693134359333733e-02,-7.656085492699375716e-02,-4.522260614580122379e-02
2.820145179093079199e-02,1.978846958112974799e-02,4.269403078967964199e-02
-5.375833027875686482e-02,1.642475156607733910e-02,-3.544376386284712240e-03
-3.541227017316857240e-02,-4.063608729425968041e-02,-7.393394488609389414e-02
-5.486782160292213995e-02,4.239499312940963466e-02,3.031182295372745680e-02
-3.252713458248117362e-02,1.309898808354512112e-01,-1.825026535565653363e-02
5.834034230225745160e-02,3.884385007243088689e-02,5.117762623370827185e-02
5.042527365915337734e-02,1.988568967677716362e-02,2.167249016754960872e-02
-1.036348162475439483e-02,6.157124314365848561e-02,-9.255934900294113254e-02
-7.757556625440953021e-03,3.963269515628355111e-02,-3.513486836748874048e-02
3.407603295768912161e-02,1.119486069635199088e-02,1.080166797307697928e-02
-3.547680117676454623e-03,1.816086659512486726e-02,-3.438259553296400817e-02
-7.596273847189208284e-03,-3.627539482875299232e-02,1.162908633062365200e-02
1.351869790449606928e-03,-5.953418462850130349e-02,-4.674005388574544568e-04
2.745641767468193651e-03,-7.157664696822442843e-03,9.221919797922906864e-03
7.274998401847043890e-03,3.303584534665011951e-02,-1.123432877632354748e-01
-4.361378587919238076e-02,2.286045764181394990e-02,-4.003563234671602550e-02
2.070517584910661069e-02,-2.109544193897317302e-02,-3.625304730901128536e-02
1.652261570776433069e-02,-3.978011965151133367e-02,6.567315707169859781e-03
-5.480661517504610558e-02,2.358425430298604145e-02,-5.506665075912969051e-04
6.387823536150230574e-02,-8.734735392251478242e-03,-3.869616758556312236e-02
1.452089753096084609e-02,-7.342497646798450128e-02,1.582010386533959020e-02
-9.798193659762918090e-03,1.004859358751399034e-02,1.082259162987228435e-01
-5.736315297396107904e-02,-1.721059413435854779e-02,-3.675345731059570954e-03
-1.057366664874967097e-02,1.656341441722901375e-02,-2.079345697838680743e-02
2.066667132143728755e-02,-2.851392524366172174e-02,2.286770539431954435e-02
4.072170212084027380e-02,-3.103772596210833956e-02,-4.946476457216852224e-02
-3.257100785823793809e-02,1.342407045357492112e-01,7.154125277944384242e-02
-8.495093999241187799e-02,-5.181244823931908938e-02,-6.744922884126311469e-02
-3.547711730816016651e-02,1.755304416808733600e-02,3.224814826848328153e-02
4.842202708548787315e-02,3.360953045026973760e-03,3.309897902953030935e-02
5.773102384179013696e-03,-2.007181670256858244e-02,6.190446328702919193e-02
6.399828555037631074e-03,-3.341145756964904179e-02,4.280947950405147168e-02
5.778779661711579141e-03,1.919805819508346723e-02,-4.303111343827754551e-03
6.445778651515680913e-02,2.624718092337615175e-02,-6.614475308261150849e-03
-7.466877964007821722e-03,1.851254800062166958e-02,4.342887601427378175e-02
-1.541634599367422247e-02,-3.233366721489863010e-02,6.352150583534531270e-02
5.965285850477063112e-02,-3.971538707221473896e-02,4.838222528597766608e-02
4.876681358131596672e-02,-3.357618976790596906e-03,-3.457332225258744063e-02
4.268990769074557101e-02,1.288575994869481205e-02,1.555988817154731717e-02
9.077934838569242867e-03,1.401631687304772007e-02,-7.019745026239426755e-02
-4.270499429785615253e-02,-3.957784061451284641e-02,3.890633619574448282e-02
2.224212589477008242e-02,2.540107795451796227e-02,2.402446184691872308e-02
-3.082621787279929068e-02,3.239669748116773274e-02,9.018515261666525118e-02
3.971315135372839589e-02,9.559147128544689259e-03,3.787567912653736629e-02
-4.040371947424328120e-02,5.515011865115821560e-02,3.088718563921299693e-03
7.052101213756900924e-03,-1.699705337949633521e-02,1.102876370510246368e-01
-1.673261564361767581e-02,2.100459617763284978e-02,7.397694153299938513e-02
-5.414854891901976081e-02,4.258155692609215393e-02,-3.632132989632821940e-02
6.598778263332634453e-02,-5.288964875757275197e-02,-2.040902144477639568e-02
4.142342171527306494e-02,-3.688917010201055863e-02,1.452736021740761753e-02
7.041835236905286122e-02,-5.657458629483930884e-02,1.005829488460704448e-02
1.106236832893548461e-01,2.659084456140307223e-02,-2.849087165977740380e-02
-1.781299544608790780e-02,2.901146103649000774e-02,-6.853136424767700130e-02
-2.812082580865318121e-02,2.556147126828765825e-02,3.379496786478781989e-02
1.390407294856558715e-02,3.559552738836238572e-02,-1.017971874436673745e-02
-1.647394733139333906e-02,6.969637320464894953e-03,-1.074968305590094930e-01
6.153296883415284441e-02,3.384861321978201165e-02,5.103781307739774578e-03
-4.277604676505963877e-02,2.093227914769941675e-02,1.083615817492571132e-02
-8.680089350729558451e-03,5.109320878590995624e-02,1.196295328412109484e-02
-9.420442700289072616e-03,3.383076133496763782e-02,-7.424500679701365397e-04
6.353953069541375988e-03,4.137196891131136173e-02,1.612797142889297805e-02
1.515084195086976830e-03,-2.854351801355151097e-02,7.472260798123543483e-03
3.131446850750318339e-02,1.795993690706224749e-02,-4.821063005652549693e-02
2.514000467971328964e-02,-7.487714087309114974e-02,3.980820100863179806e-02
3.391214405159160422e-02,2.379002756621564907e-02,-2.222041656869293627e-02
1.008855382391339074e-02,-3.830309833186643087e-02,-3.359814552112553449e-02
1.988904989403633000e-02,-5.134987740841299303e-02,1.293407592968930445e-02
5.715188176148470328e-02,-9.363368667822674282e-03,-4.864399071283506681e-02
6.578234962498202311e-03,9.067278585669606705e-02,-5.577360442731150308e-03
-2.550530976702171469e-03,2.395111048806409376e-02,-2.205329610194750600e-02
4.350472003921402459e-02,-1.479077149337269977e-02,6.436435807379420337e-02
2.188558562556509532e-02,-1.281472844537818491e-02,-8.158963550961271377e-03
-7.081826031529020980e-03,2.492089757603627165e-02,-4.859876910315436005e-02
-2.038834629333209636e-02,3.086679793510554298e-02,1.423163320200939753e-02
4.087607506296145332e-02,4.161012314828716613e-02,3.547749568043968155e-02
-1.685968409189782941e-02,-6.137333952559133332e-02,-1.622478632430508078e-02
2.272128516719159122e-02,-1.782180730689687451e-02,4.227915763648819325e-02
-4.320691074226470224e-02,-3.812007170902738384e-02,2.215778405898704423e-02
-7.504888691315846072e-02,1.979334528738481425e-02,4.745805965920052438e-02
-3.323718109846993118e-02,-5.836368327584960658e-02,-4.454704249524268217e-02
-4.228093685553179631e-02,3.157550451500662492e-02,9.692683170540328935e-04
2.114092198550148946e-02,-1.160118938332639106e-02,-5.431149038533893830e-02
4.175711554274297993e-02,-5.355408826161141278e-02,9.904832951765961749e-03
2.201813453139040214e-02,5.456901751267969475e-02,-2.641870955794576800e-02
-2.844235168604844835e-02,-1.428021476898014841e-01,-5.923588609128027649e-02
-2.494262005618725492e-02,9.651806664691611748e-02,-6.302219956727499184e-02
-4.008753183175191998e-02,4.754841153004282089e-02,4.700635010169739933e-03
1.600794575407352496e-02,5.126831500829427506e-03,-6.235725696733278312e-02
-9.423111931521319790e-03,4.629616459461963901e-02,4.096790324343105305e-02
1.291638792676684175e-02,5.700830708501775784e-02,4.198793048037320619e-02
1.136429887615468363e-02,3.092752562657096610e-02,-9.399363885207821095e-04
-1.367988011478017164e-02,-4.548348878572937293e-02,2.503372612547340170e-02
1.005975982102498001e-01,-2.364541061667838062e-02,-5.942596969732008572e-02
1.651229339789889736e-03,3.921395567880411187e-02,-4.512724711850923942e-02
-5.705486043345910779e-02,-1.682040778532812794e-02,-1.250276765111612773e-03
2.574332180666322537e-02,-2.818743894064304825e-02,-1.657589284163436469e-02
1.700805062147510774e-02,-7.191331545278462078e-02,4.217327853932746617e-02
-9.960124997171882280e-03,-3.382700144018547378e-02,-1.954745594399267400e-02
5.781497793060255512e-03,3.651255502632230754e-02,2.230176896639490033e-03
-1.500679284379073664e-03,8.086205645128098640e-02,1.294601053175527781e-02
-3.584313201688498624e-02,2.823139093329575522e-02,-2.657244357277442279e-02
-1.219248163124645595e-02,4.365780736185089633e-02,-3.105519702387994282e-02
8.451057060722171749e-03,-4.947491935230971700e-03,2.648858239012392979e-02
6.330004573187991701e-02,6.496658074801211873e-03,7.560169998849257389e-02
3.709502760438293002e-03,1.244253664152582825e-03,3.621591356967814729e-02
7.950360370972749113e-02,4.246938638419031631e-02,-6.290226427541965697e-03
3.381494233242918201e-02,7.866162484069562366e-02,-5.835633579411383248e-02
4.262305853029129538e-02,2.043373851296928154e-02,1.307153141753987502e-02
-7.812076175594291627e-02,3.605339026078788200e-02,-4.689880717268138377e-02
2.277640435770447724e-02,-3.452450297685114022e-02,-2.886307559108819767e-02
6.164753391251637238e-02,9.366152337139531381e-02,-3.233000353698876374e-03
7.568401557032315707e-02,-6.210780249044465379e-02,1.518668866302708489e-02
-2.765848785913393310e-02,3.966090905249902709e-02,-9.724696308185742238e-03
4.494107145235438916e-02,1.939682057544000332e-02,1.498475760577541033e-02
1.977715295098659773e-02,-6.225645597369330354e-03,9.129252040489570230e-02
4.881792845488606980e-02,-3.877298165909425637e-02,1.881596914644151700e-02
-2.645055769552948077e-02,2.360970795964431601e-02,6.245292501049942019e-02
1.863423724051948074e-02,-6.710043244661027806e-02,7.153343551788797321e-03
-1.197102267462290537e-01,-2.800979279493100507e-02,-1.091144528279978931e-02
-6.017314381718789906e-02,1.867903060549005317e-02,1.112120885648232582e-01
-4.451053306938462101e-02,-1.718588840441006779e-02,1.154917966436726402e-02
2.269274665712113850e-03,-3.709893717645773581e-02,-4.928572880937563336e-03
9.232874036318314270e-02,4.158844470371475532e-02,6.572804751902837361e-02
1.262026178050334839e-02,-5.698761662065856409e-02,2.316340865955161810e-02
-2.953838922492742908e-02,3.907179008995746716e-02,-3.715926579849926359e-02
-2.965010331588193923e-02,-3.701959117454175358e-02,1.588001412344494309e-02
4.341785666185495052e-02,-5.875872053355092606e-02,-4.234069240093290415e-02
2.439724913551392232e-02,-6.900986119669908977e-03,5.797097757810527191e-03
-1.251639055082588367e-02,3.511294474146006706e-02,2.365835399497297209e-02
-7.036304543534817324e-02,6.740621552507557179e-02,-2.154515049584510619e-03
-1.387685421270581400e-03,4.043103326013805510e-02,-1.553551881822514726e-02
-2.810156766165261728e-03,2.344703729133887447e-03,-2.394628983195337679e-02
1.837645265137657653e-03,3.499614237239399850e-02,-8.571522536181380714e-02
-7.434847632484299640e-02,-5.126181218713337512e-02,1.791178849423545215e-03
-2.810444992285439716e-02,-1.931878689587073622e-02,5.284047880466313102e-02
3.280956618619779858e-02,-7.260655537276835408e-03,9.488839776868790215e-04
-5.146550469767975644e-02,-3.223841764861921921e-02,-2.106979315872949468e-02
-3.879714480656003966e-02,-3.546545547845863372e-02,-2.259894895445266338e-02
1.132020439594177974e-01,2.522348489368989380e-02,-3.813658874732096804e-02
6.518277789183521409e-02,8.148408540782442477e-02,9.625924699068433288e-02
-1.893148273227035841e-02,2.822842802504722803e-02,-7.741746175613210476e-03
-4.242841712105980406e-02,1.373103045971136617e-02,-3.858097404166674349e-02
-5.950442524192880306e-03,-2.250299942121533267e-02,1.549812502066094493e-02
-3.210937683806339149e-02,2.420770252039822212e-02,-2.456964527529828263e-03
-2.296859093960094272e-02,-5.636696098933780680e-02,-9.886112635491614564e-02
-4.176474717560121896e-02,7.356930476191372859e-02,-7.063708230118628285e-03
4.607941226048781896e-02,6.375120784599118406e-02,4.957616175959899188e-03
6.416096398628964859e-02,-3.012164129339519811e-02,-7.155614357251868785e-02
-2.609002881069479984e-03,-2.911019931322065841e-03,9.338316607595134947e-03
-5.582494998424560040e-02,7.258585707034928558e-02,-5.648241325882811387e-02
9.618223991084795532e-02,8.831499927637679812e-03,3.212718789145783266e-02
6.472165052287097604e-03,-1.507526888829142236e-02,-2.254447794533763830e-02
6.968256933509150985e-03,1.442093845185381598e-02,2.611661866495271905e-02
2.406962004061275265e-02,-3.613851395810539074e-02,1.514264330523134097e-02
-3.930296171974115294e-02,-1.271570931323189567e-02,-2.636731820115411837e-02
7.738899577521694828e-02,-5.640620870259983877e-02,-2.488082868132431014e-02
-1.121637241878335051e-03,9.747528281412199194e-03,2.477843556888650618e-03
1.699395404100007933e-04,2.401549050099201568e-02,-5.136173452063519385e-03
4.336229841544731595e-02,4.140462494960125972e-02,5.300556763148799033e-02
-8.449318555296908215e-03,1.118524977694202414e-02,-8.472414857568671617e-03
-1.529630577406536178e-02,-2.196267595466967065e-02,2.161129896944017671e-03
6.304526630569809442e-04,-4.673054020966346117e-02,4.566965932131099998e-02
-5.326045164872441479e-02,5.160264770245848176e-02,-5.349952127151411801e-02
3.216297504407871627e-02,-1.997608959112289959e-02,-6.468109171691231729e-02
-1.904162024922032709e-02,-5.534532675143016833e-02,-6.062248301399183331e-02
1.042441605444960860e-02,-1.948772022726427341e-02,4.156945511789566367e-02
-5.883915750087724550e-02,5.808540728884079019e-03,-5.631294308867881154e-03
-5.883330093307206562e-03,-9.500052824536255394e-03,-4.416754067661122531e-03
-1.932259532647177813e-02,7.950419228268057470e-03,-3.729482766111740649e-02
6.838121266527903697e-02,4.375837211509532587e-02,-6.084962010901765611e-02
5.120470894833584197e-02,5.618418023120273774e-02,1.022293067935448052e-01
2.426789450607414952e-02,-2.185714335025036245e-02,-1.574522506570421795e-02
-2.852804631236366059e-02,-2.595061399910022701e-02,-1.344641178090767546e-02
-4.419145884859014377e-03,-8.867519568106852282e-03,-2.303194350363492460e-02
6.370226615308539897e-02,-2.478386546601236973e-02,-1.030788995366690997e-02
7.978801736069773831e-02,-4.192726984486296743e-02,-4.276954128096813017e-03
-3.904581815489670260e-02,-4.074548813256417823e-02,-6.339710984030524910e-02
5.642199358459287772e-02,-7.078225618931027578e-03,7.863687508074722332e-02
6.994768519124608397e-02,1.267310070727470546e-02,-5.829347300677577975e-02
-1.175553905511274172e-01,-5.779373891311296446e-03,2.922932451947476279e-02
-2.403620812170771323e-02,4.359644206706312503e-02,2.938362407597880366e-02
1.538044722041160932e-02,1.669986194203813444e-03,-1.890009576184167872e-02
2.932625090712367294e-02,5.838313012568906862e-02,7.850986951993924046e-02
-1.593371778965192373e-02,-6.638556529851648291e-02,-4.506275057029904794e-03
2.190297567441157334e-02,-1.865575969394697720e-02,-2.668984860256346653e-02
-4.380844285880339251e-02,1.516206851082765351e-02,2.822059517303386958e-02
-1.828046512947152299e-02,-1.452009446543916539e-02,8.810107586579360439e-02
-5.410242364492241947e-03,2.518614285828665866e-02,-3.043679196319286351e-02
5.539742117983929848e-02,-4.701682990535965140e-02,-5.155636720505299420e-02
3.096738793991716046e-03,4.837650322336767977e-02,-1.059527828552367119e-03
-4.841028239525098364e-02,-4.332416768344022479e-02,1.796467386209830638e-02
4.226205913465663072e-02,4.728053121303496531e-02,3.367217677405962700e-02
2.781068699545953884e-02,1.380616421392169384e-02,-9.546446163562656573e-04
9.813219108274444727e-03,-3.491155897753438209e-02,9.801295672360037237e-02
1.077960069271012306e-03,8.898638378970374907e-02,3.778379391451505004e-02
-1.216654452289408217e-01,2.310115315224239158e-02,1.292471341365080632e-03
2.854923353728538310e-02,9.378456577153175544e-02,1.187034686985664195e-01
-2.709973987134736348e-02,-2.578330490387398255e-02,4.037652468385641985e-02
-4.125265534328505929e-02,-2.746986896263743302e-02,1.678588208916616253e-02
-5.396759299658585030e-02,9.550648934688842073e-03,-1.955533677298795792e-02
1.602690285889709406e-03,-9.710860362587768815e-03,7.145785772764080834e-02
5.726215678035958406e-02,-3.710219068047452412e-02,-2.974878657616933722e-02
8.985964936119365809e-02,-6.196640135025278939e-02,5.669105037690586740e-02
3.284594130230778647e-02,-6.121601357557970857e-02,4.025949349319477011e-03
-3.915859645341157602e-02,1.290811620435296930e-02,1.512329635391127490e-02
4.777264796812366598e-02,5.039032245236326618e-02,-2.379313120349994381e-03
-5.012851988565448363e-02,-3.038584087350877649e-02,1.267341296861131811e-02
4.473722459638681398e-02,-2.444223415312399630e-02,1.459242516891490205e-02
-3.861850433212726807e-02,-8.325394520467084558e-02,-6.368370732331811446e-04
4.852339140623564834e-02,1.434620130279226982e-02,-7.778049730909028167e-03
-6.230781447833583231e-02,-4.859333290532921040e-03,-2.781873642365175620e-02
-5.972375086549538276e-02,-4.411878900088093969e-02,-2.282006746522449725e-02
3.671991383237498824e-02,8.151331131548205863e-03,-5.701283921768372266e-03
6.733169835552076099e-02,-9.286782175383617721e-02,1.554637857282415055e-02
3.135366760000417308e-03,-2.276368049667807855e-02,1.950491210388908755e-02
-2.803174090595156667e-02,-8.409363231299380251e-03,6.749402845887833569e-02
4.769937166187834809e-02,3.493302502345286414e-02,1.276841927462455707e-02
3.915677802291699094e-02,3.350345182626395663e-02,5.354681493261262415e-02
2.854252566117218559e-02,4.489918232771726581e-02,-3.326733015341791760e-03
-7.261737516758297317e-02,6.811168652122190359e-02,-1.599495901967306136e-02
-6.589373340958624981e-03,-3.054382097310121350e-02,2.108693511823221331e-02
-3.465264847194309689e-02,2.421421692887860966e-02,8.503887614703725326e-03
3.047731542169907631e-03,-1.820056710084326512e-02,2.932289533098469958e-02
-7.500753438060270284e-02,-5.125850483283152237e-02,-8.345521781152837049e-02
3.033486194742697484e-02,-2.809935467873071833e-03,1.556375808824280935e-02
-7.538783347959383818e-02,-1.090122030159609498e-02,1.549747482519146617e-02
4.398178310522690704e-02,9.273602415757152551e-02,-9.991422225160506362e-03
-2.195749274443211871e-02,-3.172994559266922865e-02,-6.133621740629947167e-02
3.080204763864511155e-02,2.725243105853255784e-02,7.427464168711721618e-03
4.817229372245463576e-02,7.335818101299226845e-02,2.999943761696925726e-02
6.309593940705730819e-03,-6.763775792445470003e-02,2.110882570498790693e-03
-5.268346166486518461e-02,9.570920896200797723e-03,-7.673756383201335574e-03
-7.251057827553200434e-03,6.443457876551955676e-02,-5.402927357140177578e-02
3.052932542005002553e-02,5.590789452267241888e-02,7.685774784904777709e-03
1.591041018896784121e-02,-5.581664377278908185e-02,-2.612922127899145602e-02
-5.349846508749480159e-03,-7.724129346307834557e-03,5.605853654286480775e-02
-4.279074256639626289e-02,-5.276929981657969837e-02,1.614761479238901315e-02
1.928245878693581397e-02,-8.531618388752965076e-03,4.159228267195226071e-03
-3.015883886469380298e-02,4.048567337807162242e-02,-1.537383467493910576e-02
-3.072913132121687582e-02,2.429591361553571152e-02,2.010384011052422475e-03
4.903895598676162593e-03,-7.750736442081433567e-04,3.886608237617162481e-02
6.155949616480023423e-02,-1.917909947942304447e-02,2.600175602677633549e-02
-1.047755190271198664e-02,-4.716200592438798793e-03,-4.719700648310983654e-02
-7.573723592968930989e-03,1.183341941777228332e-03,1.931241821811594331e-02
-5.556609468848028310e-02,3.147752527043579541e-03,2.922440695631412996e-02
-2.378307892654800068e-02,-3.365322619658170367e-02,4.094891178193423714e-02
6.590837198061347268e-02,-2.407043848296677377e-02,8.129447599443527517e-02
3.223030071081359887e-02,-5.203296024653245033e-02,3.591039285182930779e-02
1.549056181196556761e-02,-3.783686726775582071e-02,5.432832630674044178e-02
-1.240250312939214332e-02,4.094024350779203875e-02,2.242245395463659738e-02
-8.116039578002787191e-02,5.115102879981306416e-02,-1.596919711579865633e-02
-5.407253266808473291e-02,4.399839809757477571e-02,-6.326108881796291272e-02
-6.311323239987430556e-02,-3.644351252486093679e-02,2.427143639592369354e-02
8.054862611312194054e-02,-3.607270754408013064e-02,-4.934825225590164927e-02
-7.521637533377711210e-03,1.794116955151826148e-02,-1.190158071420345000e-02
8.125218613951618735e-03,2.401637203676876622e-02,-3.684173854632383227e-02
-6.065786106555917656e-02,-1.406829334042657316e-02,1.032025121692230294e-03
1.397343156461789597e-03,-5.700709069981702015e-02,-4.434949439986611563e-02
-1.878716946160220030e-02,-2.293205873155137206e-04,1.070940088438778887e-01
5.527070149689864570e-02,-3.776223910492128993e-02,1.272843062367517986e-02
-3.185179741832210899e-03,1.407026246171349214e-02,2.509405662663436939e-02
1.874304304526723530e-02,-8.063033097096028098e-03,1.868567852977806587e-02
1.533158714942771568e-02,-1.085577135815587319e-01,-9.265333963734731504e-02
-6.309295843690988781e-02,-3.061048394291629102e-02,-1.292062455703672265e-02
-2.197107759692144141e-02,-4.232337480059053525e-02,1.015190787027661114e-02
4.138239798916914375e-02,1.393938047306366584e-02,-3.214035922047504823e-02
-5.074933051813504403e-02,-2.260615246478251197e-02,6.032804363739779213e-02
-4.365396768132794730e-02,-1.860733838787291886e-02,2.166115295375497379e-02
7.747188749282396536e-02,-3.532015879899358390e-02,6.607531424403662035e-02
-5.627710017116607788e-02,-6.088428384553757483e-02,-1.042433977804977097e-01
4.320621036906355239e-02,2.980774624209810847e-03,-2.864458620458336727e-02
-1.222764772352511776e-02,2.438499902891349061e-02,-7.165125208274686353e-02
5.034707506240443040e-03,5.383499947164160394e-03,-2.609309190581270491e-02
2.807008397831269389e-02,6.755340474982339527e-02,5.324903797694371943e-02
7.193549359772989649e-02,6.662094987090756704e-02,-7.068541262401396852e-02
6.432531795437647186e-03,2.005547698025858180e-02,-2.547942889473311934e-02
-3.761810111940705470e-02,8.788944820675778646e-02,-4.491616383580128435e-02
-6.092919910745087791e-02,-5.415544452569117512e-02,3.316347830614316261e-02
4.330213522536439236e-02,2.923432626086546957e-02,1.063444213762210072e-01
-5.117651828496209108e-03,5.460175674649866279e-02,-3.654598851935467879e-02
-1.485172764673859183e-02,4.343680227080491674e-02,6.190163274681786260e-03
4.129133237447295268e-02,-3.086331316018003923e-02,-1.735390937127457428e-02
-4.494298336323002303e-03,-5.897432496835038583e-03,2.332081303901687580e-02
4.114627074479883240e-02,-3.035233141317720748e-02,-7.472327417900249957e-02
3.293705930397295562e-02,-4.474939660487659010e-02,4.855421896026343442e-02
2.415834472474036321e-02,-7.978616573270543022e-03,-3.959341019984729919e-03
1.176553089309312870e-03,-9.128033841722713038e-03,-2.732692062420892867e-02
4.879863460383109669e-02,-5.421993586710730645e-02,4.184524603091979364e-03
-7.856547065008814487e-03,-4.905963900392426580e-02,1.399477985539274855e-02
1.604087303126415162e-02,-9.503591405224252192e-03,-1.597921455944163044e-02
-1.051410468884910049e-01,-1.834828284894081396e-02,-4.969638992316109671e-02
-1.676512765108528411e-02,6.341594227044577460e-03,1.218232672490883461e-01
-3.751424887597010205e-02,6.306802451499836371e-02,1.281678675239577431e-02
-5.517768885532544493e-02,-2.421819683027956124e-02,8.023305647834594670e-03
2.633037320086566591e-03,7.173999384636922660e-02,1.043953383417242121e-02
2.469248423400044121e-02,-4.488072713691940684e-03,-6.257191838063604072e-02
6.127601729698775590e-02,-3.255174599128228541e-02,-2.035889889911024486e-02
-8.465140866603473868e-02,1.134853729570000844e-02,2.394171186861847669e-02
5.618268246759097057e-02,-4.329046790733790534e-02,-1.035314857702000074e-02
-8.507089623707968229e-02,-3.837467610109033395e-02,-7.490558240478757158e-03
-1.396279785123816231e-02,2.728598756134937089e-02,2.749922125544824320e-02
8.546127980726990481e-02,-1.236238815855544675e-02,4.873059608208921145e-02
2.092692798297250342e-02,2.783565715304665150e-02,3.514120566085599667e-02
-5.141572757599606469e-02,-3.109952261354143391e-02,-6.146083383560675510e-03
2.615550726461041836e-02,2.127742783232051613e-02,8.163623301695695222e-02
-6.301527895187707118e-02,-1.819718398710583329e-02,1.439219082769266356e-02
5.698686432609006980e-02,-1.045238515925462838e-02,-2.029105087178429898e-02
-9.848195437828603793e-03,-2.561328149165558680e-03,2.836052932165689620e-03
5.751299626264239073e-02,9.560710069415915766e-03,8.775593548532893695e-02
8.491160222054371098e-02,-1.394158232067420899e-01,3.409571316913373451e-02
-6.197993035616549545e-02,6.170360314032687088e-02,8.747067209476713789e-02
-2.654429648497878130e-02,5.236426130859284100e-02,2.689575256152581043e-02
3.964177290561638617e-02,-1.548926153260610922e-02,2.312999435144212287e-02
-3.674399389952621477e-03,2.132635485375481907e-02,4.701262411189633533e-02
1.128651743248517900e-02,1.457548428958033680e-02,1.400618648620240506e-02
3.597399913098651633e-03,-2.369084554868541165e-02,2.710803704452802859e-02
-2.015647071596292014e-02,-1.241422334309059006e-03,-4.379943385624164576e-02
1.028200917153525573e-01,1.972979915201803283e-02,7.414253846613790000e-02
1.662709894112336315e-02,-5.161069810774656513e-02,-3.335177686323454599e-02
-2.994507761644488869e-02,1.569934496870538680e-03,9.132491108069189624e-04
7.232159814478574802e-04,3.066230231271436721e-02,-1.831479905690318669e-02
-6.256537734249172089e-02,-3.539009646663275610e-02,1.112772086705311470e-01
4.727033866560805160e-03,4.863720064529565568e-02,-6.227974980522254372e-02
5.607280893763374324e-02,-1.956647045298375714e-02,8.588043724637790810e-02
-2.861493596853822638e-02,-1.789382915631884327e-02,-1.630006092065076559e-02
7.390170346547657310e-02,5.991570910035175918e-02,-3.417911996053357021e-02
1.512022645933983576e-02,-5.192459127584379830e-02,1.412486211491156309e-02
9.667803848540440156e-03,-4.393855608411990910e-02,6.954160175396527366e-02
2.641645816041712780e-02,-1.663144486481909698e-02,5.366825837829760845e-03
3.798158151185348358e-02,2.788901783786490798e-02,1.093963219517853254e-02
-3.069084011767183283e-03,5.213171790450598503e-02,2.010307378341252837e-02
7.505990000351936420e-02,1.222160868536581457e-02,1.811496013968182800e-02
-6.046763451206346035e-02,6.929109923112601599e-02,7.760360919502032329e-02
6.206793966960277159e-02,5.634515596571259936e-03,-1.477006950803391554e-02
-6.448095923944685559e-02,-3.686815851718884540e-02,-7.190591105839064245e-02
-4.221187354033453104e-02,-7.307615985860595187e-02,-1.357336850131728861e-02
-5.905350795042176720e-02,-5.183833312804728144e-02,-7.186900668946494264e-02
2.785130432063984141e-02,-3.919406014766622232e-03,-1.970423289606940825e-02
-5.942859232173137995e-02,1.274973795534880584e-02,-4.349686244426388682e-02
1.107677320298729000e-02,-3.956641467728926748e-02,1.912876999810286804e-02
-2.610666959460728256e-02,-1.121630423942272109e-02,1.316033196810702591e-02
-3.687167531866814008e-02,7.213832688950387942e-03,-2.070799963744715186e-02
-7.626114692983354537e-02,3.400014507925273877e-02,3.781300428044277739e-02
-2.457906658219555576e-02,-1.839454164464567748e-02,-5.565514338658859167e-02
5.602746157379003694e-02,3.568423324718802969e-02,2.960297769087517905e-02
-7.386347343399391743e-04,6.897326658316649088e-03,4.385139112927119616e-03
-6.856397238515408998e-02,-4.876444035644356828e-02,2.399723879811531402e-02
6.032613172693901404e-02,5.981104391560949224e-02,-3.497837887840010707e-02
-6.407334988814307464e-02,-8.550574267433721024e-03,-7.855974893714873231e-02
6.541013475521831322e-02,-1.450994049392324153e-02,3.185470406394790704e-02
-3.275465934041930927e-02,3.770036573677252451e-02,-3.392475691465010081e-03
-6.848218076069384486e-02,-6.741120855620602982e-04,2.067122545798546693e-02
-3.607361471101032391e-02,-6.786114186153792416e-02,3.590615368964321374e-02
2.403854963467324038e-02,-1.067251103643136355e-03,-2.477327436146377695e-02
4.727299810932950042e-02,1.118827411613624173e-01,9.968792051124068798e-02
-1.246459111809618096e-02,-4.031035162315456388e-02,-4.649011145446358545e-02
-2.116571825553587721e-02,-5.705219828009081007e-02,1.463035693448713412e-02
3.323764994278528145e-02,-3.830110494185313963e-02,4.755619738310061517e-02
5.551666061585195516e-02,2.733304565932445293e-02,-2.659798233135932544e-03
-5.019549875743142819e-02,1.290372059849705100e-02,-3.210272741691971854e-02
1.051024261130482224e-01,-4.644900680978944485e-02,-8.804288155114187164e-02
4.940218076230772082e-02,-1.310076493487648090e-02,1.409552150126695260e-03
5.198124447067552917e-02,6.131588918293212620e-02,-1.921124114622382167e-02
6.858207853164600964e-02,-1.782805939122136807e-02,3.978392800227857802e-03
-2.552336162402137065e-02,7.197555042377985768e-02,-4.756422833695626851e-02
1.481406772012535539e-02,-5.556977836783330571e-02,-5.479783548160031131e-02
-1.201487284756203901e-02,1.544107280517012168e-02,2.566635153289164445e-02
8.280213061745110570e-02,-2.184061128748582964e-02,2.492319163788252190e-02
3.760582729378934147e-02,6.186866992491128064e-02,1.973595327866572643e-02
-8.080150709818421928e-02,1.319038717851975240e-02,-6.038051220007042974e-03
4.541884391702624701e-02,4.845708925577589532e-02,-1.390854606698046711e-02
1.304907863406861747e-02,-1.886958664423200177e-02,-1.136127009916409469e-01
1.237299214234926087e-01,1.305974929425342788e-02,-3.983267019948929198e-03
1.134481990551034908e-01,-1.713869817401854779e-03,-2.490098996879192006e-02
-3.361973858076017924e-02,-4.347603404452651116e-02,2.146120504686753819e-02
-7.744756697452355454e-02,-3.230855608269423904e-03,-5.146774275014654072e-03
-1.730358570324404266e-02,-5.189164946829075142e-02,5.376053341811930751e-03
-7.848847185769747617e-03,3.153696417087031682e-03,-5.155633400800817279e-02
5.915795463635746543e-02,3.398858292972897766e-02,-4.878007028732493644e-02
-1.482245876811839023e-02,1.850088783165977635e-02,-4.074730176941077087e-02
4.002655832880779724e-02,-5.429715337647236795e-02,-2.307964530403070966e-02
-8.867447504818956258e-03,7.149662888424333784e-02,-2.690280816924905602e-02
1.300951495573728252e-02,3.460161728196667254e-03,3.058151253927741606e-02
-4.942881320403931522e-02,-5.960360428441442704e-02,6.466277582281940162e-02
-2.826195284224879492e-02,2.234502964360362415e-02,4.689340092076969835e-02
-2.443368000949952545e-02,-8.553650339287658180e-03,-3.671016080127611353e-02
1.646609989253986980e-02,-5.900214168898470363e-02,-6.115233528286781461e-02
-1.001783067942029593e-04,-2.128565000542380348e-02,-4.933037026728194496e-02
1.059994130008176383e-01,-3.237863818135339189e-02,-6.981589055202696431e-03
1.753576400844903890e-02,-2.664021686311973322e-02,-3.971088757026750016e-02
-5.188304662232056524e-02,1.384903481685318023e-02,1.216042630664439933e-02
6.270530875911718705e-02,-1.768547032990183676e-02,2.138271988273898402e-02
-1.679846196375732112e-02,-4.581934335147748449e-02,2.154265262241133322e-02
1.751679767279096245e-02,1.596866259340980893e-02,-6.111901115910495924e-03
4.491587187766930139e-02,1.180845064810627336e-02,-1.538846920194024588e-02
-4.215471153347174343e-02,6.209746623274760985e-02,5.121121432728382820e-03
4.493433185684946735e-02,-1.335214452054342069e-02,-1.159861434315579733e-02
6.860882046389400746e-02,1.063801806400080027e-02,-2.155771451183494461e-02
-1.029855827539558621e-01,-6.751723774322229872e-03,-1.560962775297400698e-02
2.253879558162099131e-02,-3.768082469566198106e-02,9.173297536146185482e-02
2.419069201325809576e-03,5.021651308878365139e-02,-2.767864006176270347e-02
-3.166876705693369431e-02,-1.185046082897716642e-04,-1.140276666257324795e-02
-1.786990428648796382e-03,1.181015596840329085e-02,6.303460621420066412e-02
-9.277753916405966431e-03,-2.005713613630925179e-02,6.530138092034682394e-03
-1.553922539277000775e-02,-5.941116929010743092e-03,1.137127139745723950e-02
1.439811144177868645e-02,-5.154610333151612295e-02,3.698661784895839605e-02
1.139107538551161012e-03,1.374660441705235180e-02,1.117612947220478561e-02
-5.156426307858830854e-03,9.442648249164002638e-02,-1.383255342809386335e-02
2.294102743466761365e-02,2.499325011738956492e-02,-7.144058542726557104e-02
3.564748166876487850e-02,-5.013834097082249530e-02,2.512298341551198397e-02
-9.394603267585657780e-02,8.694543952721546509e-02,1.170295069054746832e-02
-2.125056352675659677e-02,4.807584070541446979e-03,-9.854101518970686396e-03
-4.805398950328682028e-02,-3.872429875611725636e-02,5.308314080742795871e-02
1.151127874173529624e-03,5.052950453926155494e-02,-2.646428846598329263e-02
4.337012743622038063e-02,-2.984098740296913660e-02,2.176968381204593544e-02
-1.499705436299546019e-03,4.920056171760674862e-02,-1.846491277944851267e-02
-3.747064894636954746e-02,1.245128326302773376e-02,1.818265792682764595e-03
-3.797418363939993047e-03,4.102286942749449467e-02,-8.579797262840150804e-03
-1.291564191151949384e-02,3.805881168046050533e-02,2.979034471222010566e-02
5.102762158618784349e-02,6.779870764673978645e-02,3.015441074577676628e-02
-2.745779079160211994e-02,-2.139689165558448028e-02,2.034206577185214068e-02
2.566949286781344472e-02,-2.656056175163898705e-02,-4.350502685254409654e-03
-4.241632796448243509e-02,-7.131558251149813267e-03,-3.964695935982070346e-02
-1.094922670282177241e-02,-1.994159571348627299e-02,-1.430650045749903843e-02
-9.998468028255262652e-02,7.490276448911301066e-02,2.828217494607136381e-02
3.792044412181842794e-02,-8.521701306954811844e-03,-1.022135738283069806e-02
2.539110518946939045e-03,7.684053360252044926e-03,3.657176905876982631e-03
4.020287260120555123e-02,-4.452870378241618327e-02,2.112418113500619948e-02
3.377437148318438581e-02,9.670305728682557223e-02,-1.356728271418406948e-02
-3.219576067226220068e-04,-6.887841837964323033e-02,-2.961282952202540578e-02
-4.949872294702436192e-03,8.940758246973827539e-02,-1.746268430484213333e-02
-9.591549812537732145e-02,-3.429744037577798273e-03,-2.242734546614270474e-03
7.139047180765209499e-02,-2.949589342405670514e-02,-3.877521190904090198e-02
-1.345253625307537941e-02,6.603772625075685077e-02,3.692199256117829897e-02
7.137477297514033259e-02,7.552254910970938873e-03,-2.564601481604438416e-04
8.372341672549877059e-03,4.775790194782313092e-02,-9.323052729966599178e-04
-2.738919702414135265e-02,-5.852374116100081403e-02,4.660532887823871234e-02
-6.461330117789486870e-03,1.180240124883986594e-02,-1.599719766220064621e-02
6.660879806160239017e-03,1.872034815856288975e-02,-2.683556579362537595e-02
4.429365336949358384e-02,-2.538701067761223867e-02,1.207247807053132491e-02
1.163278402555401395e-02,6.379701322310094014e-02,-5.289421067307639376e-03
-2.735860705946826718e-02,7.476177222350727757e-03,1.257178546780451239e-02
2.962824687506252636e-02,-7.256481568513548086e-02,-4.560632357756221750e-02
-4.645857181362125603e-03,-6.128921465871772084e-02,3.746010694791657852e-02
1.963232467524084549e-02,-3.111977985274554451e-02,-5.547153678401268301e-03
4.676791176743737982e-02,-2.222960393804810156e-02,-1.563973223914238986e-02
2.466682261120140690e-02,-1.292558822078503436e-03,1.028839874346965111e-01
-4.157349322265109504e-02,2.402746615489757820e-02,9.104659097350220956e-03
-6.320288873514359751e-02,5.339380571077832760e-02,2.462450394249167396e-02
-2.398788501814461127e-02,-1.492693751524368749e-02,4.230846746538284575e-02
-4.195305329430203817e-02,-2.353236817098146305e-02,-2.063347545613247735e-02
4.260803834398942114e-02,-5.979030263437319637e-02,-3.832699804094184641e-03
1.760628080313457466e-02,-5.456989679328405618e-02,-4.010513335326528622e-02
-2.311950313131786935e-02,7.512731444743349363e-02,-6.934933069783255633e-02
2.549326943726351602e-02,-9.765285775566458562e-03,-1.393458677207821267e-02
6.815168551548460296e-02,6.844864551181940870e-02,8.417740636553970937e-03
9.894977343536416614e-02,-2.623874490384351180e-02,-2.179853947556976632e-02
-2.314528767875748475e-02,-3.164267353148968870e-02,3.324026761994245543e-02
6.436612618015057075e-02,-2.431366655699078796e-02,3.633029256554017039e-02
9.622748305386873147e-02,-2.071974957264749104e-03,-6.393512084947876317e-02
-6.728627553992036492e-02,-2.802545744596553548e-02,5.516120800802103152e-02
3.485826787336385180e-02,-2.601852090144996660e-02,1.436299116097993975e-02
2.244955935089380794e-02,4.820760485091433317e-02,-3.453897419052158902e-03
1.669330138249336577e-03,-3.841111122523281629e-02,2.930414886443939368e-02
-1.867941234192522018e-02,2.110246198555695146e-02,2.980748126360271977e-02
-4.535732234370022306e-03,4.157233800668973245e-02,7.166111974661725642e-03
8.559140010755252395e-03,4.047699118614318803e-02,2.664333651038184800e-02
3.758500258894380969e-02,2.766220760860466652e-04,-2.610341297037255433e-03
-6.472116013271607404e-02,-6.227612896646630286e-02,1.834690820626280836e-03
2.617617463866005190e-02,2.826658710532616720e-02,4.967453740354985797e-03
1.216256539753309864e-02,-8.101648959140389517e-02,4.782111603100367564e-02
-3.724568422290282232e-02,6.271297405728437288e-03,8.126776178207539489e-03
4.023250809113232060e-03,-2.522161400338997217e-02,7.368701086844305082e-02
-1.194746030203675284e-03,-1.863080989318290082e-02,9.303233953154089672e-03
-1.121378116040379694e-03,2.103614954768450243e-02,-7.191587492212822737e-03
-1.183779677641414244e-02,1.895025280627372953e-03,1.029174123961660442e-01
-5.559122612045246797e-02,-6.130392192253834860e-02,-5.501564413030319428e-02
-7.011375234584114879e-02,7.324364013046800494e-03,5.586320983454961392e-02
-6.560122340037155379e-03,1.283505144766836949e-02,5.410861786619084596e-02
1.217272315146114905e-02,-9.802850813051908196e-02,-2.306800446628749085e-02
4.201539665717851646e-02,-3.130252397013430499e-02,2.495747548443160227e-02
-1.735434421108706174e-02,2.571775706503157816e-02,1.374511647931335283e-02
4.816153116062693584e-02,3.132081344997936917e-02,1.300391214721829253e-02
2.526316162282155053e-02,-2.706502552256598998e-02,-6.030981916396097042e-02
2.138649337485085816e-02,1.300056414415154057e-02,3.820046042973258144e-02
1.193489567821835566e-02,9.098939498019285865e-02,4.521592797974256610e-03
-1.251397318178163603e-02,-2.280516404819199830e-02,3.369122653813124563e-02
5.159167319712659044e-02,1.666819811760565651e-02,-5.276480649156967823e-02
5.284091325708189027e-03,3.024646057145503192e-02,-5.436170045710464645e-03
-5.844726517393358106e-02,4.701410088750163779e-02,-3.965538794449605803e-02
1.637729478499530891e-02,-6.506369452808614083e-03,-5.881776000190899745e-02
9.734624563693807658e-03,-2.510389716437971125e-02,5.113796437214599561e-02
5.412609518103776024e-02,7.447371778106177953e-03,-1.436923870386927655e-02
-1.544155292799577125e-02,4.810598719951814095e-02,-3.592186160386009412e-03
1.708912421250578795e-02,-2.918220328996581209e-02,2.539137379970323946e-02
-1.531733736316339203e-02,-4.352834575850417220e-02,6.391914363472427085e-02
5.126582379966606456e-02,5.266722747208926400e-03,3.420494043786891786e-02
7.565236227932583754e-03,7.356591781213621568e-03,6.519164088795038892e-02
2.702923700858288550e-02,-1.972692735507302828e-02,-1.721112024017041123e-02
3.329637364039287478e-02,-6.782108892346926619e-03,-2.092308582292505201e-02
-3.042565509548842209e-02,1.816451180853848046e-02,-9.189658530167850448e-02
-4.471914049126499840e-02,-2.868644786162507544e-03,4.388479948538660108e-02
4.438638610074794461e-02,-4.178009991394756456e-02,1.931180681437734761e-02
-2.235918228439053024e-02,4.115101461592118176e-02,-7.107668486739382452e-02
-9.375138574723657428e-03,-1.964874927100296320e-02,4.483302872969854164e-02
1.055325282404423887e-01,1.199228364749369696e-02,1.880787958613512265e-02
-5.566551927075059913e-02,-1.202113863575964871e-02,1.325433364704405731e-02
1.633683683723265645e-03,2.443676495348740679e-02,-5.867821758094542151e-02
-5.548188501046780879e-02,3.464343292682537517e-02,-1.874937921408640490e-02
3.590338592138278551e-02,7.688772211244591925e-02,1.561387323691885163e-03
1.662236260570078283e-02,-5.407881984149479765e-02,3.886758821759791344e-02
5.429671960219685078e-05,4.341001625909018252e-02,-6.682210715720587890e-02
3.997850450150076777e-03,2.136939417601871338e-02,5.795381102878779250e-02
3.754605470503238895e-02,-2.959829649236810425e-02,-4.483571334895897209e-02
1.015713290628987020e-01,2.076173331929037288e-02,-1.060007117402135719e-02
-2.199495060221621362e-02,-5.014448079459980778e-02,-4.709406816677726149e-02
-4.423594573832033416e-02,5.106543739649487684e-02,5.758377364704854277e-03
-2.486947776588585568e-02,-2.189966397501707032e-02,-4.288931987116462868e-02
-7.521614520193883879e-03,5.125816726784424016e-02,1.412497354644786859e-02
-6.828312724329958783e-02,-3.202599281434327649e-02,4.036162241613745760e-03
-1.885078649745008939e-02,-4.413219644039374084e-02,-2.154768470638424027e-02
2.372586816236035845e-02,-4.288085176067353566e-02,-2.506898411403157834e-02
-4.359653356855360158e-03,-1.418629520295775458e-02,5.701235390618115788e-03
-3.441711755582493870e-02,-4.798527776204435796e-02,-2.098264117807556103e-02
1.060468241728063435e-02,-3.001067057703077010e-02,3.396283834046385283e-03
2.433184214489305525e-02,-9.549941843163209376e-02,-3.187042632322632102e-02
-6.298832809067223676e-03,-1.502543017545985779e-02,-6.109716697741098684e-02
1.107042875968430352e-02,-4.485721679918235061e-02,-6.454166154991493320e-02
-7.973465051684050509e-02,2.963349277023918232e-02,-4.450890862474073811e-03
5.129191183029817996e-02,-5.444951046011074075e-02,5.000251295468911839e-02
4.236953149743155384e-04,1.238321692912537283e-02,-4.409974012624311851e-02
1.786094663827857837e-02,-1.509052238274826395e-02,5.601624012046238499e-02
4.778012973634711974e-02,-6.409908664287197744e-02,-3.829284250198778522e-02
-5.368960541170006429e-02,6.372874869283108590e-02,-6.679499932836668874e-02
8.720432923299360761e-03,-5.896438878351765826e-03,3.312320012489571724e-02
2.902807510015974896e-02,-7.466972271725066598e-03,-1.805139383492643549e-03
-9.342469468939148744e-03,4.123878600680880302e-02,-1.512919502613702984e-02
4.381879056330124922e-02,-1.617509144639199190e-02,6.533176709234203572e-02
2.998274977157509499e-02,-8.419648282168677375e-03,3.831864199653729763e-02
-3.838802357773922480e-02,-1.642054027448578910e-02,-5.094350048641884884e-03
-6.475511376596286561e-02,3.939624017512340093e-02,2.306615875315754481e-03
4.447800185309881693e-02,1.785616751514258055e-02,4.314210051621635011e-02
-5.964430762631948296e-02,3.236525263208549219e-02,-2.042609836066876672e-03
-4.087898975999409296e-02,-3.880077321939182089e-02,-8.135176911082500281e-03
-2.028863067761933064e-02,-3.256154078386680473e-02,4.056211646610297789e-02
4.537240736982301598e-02,1.553080441338878896e-02,4.972857828753798892e-02
1.858495978850440919e-02,-3.459584038505753023e-02,-5.666473880356760577e-03
3.383044405679422762e-03,-5.135558861462297814e-02,-5.037779250155115934e-02
-5.841838466940559374e-03,6.881715032055762959e-02,-3.568286413283668773e-02
-1.007749634958158141e-01,6.902742532164353462e-02,-4.144225334718765891e-02
5.868879481036271689e-02,-6.099640570383569466e-02,-1.357558712108791407e-02
8.729857985935030040e-02,-9.640689812321709407e-02,3.393731790420858457e-02
1.904516839889755161e-02,4.897491449518947583e-03,3.506178385055435526e-02
2.561076587425833648e-02,6.073586017574870988e-02,-2.062536068854359510e-03
5.828733273644904483e-02,-3.128421935298636436e-02,-3.692284824968192214e-02
-8.534115613229576597e-03,1.405154658224791811e-02,-1.565472967303867952e-02
-5.293696513299792072e-02,-5.537010232204717802e-02,-6.069500610049884115e-02
-1.640686475249739096e-02,-8.617064111092168077e-02,-1.663700594046057385e-02
-4.876777459907313123e-02,-5.215242901589319663e-02,4.069756139675248692e-03
7.273967572840966955e-02,-2.213111326816567109e-02,-2.948012970136155639e-02
-4.968599574243065531e-02,3.530140428980129558e-02,-2.770784447148515249e-04
2.779094923910579995e-02,1.527019430634540299e-02,8.099566676237454632e-02
-6.757761706630889542e-02,7.919728618535756479e-03,-3.110116665073936817e-02
-3.244435689048378452e-02,4.541343922587089826e-03,-6.251811174806737315e-02
-4.700251648107232720e-03,8.689210671234222014e-03,6.784888059702191832e-02
1.646456813285851473e-02,-1.079690334917505351e-02,-2.816232700480007442e-02
2.385669569667899642e-02,-8.456702718704083022e-02,2.246700687521864873e-02
-6.359307412648450286e-02,2.420100040523028018e-02,-3.341615895496063277e-02
-2.474849650666386888e-02,2.895015033118119446e-02,3.450122495816241707e-03
2.630854064748420779e-03,-2.025455725144498231e-02,2.524612310074037316e-02
-4.618318601553283304e-02,4.244698837564711905e-03,-1.296295129589665474e-02
3.589299310901256784e-02,1.979649497607606154e-03,-2.084407704828595762e-02
3.434708485916643933e-02,1.384576252884089573e-02,-3.569317484387944661e-02
-2.082058094343094967e-02,-2.368121253509740051e-02,-1.192137197216552036e-01
-1.315702073951814134e-02,-1.428209929197078601e-03,4.928174226796670776e-02
1.419802724217820306e-02,-2.860086583390757456e-02,-4.342816229729480615e-02
-2.468943829636086398e-02,-5.593778758916602423e-02,-2.484501594636337810e-02
4.037711692039384903e-02,7.531473004656000225e-02,-7.971097565242956512e-03
2.291067817134032417e-02,-3.648965984677925850e-02,7.821741947951645069e-02
-3.924379215415420286e-03,4.049469505092747473e-02,-9.598545046158403482e-02
-4.864939851828731926e-02,2.288383704068497684e-02,-4.807363268235291531e-02
2.775386067880710253e-02,2.370957876792891689e-02,-6.277428984640634479e-02
2.708502145794747934e-02,1.309421222154136602e-02,-2.269118111683908826e-02
-4.532930834451512347e-03,4.853588175378211605e-02,-4.931824253752457171e-02
-5.362410520307255707e-02,-1.096869734076964115e-01,4.342287544105575409e-02
-5.884337825443401900e-03,5.068696647999616084e-02,2.001641979352928452e-02
1.477885917770795088e-02,-1.262532819445462938e-02,-3.896229879519709505e-02
5.691247292130389990e-02,-4.176651260316178310e-02,-3.129744269502371650e-03
4.471491241768617460e-03,9.791389577579384662e-03,-6.606244971754329613e-03
-5.072867850111686255e-02,7.639395965075092276e-02,-5.685644780587042341e-02
-5.934915621736104596e-02,4.652729783002518271e-02,-1.290130635710744385e-02
4.800605641029788428e-02,-1.201809007213793246e-01,2.643507244787641347e-02
-4.676906151417378754e-02,-3.115376793961382659e-02,-1.517713346660391933e-02
3.485685339942107969e-02,1.404346791438693988e-02,3.102457209530632559e-02
1.966868561461004167e-02,-3.205529872247706719e-02,-2.323210889639075807e-02
3.166417220105753865e-03,-4.929834708275195043e-02,-1.802406467871692664e-03
3.547511628478686868e-02,-5.321824575738152291e-02,4.068779729386766408e-02
1.509421408181914857e-02,-4.019011464144909423e-02,2.418304944725738204e-02
-3.420435626934379726e-03,-1.370175197860064656e-02,-1.463928508707248652e-02
-2.514175311922623238e-02,4.079820114245000934e-02,7.022508681130770064e-03
3.141575206447692892e-02,-3.788929142013457846e-02,2.476535102767375360e-02
6.326562010342673403e-02,-5.068656996562412309e-02,7.371059469906550421e-03
2.593698877961199412e-02,2.788804112861739681e-02,-2.064157492054202042e-02
-4.734391542455593238e-02,4.260557049575529331e-02,-1.342056452334932683e-02
1.129509563808553038e-02,2.472281060100737018e-02,3.516021369333454695e-03
-6.292246446734810206e-02,-3.571002036856987805e-02,-7.175939057201434663e-03
4.072340919851292346e-02,-3.630682313222995117e-02,1.179130740684613057e-02
3.008847074186223047e-02,-1.647123655298956754e-02,-6.671495355178931608e-02
-3.317100760708560723e-03,3.209804785193011867e-03,-3.342204090206503386e-02
1.680980780966147628e-02,1.076259359976829491e-02,-6.800318329398175911e-03
1.101942951386366693e-01,3.063076152707133737e-02,6.741781213024546082e-02
2.504807298758494200e-02,5.135560421192457425e-02,-1.532705808443662193e-02
-2.568199132415912092e-02,2.913844296835375186e-02,4.424134548444549897e-02
-1.348118702659628111e-02,-9.248208693002451380e-03,6.380540446365925858e-04
-3.167076947007581994e-02,-1.088396146560976357e-02,1.585837236782100187e-02
2.657570181202062801e-02,-5.543539349538604416e-02,-5.765743460898900552e-02
-3.049677888461376982e-02,-2.000929917333488066e-03,1.247078251862128147e-03
7.409002175137925639e-02,2.109254655437654141e-02,-3.690919904701786547e-02
-4.670352114161577251e-02,-3.391414470229719286e-02,5.759217565190015951e-03
-5.449464389537436726e-02,-2.083673687484987810e-02,4.172553590076485963e-02
-5.975947519402497604e-02,-8.529843728110405796e-03,2.058758312592047154e-02
1.560658408433340111e-02,6.216008419923303892e-04,-8.447335412520272369e-02
-7.976483162640070346e-02,-2.895139184421453068e-03,2.551051002861255690e-02
-8.521021276317031906e-03,1.572009489658849832e-02,3.227519948568212393e-02
3.777181272605737578e-02,-5.547703018903375055e-02,-3.467622980941972854e-02
-2.021646470823693434e-02,8.275714945273994483e-02,-2.076603321568038299e-02
8.339948435868646537e-04,-8.924805892087334103e-02,-2.745858895665085828e-02
3.952732074136997703e-02,-9.691570361647763865e-02,7.094222088828475159e-02
-3.078078484143546151e-02,-5.089293192368130742e-02,-3.059812788652768387e-03
-1.084600219710561177e-03,4.708474901713554511e-02,7.335506842285283158e-02
5.129861465579268164e-03,-3.466068059194817724e-02,4.910952524558589993e-02
-3.728902834754777018e-02,-5.048305033341979678e-03,4.540838291592130121e-02
-1.959831950618746033e-03,-9.329357314183350791e-02,-7.049842471137840461e-02
2.909223069114533211e-02,-1.630255754167530061e-02,2.777374618653341912e-02
-2.032280908628293983e-02,4.155007332977493639e-02,4.391519259781108929e-03
4.693369329621054770e-02,-7.382374502498605107e-02,2.651098886251997133e-02
-5.789178344291132788e-02,3.457918433937941238e-02,-3.025390932577318864e-02
2.935559969888864446e-02,7.827219179787567316e-02,7.126310115110451315e-02
1.549961942457810798e-02,-3.783304104060460776e-02,2.934191446851509497e-02
5.260777194419396716e-03,7.056349443330456328e-02,9.696163416644391561e-03
-2.540424548616608200e-02,-5.578199690474393291e-02,-2.647335406593147311e-02
1.336742923041254506e-02,1.417495468751379419e-02,6.273847872479242083e-02
-2.583100140556312402e-02,4.542004050046207289e-03,9.951896272062422943e-03
4.203956517696723350e-02,3.006921934049550105e-02,-1.657930211822390698e-02
-2.259873374664040507e-02,-4.311986211195888846e-02,5.202292325355319796e-03
1.590102739741534876e-02,6.077874523985812155e-02,8.345949404396811253e-03
1.043601024282599272e-02,5.400322555963784493e-02,-5.974599536968833689e-03
3.242716423693207343e-03,-3.175888523154376392e-02,-5.417424580342299067e-03
8.151282628341358083e-02,4.524234709062064513e-02,5.445646448767802600e-02
-7.758774544873218125e-03,3.493310760281737731e-02,4.019825728232321455e-02
-1.559192574024777407e-02,-7.922481446308307640e-02,-6.025538066941259208e-02
-5.680940858880016014e-02,-2.172353611585290528e-02,2.057115066833582057e-02
-1.487959962205959510e-02,-1.471990509322239175e-03,-8.146865190693707015e-02
1.165187557403334464e-03,-1.320806525069548277e-03,3.983974595013749925e-02
2.202088811727877932e-02,1.728648686513854088e-02,-1.172808014836292274e-02
1.372740810816796588e-02,3.162106258209544662e-02,-1.244642622371464578e-02
-2.798442910070500153e-02,4.276510298624505019e-02,-3.318552092511735385e-02
1.057221596254599022e-02,-6.851539825992819521e-03,3.140123400162442985e-02
-2.394904579572547723e-03,1.043946184910695719e-02,7.466649812172755640e-02
3.288488831894288006e-02,-9.383892038315065978e-03,7.389334924473597507e-03
8.186929376999213873e-03,-1.244626467169065304e-02,2.279665607007702946e-02
2.593008380392063106e-02,-9.128613514300881748e-02,5.279574581586374271e-02
-3.241092467807399347e-02,-5.999003844521446499e-02,2.324288301761689296e-02
8.445305285150606078e-02,-1.717249543156113001e-02,4.404909965730828547e-02
1.887584474774707186e-02,-5.313297074796455993e-02,-9.756140539009049151e-03
1.987161659695894228e-02,-2.774200747573324355e-02,-3.783738610944962361e-02
-3.768620721422575454e-02,3.038202629687737980e-03,-4.144537555552560426e-02
-8.125462555150618146e-03,3.700762309778577158e-03,-1.918735290997513818e-02
-2.175203954819776575e-02,-1.309910791045634966e-02,2.183388914530239380e-02
-8.045644172575844300e-02,-5.295303299937036134e-02,6.697631535156136316e-03
-2.908912504356915910e-02,-9.626868956114666837e-03,-4.049483827167088545e-02
2.024159359301715144e-02,-8.275623542657921383e-03,-1.013724568055462960e-02
1.329022378142916301e-02,2.949855111805102514e-02,-8.157092379681955829e-02
-6.715173453270081860e-02,3.983410591452315325e-02,-2.126208102845671480e-02
1.471286769050885075e-02,4.101020652779425318e-02,-3.217408274922340522e-02
1.837858096193241463e-03,1.479983795552907225e-02,8.442831903272022750e-03
7.383066519376023070e-04,-3.875810012596437454e-02,6.147891750282985512e-02
-2.466255455059918403e-02,2.290121174054312800e-02,4.270518322990220911e-02
-5.952910766956828748e-02,2.081727563597064387e-02,1.322519469947017884e-02
-1.835886522585830280e-02,7.298375728116051134e-03,-3.768841231950958298e-02
2.290631297294774132e-02,2.489857808596754492e-03,7.618761004132197992e-03
-4.207478021738136897e-02,-8.587159661319691828e-02,4.157720111108405281e-02
1.565473123451480847e-02,-1.450981156108010171e-02,6.609757852465990985e-03
5.078667335994483528e-02,-8.495036534316355997e-03,-6.778375418313348222e-02
-3.244102779647253104e-02,-1.847448600432033752e-02,1.795511693743789133e-02
-4.589936383494814393e-02,-9.685322922725615735e-02,-7.174743681325602973e-02
-6.340239165878946113e-03,2.107330884568237722e-02,-8.551843525834604970e-03
-2.817119832389158168e-02,-1.522139416946372004e-02,4.449791000577831002e-02
-5.703621607728562304e-02,-6.848505031111538910e-02,8.784412718145309662e-02
-3.049588374539351568e-02,-8.171525351314100002e-03,1.494289757144370151e-02
-5.864909661859544349e-02,-6.534228682987697212e-02,2.478515883841160561e-02
-6.568131940424172532e-02,-2.484450982601633245e-02,-1.549166146588336519e-02
-5.264062333268476612e-02,-9.601814448577197791e-02,-1.079309346554738116e-03
3.471151017038185543e-02,-2.828975507939945552e-02,4.641828008708740599e-02
5.829129100710435385e-02,-1.639615498208051069e-04,-1.766155617389560811e-02
8.193490986693656442e-02,5.267820848998640282e-02,-2.465886406638341521e-02
1.142193728713209941e-02,-2.251786150259923666e-02,2.982031104042145997e-02
1.708205360267596538e-03,-3.289143993355227169e-02,-7.118193981826424765e-02
1.518393656751568233e-02,5.453005845660136713e-02,1.991839067598126511e-02
7.922021679277364836e-02,2.984848514383240531e-02,-1.118050634587226637e-02
1.738962947344798241e-02,3.045298783065813683e-02,2.146393332338683568e-02
-8.120282020466757997e-03,3.648351389266565881e-02,-3.164612667417331104e-02
-3.949041582904719988e-02,-8.764096043927155355e-02,1.580023380031396474e-02
4.271089796574945724e-02,3.509096495395913617e-02,6.199041445198379824e-02
-3.123901725519008694e-03,-6.327348600764928777e-02,3.158867081045785979e-02
7.024443918932735120e-02,-1.221113069026062183e-02,-2.571955293354649674e-02
1.781319851235562898e-02,-2.496536077101626019e-03,-1.264107310055849302e-02
4.859559407158337008e-02,2.415971483522205178e-03,-1.502176490026976147e-02
-1.153593678706394537e-02,2.593430185256076145e-02,-3.272849122016647377e-02
1.692478039849872051e-02,-4.336392824404650820e-02,-5.826351088334615069e-02
-1.809169702135627125e-02,-7.594641217486933216e-02,-3.386360013475451375e-02
1.931298208775192142e-03,-7.232811544004486871e-03,-1.734639673439523910e-02
9.512771115585793701e-04,-3.234253430646694127e-02,2.577515250327985785e-02
2.514425673107782439e-03,1.312947516644689602e-02,3.458667029320416225e-02
-1.711498422488507212e-02,3.566790698544253929e-02,-2.682043644142353619e-02
3.060182974214156054e-02,1.046341891030445068e-03,-1.757148191276570667e-02
5.523764753184241816e-02,-4.518558252358269300e-02,-1.063037317506700247e-01
1.501804311870483070e-02,-1.187898665179747473e-02,1.412731071043744555e-02
2.298613529665575334e-02,3.219743466866233084e-02,-4.679128633326499337e-02
-1.497873917411460774e-02,-1.872063218377460411e-02,-4.241405268366889303e-02
6.511259936529856414e-03,5.383188832649398597e-02,5.123045060506597331e-02
2.387070084787298874e-02,2.246960211599293919e-02,-8.639317237069457645e-02
7.959979338072360744e-03,-4.760562033162605428e-02,-6.790629506711963470e-02
-1.150656892436883322e-02,-2.134011930413844474e-02,-2.468631695988551811e-02
-2.922100995591973491e-02,-1.632474457802414111e-02,-5.339151886361467175e-03
2.660382104187141578e-02,1.696946003779568890e-02,4.188162922341636535e-02
1.090772286208908622e-03,-2.915862262242031183e-02,-6.835476004413351681e-02
-1.515540808558586867e-02,3.645964389708222092e-02,4.377864170634711977e-02
4.188378141700869334e-02,6.521066387317462666e-03,-9.873616127997779379e-02
-1.152294704426621436e-02,2.345461625531077097e-03,-3.535071300955771353e-04
-8.203822601786783797e-02,3.168124740541383016e-03,2.304945257408577697e-02
-1.166972915764336559e-02,-1.077829114966673447e-02,8.642024057177677410e-03
-2.659600006457747343e-03,-9.367266683815064429e-03,7.077086463786574910e-02
1.086586715462980607e-01,1.128193576277618584e-02,2.197710467274801086e-02
8.134222020868797989e-03,-6.247439827196554774e-02,-7.023150523038249049e-02
2.058740179039635423e-02,4.010951559104748709e-02,-6.040035395591864843e-04
5.378900370456222296e-02,-5.201745687932513018e-02,4.620611185535046690e-03
-3.489600221246628303e-02,3.889751202003832731e-02,1.495803376255411439e-02
4.625286947158964435e-02,3.760641789742281277e-02,-1.957444676271323167e-02
-6.200572812573777737e-02,-4.005799924710540943e-02,-4.020359317486509737e-02
1.987248470378847123e-02,2.195276323286213249e-02,-2.393576588154117460e-02
-2.126615365601966859e-02,3.736831829266562544e-02,-1.740146737045736650e-02
2.181605377598708900e-02,4.079010071965209761e-02,8.584646530160977215e-03
-5.780028728494316509e-02,-3.477688576298408607e-02,5.850337561709917367e-02
-5.840681276190247406e-02,2.025127372327322969e-02,-3.180136137427039267e-02
-9.606545837282379902e-03,-4.160303529964781699e-02,-1.308534543257356200e-02
-1.884218105273094412e-02,-3.506652509982333132e-02,4.915274971025620360e-02
-1.385992606132188665e-02,-4.535454016980586950e-02,2.654549674874196602e-02
9.561891188061494642e-03,2.257602077404544452e-02,-3.609601895133606603e-02
7.451142272252568588e-02,-1.527485537552371320e-02,-4.785362894693817593e-02
-2.195154225883381299e-02,-3.289501888069075539e-03,-2.342595937009122123e-02
-6.877199418037371892e-02,-8.412413987472081023e-02,-7.054975078182011000e-03
-1.025450196359675194e-02,3.568089529528291337e-02,1.062048442644768220e-02
-2.070270737749959830e-02,5.653446347115017451e-02,1.892326684054941241e-02
7.404990769994819824e-03,2.206899716856492930e-02,2.062704347022622023e-02
2.165114639552831108e-02,-3.014499519595608204e-02,-1.312471148598987926e-02
-6.067861226080626530e-02,3.671462905269253646e-02,1.279404971494661238e-03
4.347250752987056460e-02,1.851477734955274401e-02,5.935123715963860208e-02
-5.083177186483180815e-03,2.488933015567429408e-02,-2.693015553378313651e-03
-4.915455614023132164e-02,-3.072688092408849478e-02,-1.685618184567492378e-02
-6.001333690098407253e-02,-4.371800963252091971e-02,3.209245241024927253e-02
3.872883585570074342e-03,2.099391523830005778e-03,-5.574988511615927567e-02
-4.134328957811619562e-03,-4.306689452392419015e-02,-6.276918237030969239e-02
-3.388447101955052720e-02,1.073811611281969176e-02,-1.152465170930070115e-01
1.130462863152624162e-02,-2.146900482589467543e-02,1.775405337509971745e-02
-5.188350105320803374e-02,-6.148277025150396952e-02,3.762592212528430985e-02
3.000037603720158083e-02,5.500733079874297986e-03,5.270922639951898525e-02
-2.850213834022937917e-02,4.113563707542750025e-02,-3.370763340402118530e-02
2.354631314972355574e-02,7.617738111469726792e-02,8.808740942971741289e-03
2.522921532374414882e-02,2.808652160724040697e-02,-5.052976797676811405e-02
-7.625925483073811573e-02,6.397895248431473281e-02,-8.114575618590207096e-02
-1.093164675909484400e-02,7.141475885184574157e-02,-5.861839975507591310e-02
1.976157790809018877e-02,-5.170185570290535687e-02,4.678517376482450169e-02
1.051477099847629160e-01,3.256372489836485695e-02,6.811441695556311182e-02
-4.316168012955767797e-02,-6.892873285308158404e-02,1.496624252569053563e-02
-4.236234073754651525e-02,6.995021837328091463e-02,1.643592242305083953e-02
-2.867675846117435576e-02,3.068587580630065259e-02,8.799072105216344114e-03
-7.125218454179765848e-02,-4.894686819859794119e-02,-7.558778186245597441e-02
-7.029389754273775853e-03,9.874325210958729421e-03,-7.439499959931312849e-03
-2.583352212818325333e-02,6.681809992475137849e-02,1.134181336786041321e-02
-4.117586687007134677e-02,-8.343897407084664708e-02,1.823389001064107395e-02
2.294977513858501711e-02,-4.149694459083670683e-02,-6.738051908498067510e-02
-1.256413663436388266e-02,1.731004046972775198e-02,-1.290204936724095690e-02
-2.338085706161002059e-02,-2.472264864713986932e-02,-8.211829473259672774e-02
-3.304796140245686714e-02,-2.828545511369846832e-02,-1.987613916827014882e-02
1.382913315779266648e-02,4.357871228182653989e-02,4.296252630885605966e-02
6.367690527868676009e-02,-2.269184091650768356e-02,3.964935914570619224e-02
3.772508904024841469e-03,4.735064456571609626e-02,-2.902067977701417237e-02
-4.623942596906003427e-02,5.988903823885614180e-02,2.132118876442773425e-02
5.353854532657284504e-02,2.809127355360695535e-02,1.386102940613192711e-02
-4.257436128485934251e-02,-3.551913175241581261e-02,-9.973456865364148730e-03
-5.755470657039008647e-02,-7.165973530937802538e-02,-3.623227324130582396e-05
-3.127281866675005878e-02,-9.248164379203411417e-03,4.711957633090131659e-02
-1.030851180310240894e-01,-1.909573749130258173e-03,1.829200966885042440e-02
1.072876118526464202e-02,1.522008855188704268e-02,-2.298551324304658194e-02
6.758464570419463191e-02,-1.113800455330576575e-02,-6.040643116726144429e-02
-4.774430983023046637e-02,-5.030842191256482132e-02,-6.227250439610677001e-03
7.121539014779111609e-03,-2.547905006965081598e-02,3.720683034306438569e-02
6.658658294827585200e-02,-4.567841541353585139e-02,-3.447043438962793527e-02
-6.421684437394376346e-03,-2.437891668326204811e-02,5.235188709583659533e-02
2.086079366676437275e-03,-2.704345443981219163e-02,-6.932186436328370560e-02
3.792586619941058779e-02,-8.844760738856120505e-03,2.995506374684377138e-02
4.716033637800740724e-02,-2.418610373784407797e-02,-5.303499673642794732e-02
3.656791126599374161e-03,3.567096712574290701e-02,-3.599022329303581264e-02
-4.596595097095450277e-02,1.430649780000060878e-02,7.130490994052281206e-03
-1.710226565930551487e-02,4.534982086354149428e-02,-9.394573130372499718e-04
-9.205821873986188425e-03,7.135265591420025810e-02,2.172070064405685896e-02
-2.497330325775675916e-02,8.792801176065456747e-03,2.927550736416021163e-02
-3.030947796034439562e-02,7.725826678231700884e-02,1.011682918388565142e-03
5.296736535621568431e-02,2.873124850917044629e-02,8.187568846958825225e-03
1.252938114071321801e-02,2.691911111662737000e-02,-1.808567648767840305e-02
4.611994128618483041e-02,4.186558870650267800e-02,1.647348747013548109e-02
3.032841920525249438e-02,-4.166197300356089955e-02,-4.112683382026861151e-02
7.527482944488936289e-02,-1.833016835875587655e-02,-5.670723409430361572e-02
1.070110239648775288e-02,3.443161617278266140e-02,-3.847199368582007728e-02
7.053101800032152147e-02,-2.688055575539454942e-02,1.030886965641886199e-02
-6.539974126792739116e-03,1.271615700000258177e-02,-1.447229229152201431e-02
-5.537016230515710846e-02,-4.447342784504114410e-02,5.629563752728583212e-03
3.249022597181684680e-02,-4.746709065304329650e-02,-2.738331119347570813e-02
2.296130938823780915e-02,2.289976704678773831e-02,6.962317232238375217e-03
3.695440056953190611e-02,8.188584117008573804e-02,-4.850830440545692013e-02
-1.771511007230544554e-02,2.846538342463574706e-02,2.907466319553536974e-02
-3.652821858469339211e-02,-2.081786381060711510e-02,3.150078548593196470e-02
-5.058911389497387084e-02,7.085069317923427257e-02,3.236280205361091733e-02
-5.342953901713995424e-02,4.403312190042327906e-02,-3.848706655390975867e-02
7.029856828698120841e-02,-6.642192220646693512e-02,-4.357865088962107475e-02
2.577663605329467544e-03,2.434503870928405103e-03,1.372128703294067664e-02
1.516785132427319813e-02,-3.105563688994144450e-02,-2.655807568517674910e-02
9.697537673804837444e-02,4.610801405430768260e-03,5.903184839082224050e-02
7.887594364813584058e-02,-4.033487048002721426e-02,5.479256023122509173e-02
3.592788782399582853e-02,2.895806355363230583e-02,6.628543676447203568e-03
4.325523166511558576e-02,6.636265836993108201e-03,-2.866693161356510464e-02
4.235325280726194574e-02,-1.280389734240483177e-02,1.346161551455995033e-03
2.817746206931925554e-02,-5.189677426522730508e-02,5.159816627653669024e-02
9.061593596491834823e-03,-1.190755154286889106e-02,-7.598488964666372247e-02
3.932899158094689540e-02,-5.060899477105067039e-03,3.802984085328856012e-02
5.637396161828178015e-02,3.809232476532062317e-02,-4.320920236011836779e-02
3.924561362159396244e-02,5.189627360645659992e-02,-1.926751038322383229e-03
-4.153548385654083283e-03,-2.837552182064034464e-02,5.156348558929504076e-03
-6.264447278639083405e-02,1.298174299835753998e-01,2.109258439255052783e-02
-2.991636667503047402e-03,3.680385024124070009e-02,-5.270926045562700918e-02
1.512062856465629969e-03,-6.377650809644017094e-02,2.022540273171886602e-02
-2.987915026548171316e-02,-1.562823860436561227e-02,6.570813111404694151e-02
2.159668279658473813e-02,-5.204936101450653024e-02,6.067872217881027652e-02
5.961020432199441027e-02,-7.170356086782360416e-02,-6.564043880926546948e-02
3.605625651228679812e-02,-2.315300675230777538e-02,2.478086847785500660e-02
6.615584494383953962e-02,2.382684468233787003e-02,-8.324524606118470504e-02
2.280912008103590672e-03,-2.840906239609273728e-02,-1.598848293450335148e-02
4.889559841402174589e-02,-2.779664391949645402e-02,7.479344404965274085e-02
-5.850845575344569560e-02,8.364017249575299295e-03,-4.282833945837089679e-02
5.060423823175311253e-02,4.749118746701407046e-02,-4.879499847726870287e-02
-2.709370509225771453e-02,-6.710080332973461514e-03,1.166683926812690786e-02
-4.669048199009213224e-02,2.666351346467644989e-02,-9.192693403726048818e-02
1.724173731261496867e-02,7.324480236082465956e-02,-4.810290382665871611e-02
5.235972905068875943e-03,4.690875282381241212e-02,-5.827521989890632054e-02
5.222797250909672062e-02,-1.162111502456595648e-02,-1.059550852478986782e-02
-5.423360117441349687e-02,5.259746343520920603e-02,-3.760197801161680592e-02
-5.933093492658438051e-02,-4.547406906386041586e-02,-2.714023551845580126e-02
1.896646412252123159e-02,-7.761850978819560820e-02,1.651555529527576165e-03
5.803243108908848896e-02,2.289791081132988917e-02,7.634757856044213642e-02
-3.171976800312725341e-03,-1.696999793811340002e-02,-5.526876869902377920e-02
5.910471829381709619e-02,-2.013368573316675139e-02,6.087562731076336109e-02
3.004257424446139454e-02,-2.123010682764108620e-02,3.386178827775766786e-02
-1.746746025772817883e-04,8.790541384779434683e-03,3.015710675136374155e-02
5.064278500278582978e-02,-5.322653531099194590e-02,-1.328105348627990970e-02
6.981611725258826673e-02,-3.059890121513703445e-02,2.529159626416907156e-02
-3.291066919543392255e-02,6.930251748295755687e-02,1.309849275530808495e-02
-1.051286010518037370e-02,-6.195032793385873288e-02,-7.403667872332688783e-03
2.281735747541212105e-03,-2.287538917161323002e-02,-1.997743866667140572e-02
-4.136618497606000394e-02,-7.947917031031770385e-02,2.969269329796356618e-02
6.443198880365798298e-02,5.081649401697704155e-02,3.754874114092270065e-02
-6.106664057086606812e-02,-3.396548337773920567e-02,-9.868658434468005614e-03
-3.536948519737760643e-02,-2.750170716413162172e-02,5.208895233804046454e-02
-1.175045927788635237e-02,6.112093233037728390e-02,4.872294724873952633e-03
-5.797517781481423965e-02,-2.334478369407020845e-02,6.417604251947078842e-02
-8.410022910490137782e-03,-4.281914167587242553e-02,6.953857727270459921e-02
1.440155103347121913e-02,2.206977263928238189e-02,-5.626752178730658367e-03
-2.082064315523995957e-02,4.977507361849408535e-02,-3.393106797893239573e-02
-2.602926980470294735e-02,3.699222505778044373e-02,7.942145912945124120e-02
6.326448074798885325e-04,2.132015723463107429e-02,2.791286472229546553e-02
2.846942302610506320e-02,-3.130752515565181360e-02,-4.084677504923403535e-02
-4.012036563995269312e-02,-3.645153776111939581e-02,-4.440469097911812352e-02
-4.405997894621972027e-02,-6.212313038032956508e-02,-8.487929482934289740e-03
-4.611378050075241875e-02,2.617482488700237364e-02,2.185760324476597807e-02
-3.400968636451897481e-02,9.821842685013168484e-03,-3.485708611925363715e-02
-2.668743602983676775e-03,5.328896314385272309e-02,2.110743098692022951e-02
-2.704222800432798737e-02,2.996768943490961401e-02,1.104464869861766958e-02
2.927636532290789351e-02,-3.666815679480482648e-03,1.577052165242739858e-03
2.815855558148603645e-03,1.002276518706145605e-02,1.889339553858155468e-02
5.590826453111431837e-02,-2.594437426018507409e-02,-6.285407141208497472e-02
5.244695206012893463e-02,1.020663237442812205e-01,-1.250148416754275418e-02
-3.071314427277315948e-02,5.858014311699784316e-02,9.077170112375821179e-03
1.541791966838518789e-02,5.736289323859041465e-03,6.428107450381428944e-02
5.452489198897880751e-02,3.309292851600960372e-02,3.109434914176445464e-02
3.998499256256774631e-02,-1.346202880554088314e-02,-3.730196628415484439e-02
7.596878304912329594e-04,2.396570034794497442e-02,2.242655654391618666e-02
5.671343485168659285e-03,4.665320930659782456e-02,3.306611668713996949e-02
7.872907403171722218e-02,-3.284014011739427169e-02,2.831162648563779680e-02
-8.548817036725603682e-03,3.109290724529011063e-02,1.097978511276583198e-02
-2.789275590792771823e-03,-4.498664684888249027e-02,8.085583918774058576e-02
-1.517193372794589136e-02,1.060915216267788782e-03,-1.395895871407760308e-02
-1.428547081199873364e-02,-2.472112600510794136e-02,3.135753640178054469e-02
-3.660353589246240213e-02,1.893093295949769064e-02,3.135244508629887739e-02
-8.860482134238942264e-02,3.627012833383864293e-03,2.978134715397611973e-02
-4.840790548251712455e-02,5.985014246810644277e-03,-2.433795901716409929e-02
5.041615504702839923e-02,4.802842508099319785e-02,1.824664337945050216e-02
-3.186613670884357735e-02,2.899334199210879676e-02,7.785002219864806117e-02
1.510565803361782868e-03,7.673070765958109156e-04,-1.229616787378310164e-02
-4.784968396583721972e-02,1.475434932537070427e-02,-6.105734512764795369e-02
-3.307797729964481737e-02,1.609696528038306526e-02,-2.889729093765790180e-02
-7.567946345033237099e-02,1.804241016726744820e-02,4.423187860658343157e-02
3.563245348654654060e-02,-6.744763279516843846e-02,4.330838050936182404e-02
5.280843034267227593e-02,7.385493458000945248e-03,1.032529002620059984e-02
4.594770601144340660e-02,1.394337181067145139e-02,-4.080262374559651822e-02
2.270554772137458460e-02,-9.310518048403359712e-03,1.232331912378454436e-02
-2.503088078257604751e-02,4.025553968018563689e-02,4.343381518912964312e-02
3.650257913535863430e-02,5.152692781161152119e-02,-6.524032606924799749e-02
4.452344544438552321e-02,1.744753917252402087e-02,-7.519595188616817749e-02
-5.874604109970493759e-02,2.992048519241175333e-02,5.672645100294489151e-02
4.155484291029834520e-02,-8.665551155285703203e-03,3.792449974620657610e-02
1.435314126379422760e-02,-3.715620414633048763e-02,-1.515210071489043108e-03
5.631117892956229295e-04,2.477501303134549762e-02,2.562047760567889854e-02
-6.353273632928180779e-03,-2.276082912580184442e-02,-3.950579764328186055e-02
-4.408183457042796904e-02,4.623277530255617135e-02,2.630778801981810411e-02
2.160938245893829438e-03,4.251268961541054131e-02,-1.642882158177722896e-03
-2.782690024494562098e-02,-1.558348610036540578e-03,-4.085903884762083493e-02
3.987363407408920507e-02,2.454642962458187735e-02,2.236204062429654124e-02
-8.740241887231277318e-03,6.651893107765656510e-02,6.500630421037690253e-03
-1.763718976978806419e-02,-2.511236813022290487e-02,2.618001148354231686e-03
-5.929059476509958293e-02,-2.269110928500308114e-02,5.138036295202618592e-02
-3.420211694438641831e-03,-1.667448458194201524e-02,-7.514962566585170478e-02
4.685582036969925673e-02,4.511786480252500363e-03,3.086987254029302866e-02
1.106172631367524292e-02,5.110888275720629204e-02,3.690259197174788203e-02
-3.393231603976522986e-02,4.013720685871430272e-02,2.966675989012410725e-02
1.783710793532382669e-02,3.276938958367073967e-02,-1.002060622105343211e-02
-1.013585740570636939e-01,3.666836630597689051e-02,2.819318721523633720e-02
-2.806719544594124885e-02,-1.482493211190238046e-02,-1.629477606165742609e-02
-4.268777982147967803e-02,3.479810206538357098e-02,1.163554391118496768e-02
-4.520657534879496398e-02,4.207896877966910837e-02,-5.428634236742777008e-02
4.770129098952062552e-02,-1.790127926342541167e-03,-1.971825703305873142e-03
-5.940896296129558572e-03,2.019296537749818571e-02,3.352798691609113618e-02
3.966330125704457116e-02,-8.498816603644523873e-04,-9.006985840575473497e-04
-4.499003639819510597e-02,-2.421885836835161246e-02,-1.011021530538912250e-01
-2.513345854329396625e-02,-1.552883336458732617e-02,-7.065565878894314311e-03
4.527392368636769943e-02,-1.018266833264269006e-02,-4.085718937071896456e-02
-1.103751106296874257e-01,-2.727731448560088631e-02,-6.461222489749137918e-03
8.242227101674879861e-03,5.506163288933173250e-02,2.141668472397387918e-02
-1.186260497531024284e-02,-1.058747391619963979e-01,9.843216128080277405e-02
6.706745906236097343e-02,1.690136334128790677e-02,3.826676784105057568e-03
4.485039628073767687e-02,-1.527191938158877903e-04,-1.714587655258786522e-02
7.886860037444145752e-03,2.386360437765230533e-02,4.483800737793228186e-02
-3.750009709198795504e-02,4.590689299253004202e-02,-3.695092318438127077e-02
-4.095130126817474181e-02,1.652838832175534262e-02,1.436744586078416396e-02
7.977528086535918411e-03,2.227893070694551142e-02,-4.052091540556699081e-03
-3.476407242745055415e-02,7.966752891797708458e-02,6.517853366943610061e-02
3.439997811778511272e-02,-1.851066406639596124e-02,2.094806683269056363e-02
3.709819869516927521e-02,6.877461120294299513e-02,-2.372384771347222504e-02
5.538527794053485498e-02,1.290001179871574921e-02,1.104107672342406060e-02
-3.011405044991185068e-02,-4.388799142810460158e-02,2.558165215271450063e-02
-1.292339521562274694e-03,-1.439065237415722634e-02,-2.427909694518053108e-03
-2.706856916906897823e-02,-1.292225469691276989e-02,-4.280807299968564933e-02
2.758934359722289148e-02,-5.908460349448907455e-04,-7.765433003043686888e-02
-2.048268127215041243e-02,-5.682201917985163497e-02,-3.096428696758492596e-02
1.733959598616115205e-02,-8.291065129510971632e-03,-4.985056837984578292e-03
4.377527909572895976e-02,-6.119910199842475834e-02,7.302988144315681641e-03
2.205882672816142712e-02,-6.869952370832316593e-03,-1.344492170580943334e-03
9.164155015998988810e-03,-8.028009952394009330e-02,5.688765368048616898e-03
-4.391355291292410763e-04,-1.208071266414690800e-02,-3.640361224526428990e-02
4.197428438439023551e-02,-9.040469525990060080e-04,4.492279654184535426e-02
1.202277728083271484e-02,1.186445698022707551e-02,2.023802641878566511e-02
2.645955036586723416e-02,2.830304544879168327e-02,1.061501502043720457e-01
2.612928718893106975e-02,1.660899179087654484e-02,-7.538149883214929209e-03
1.656065127232383234e-03,6.737949875494361751e-02,-1.622771610258460367e-02
-1.800260264928909074e-02,1.734032425403057853e-02,4.073581570530187407e-02
6.007560804529735177e-02,1.401628219236642631e-02,7.093175330866623336e-03
6.433759878606788718e-02,-3.994658526353209171e-02,-8.804371156513166041e-02
-1.031742095347076282e-01,2.808964041669630499e-02,-3.037244645593075235e-02
-4.729366215877951751e-02,3.574913015047902209e-02,-1.522382837244327936e-02
-1.571911859539300987e-02,4.677463784931321783e-02,5.547807393171367424e-02
-5.888219497782000433e-02,-6.050604466641399531e-02,7.245650562819343395e-03
-1.459585526679242802e-02,1.006889966824472682e-01,-1.360201563266272458e-02
-3.241700977194346411e-02,3.010964503386580338e-02,-2.069217946977220876e-02
-5.480555330133738551e-02,-8.049138572266803515e-02,-5.114219183710095457e-02
-8.059856933799467230e-03,-1.233744051638292066e-02,1.008130483728428804e-02
1.667929846625518242e-02,4.927950358496462763e-02,-5.464632355011488779e-02
-4.185507938029565944e-02,-5.976413845891264537e-02,-1.699034515665979322e-02
6.772062006499961206e-02,9.961121706903083850e-02,-6.747025615125029629e-02
-1.082600008150004095e-01,-4.446674233849704644e-02,-2.942999434481568394e-02
-3.179445567248231908e-02,2.004865298308162319e-02,-8.125692427057532030e-03
9.138889216667386850e-02,-4.631903955055817479e-02,-5.031297686309642303e-02
5.366734317857720094e-02,5.059531595789706210e-02,-2.341369863086354211e-02
-4.436747011332446006e-02,6.845085723189375457e-03,5.472936460055696957e-03
5.841318413394048234e-04,1.335321453600188044e-02,2.959931160222781070e-03
4.153889776399816158e-02,1.051589809325301043e-02,-9.455849823931815681e-03
5.906439142828633082e-02,-3.309468940234890771e-02,3.970243972404102067e-02
2.230932488903296027e-02,1.034225051328197149e-02,4.309837855051006084e-02
-2.027603606005549952e-02,6.136897152970636343e-02,-4.862889707942574108e-02
-5.755433613604466619e-02,-1.446260355072858349e-02,5.221414413332318982e-02
-2.097063237511919906e-02,-4.867661337782185765e-02,-4.633448080275068964e-02
2.749728251980660624e-03,-6.811732610307295877e-02,9.054089944687502027e-04
-4.307830691031984405e-02,-6.023847264165888699e-02,-2.358234479564500635e-02
6.176996672591739818e-03,2.304143967424700581e-02,1.650449591929391974e-02
-4.118049124095716704e-03,7.111006058766177265e-03,-3.220812061039609459e-02
-2.831427058956394877e-02,-3.000805953596754477e-02,3.199274298572865431e-03
-6.814002870099125121e-03,3.117749083955979883e-02,-5.153421634057083790e-03
-3.332716337384378918e-02,-7.331331303865823087e-03,-2.172158198252881981e-03
-2.273841155437984068e-02,4.340000349243960942e-02,-1.197640190221547878e-02
4.134020481075748737e-02,5.465416968122480817e-02,-1.481405492104331638e-02
2.359757169168787486e-02,2.756340016468821884e-03,-6.997996133126996657e-03
-1.746060408313896209e-02,-4.040335470410617164e-02,1.152903979795057016e-01
4.004661851761649738e-02,2.317196434360414489e-02,3.922054102921047891e-03
6.699841992547103664e-02,-1.042355465648176355e-01,-6.383863180767043732e-02
-7.811121156754763980e-04,1.086923396420186663e-03,-1.052725225510007905e-02
-8.021333717096826299e-02,1.004813672474089425e-01,5.772608533383345036e-02
-7.612790053574397531e-02,-3.704214927392879275e-02,-8.992350889408312273e-03
-2.068143667137564527e-03,1.165758138766963617e-02,-8.009704828928050635e-02
-3.930550339668327509e-02,1.893495298795788012e-02,6.928068661432873476e-02
3.786837182207122843e-02,2.761795193012844471e-02,5.076578471812251414e-02
6.380174289344391070e-02,1.497029100902899368e-01,-1.743456587617758097e-02
1.378423594181828887e-02,7.986524157181171257e-02,1.131449137408640365e-02
1.659911450381363826e-02,-4.343797443357400728e-02,2.864866703649263102e-02
-3.337077042703250757e-02,-2.385711896040637950e-02,-3.529971589149544231e-02
-3.352437086323607329e-03,6.508244543613375677e-02,3.759888687301214671e-02
4.076342704326688104e-02,3.268097314800740699e-02,2.181844531707377837e-03
-7.988914088952243529e-04,-4.802682485770515784e-03,-6.163082946673215795e-02
-7.617178514993444560e-02,5.255723508863310856e-02,-1.435566559545999737e-02
6.560438181091692023e-02,-2.718689188560886871e-02,4.106034936713492955e-02
5.937564648810480378e-03,-2.048932860775051421e-02,1.157585435903739773e-01
3.639391147167023166e-02,-1.280455305411717058e-02,1.019590301544826272e-01
-5.962699655434066520e-02,-2.737861433322077986e-02,1.963108437277553964e-02
-4.374731781871291081e-02,-9.874564153568743397e-03,2.555698352275404678e-02
6.584766598444180552e-02,-4.130185443101742904e-02,-4.319027570885573819e-02
-2.163353429471762471e-02,8.063042788102625993e-03,-2.075394296047883280e-02
-9.241244694104798485e-02,-1.270194219651126638e-02,-2.582938579470490936e-02
2.848601681037711206e-02,3.340080094187849319e-02,-6.491118516511540718e-03
3.268852419523868291e-02,4.101196084816936122e-02,6.759553341612177524e-02
7.069372480569034722e-02,2.787380988926757563e-02,2.578665162112649817e-02
-8.770797926583730197e-02,3.664693086965611479e-03,5.696710163300075513e-02
-2.183511667276264931e-02,-7.937055319303190637e-02,2.905514124838947179e-02
1.453595622935842206e-02,-2.865214539660987034e-02,-1.592026294664275476e-02
-1.089888200406042423e-01,8.340230883879978449e-03,7.145612143292666765e-03
2.009598740140714629e-02,1.973903653814693820e-02,2.094884131296423802e-03
9.143810188892925739e-02,3.856445740696059360e-02,5.792034478355867662e-03
3.034938310010082754e-02,1.221160801048891279e-03,-5.707088729182154679e-02
3.852559845781881875e-02,3.123142712103849084e-02,6.632453331661909484e-04
-1.580804625757789572e-02,-2.610643836694285375e-02,-1.117127340854206646e-01
-6.332175650072213724e-02,-4.507472311298911516e-02,-5.708263991604102527e-02
-5.284759003291642637e-02,-2.770997722106778235e-02,6.832862281986505637e-02
-4.664527633976984534e-03,1.340459351706156654e-02,-1.792709326296069647e-02
-1.736977180059660550e-03,8.919698704353336283e-03,2.668842157137171420e-02
2.402217903336531513e-02,-4.626936178353591340e-03,-2.493217399382208210e-02
-6.256094996934374874e-02,3.699094021592387593e-03,-1.973083723827119204e-02
8.010891421392494268e-04,-2.749078962889266869e-02,3.075873468355693873e-03
-1.472741951126918872e-02,-2.818672588037419643e-02,2.731160068966242971e-02
1.574259686350345730e-02,6.996128365703301044e-02,8.410340573260842098e-03
5.759344657985655119e-02,-2.393052958083210363e-02,8.576761055403702913e-03
-1.429928989839495540e-02,3.238081568519488029e-02,6.122449393256571004e-02
4.035108182813080396e-02,-1.509827507575464516e-02,-6.637279201782367993e-03
2.381195574200327403e-02,-2.442093182227172282e-02,-3.655320816698539449e-02
-8.853058216068810868e-03,-1.138343949341966976e-01,1.237458756997688973e-02
-3.103046041981858544e-02,-4.178889520451293041e-03,1.148829363355330195e-02
4.000952600457114566e-02,-3.572496256705914169e-02,1.111802646161418329e-01
3.889467503417148864e-02,3.907945644579600974e-02,3.155152566449152124e-02
-1.249291814801860821e-02,-2.264899934865331060e-02,3.435304680761164242e-02
1.387785413505084921e-02,4.557087999622491670e-02,3.027633866542667977e-03
5.756431251817174105e-03,-2.926209338707197460e-02,-5.333343426793318159e-02
-1.486890892620150147e-04,1.386271525745714876e-02,-3.379581822037205224e-02
-3.819180622472985454e-02,-2.022565770078153802e-02,-3.044311639144993420e-02
2.978519742689615321e-02,1.802848120894733064e-02,-4.883665957399125832e-03
3.470944970401681345e-02,-2.257945327663216442e-02,-4.018334141513008051e-02
2.216993276491983911e-02,1.383897845292431789e-02,2.897276298480242623e-02
6.200755465508266985e-03,5.653278723040377346e-02,5.825381631536143828e-03
7.585578966437547116e-03,-3.325230400029118710e-02,5.438596782877438973e-02
-2.003122339624971784e-02,6.882737196412026283e-03,2.802350366085257921e-02
-2.883329402887445034e-02,-4.541318593905636913e-02,-2.401792534807821108e-02
1.519581143585508817e-02,5.231475957056397341e-02,-3.320900855564009463e-02
2.856651420653623374e-02,-6.240405997693223260e-03,1.112298631339091876e-02
3.007562198910886803e-02,-2.587524690182405052e-02,2.904672501619471811e-02
-6.095781689744526888e-02,2.755825943589009994e-02,1.014268206203875755e-01
3.216536437580903244e-04,1.615990690389813161e-02,-2.273843708666008212e-02
9.044372639263845159e-02,-1.375280757601555527e-02,8.668357957503501632e-03
-3.925517064012573609e-02,-1.456460664329300297e-02,-1.351649229591495721e-02
-1.625411172663273826e-02,1.322231264563570111e-02,3.261575576750614519e-02
1.166479653429435687e-02,-5.730008866749186289e-03,-2.059516665104567379e-02
-4.039651874831825390e-02,-1.358013492450126092e-02,7.591922376647223906e-03
-5.336759619140726135e-02,5.058384933601905997e-02,-1.252280481026799008e-02
5.042842160831847997e-02,-6.068773372115675302e-02,6.665645201448188416e-03
4.041029735845737270e-02,6.462873729464128046e-03,1.358545483003021151e-02
7.038986197877689088e-02,1.049871936506579090e-01,2.358452434847571177e-03
7.759956928746280548e-03,-7.863859810646052842e-03,1.583580594617738091e-02
2.555976358859269725e-03,3.914067028041570001e-02,-5.394508010334518600e-02
-5.749700785776642314e-02,-5.051054240228165793e-02,6.854116195114465238e-02
-6.285844689900303706e-02,-1.336625743000995070e-03,-3.863254783552905886e-02
-4.505470161832052928e-02,1.210615789005008505e-02,-3.131360727009964429e-02
-5.065601760893116701e-02,-1.455263380486397640e-03,-4.281810531178602275e-02
1.113449806277803066e-02,-3.432530472033022955e-03,2.316910566938793371e-03
-1.534057740645744863e-02,6.640463146586281229e-02,1.498839341705131452e-02
-3.120504141435698556e-02,-3.670603194179111739e-02,-3.273015378135424314e-02
4.287112989077272035e-02,3.047693080088577366e-02,-1.186037653688542750e-04
3.430601759724067473e-02,-1.670896416448791957e-03,4.109800706337256304e-02
-1.161989407203904874e-02,1.082929597819860257e-01,1.808841964286806228e-02
-1.098412094199516589e-02,7.719380491152509627e-02,6.349411600803052391e-02
4.956358849899106939e-03,1.048477864477513274e-02,-3.836238998381899523e-02
6.830875163223661117e-02,5.881580948314825419e-02,3.170596819575149938e-02
8.234633891402942663e-03,-3.813683973980742242e-02,-2.639457340081297759e-02
-5.327822726047614504e-02,-2.347865633040843725e-02,3.124508932040315559e-02
1.334763317942260115e-02,-3.973994102220291397e-02,3.852814500641215528e-02
1.866561252788716480e-03,-2.850228169965816211e-02,-1.109722283750939681e-03
-5.951147874661504023e-02,-6.836253768653789524e-03,3.335162014970784877e-02
-8.825562489227313512e-03,2.261212497011790695e-02,2.145034411374789618e-02
7.003617488130768620e-02,2.390983014887191824e-02,-2.641407596658337451e-02
9.214739729810711433e-02,-2.458486459708583705e-02,8.897643204332429667e-02
2.946891270160346271e-02,2.293936950605094532e-03,2.356505714318540140e-02
-1.230074971863677827e-02,-6.813495014935450067e-02,-1.101290105079446874e-03
-4.553567392635229222e-02,7.678305027694487528e-02,-7.259962025514912244e-03
8.197251673607343359e-02,-4.613339848927735382e-02,2.965330812009786890e-02
3.073476219479294100e-02,-1.426940085038431137e-02,4.766055543528471133e-02
-4.573254064189383183e-02,8.698555102329443706e-03,-3.719299109355429095e-02
2.242182561626115261e-02,2.760768025664213712e-02,-2.103248874687673603e-02
3.075495559862176723e-02,1.194247532013859546e-02,6.356745427574168363e-03
-3.499912222169241499e-02,1.796914795748457902e-02,-2.689989939100207589e-02
2.305894070968855791e-02,4.495886689974934458e-02,-1.104414014638929048e-02
-4.596689972369395055e-02,-1.261146487132071975e-02,4.585044297008728301e-03
-8.544016282979659260e-02,-9.640404866573672182e-02,-7.257253697343368781e-02
-7.257067858909684033e-02,-3.641227174345148393e-02,-8.719378492150753335e-02
-2.441019198334046930e-02,1.749688968609538695e-02,1.606230195873802752e-02
-1.313020534643471841e-02,2.056197145527998565e-02,-8.156867403113593484e-02
4.369155971048132962e-03,-1.328541675335864931e-02,-4.014696838540648266e-03
2.139167471870966411e-02,-9.832288481469250718e-02,1.197518332456536279e-02
-3.129024017351039050e-02,-5.315930047253468460e-02,-7.544583279989169888e-02
-4.007458112287824725e-02,2.202506498292459980e-02,-1.830282224012514183e-02
7.611472687818847394e-02,1.909456290646540863e-02,-2.387385330978666897e-03
4.599231827087117003e-02,5.294018580849649269e-02,-2.776636343366823897e-02
-7.307411178006686416e-03,9.022431050095184105e-03,-9.551809263506811504e-03
6.981695434363612007e-02,-1.612046086216860005e-02,-1.551146330139193882e-02
-8.320375121141769525e-02,-1.684392183244982390e-03,3.445411493444551065e-03
1.637127028773308068e-02,-3.031772084615885765e-02,2.533049032715293733e-02
1.129342368807776005e-02,-5.522542253735350515e-03,6.869567430207561276e-02
4.979002632802596515e-03,-2.407099537296637781e-02,-6.073102392778963188e-02
3.148478625857158153e-02,-3.950779556643058826e-02,-5.682738704637908811e-02
