accel_x (m/s^2),accel_y (m/s^2),accel_z (m/s^2)
-9.953194326312699847e-01,-8.287762214107735614e-03,-9.801252963091915404e+00
-1.901388810912125971e+00,1.775504824915216228e-03,-9.786882469344407198e+00
-2.715200130242107601e+00,1.450003576636277195e-03,-9.782712226729367799e+00
-3.449960482148729302e+00,-4.274278554446814260e-03,-9.786958788444067636e+00
-4.093760653085848134e+00,-8.187287192061163321e-04,-9.803512286984100044e+00
-4.686672835280104366e+00,6.790962850375331129e-03,-9.805434067238737228e+00
-5.221209725482434116e+00,1.929088996164467131e-03,-9.794534378444543776e+00
-5.693099664629392542e+00,-2.893534955015602747e-03,-9.807475537600799598e+00
-6.121683400437250455e+00,5.673961412764429342e-03,-9.791063536764957220e+00
-6.508730234968734152e+00,1.490405727799660801e-03,-9.807023032829354392e+00
-6.865745063816680371e+00,6.107549508194606500e-03,-9.802779599364351171e+00
-7.178745918968893136e+00,1.171098597062914491e-02,-9.808384638889291907e+00
-7.463358300753022867e+00,-5.256120714734550600e-03,-9.806797628094052754e+00
-7.713444422926483135e+00,-7.450138779732742595e-04,-9.801060256799372539e+00
-7.942781055112368094e+00,1.569918264107172555e-03,-9.800990276349747177e+00
-8.134770705266200608e+00,-4.431430061956741044e-03,-9.785531196421233702e+00
-8.335426515500158118e+00,-6.340998571044796986e-03,-9.789824783769194738e+00
-8.500866622037063891e+00,1.901188598785805064e-03,-9.783824267969048805e+00
-8.650579167945954495e+00,3.745947497729007220e-03,-9.801793640008890307e+00
-8.786293385765542752e+00,-1.101975644481839600e-02,-9.816577549374597922e+00
-8.897838100956475316e+00,-6.308575339097043273e-03,-9.803961375438158043e+00
-9.006370975129765810e+00,-1.383007929088356713e-03,-9.788914591129413978e+00
-9.112937834208995724e+00,1.038292360203402730e-02,-9.802976737181412048e+00
-9.206685362009084272e+00,7.634268406650599088e-03,-9.799157660640405609e+00
-9.282543177796142686e+00,7.492468369064464277e-03,-9.785739618666207562e+00
-9.354633629207430801e+00,-7.941124308649998714e-03,-9.791521816134206802e+00
-9.422323776023526776e+00,-3.810769096386936068e-03,-9.787283205463975122e+00
-9.481148678842583166e+00,-7.454280909133301387e-03,-9.792878486113119507e+00
-9.529505134938288435e+00,7.719077872107547606e-04,-9.794260789255895716e+00
-9.576661134490974447e+00,4.801087117293476904e-03,-9.788970181970590545e+00
-9.620521385204417797e+00,-7.143645234091053570e-05,-9.785260025051654154e+00
-9.657485444568219890e+00,-2.681650259034173717e-03,-9.788474041343313559e+00
-9.693888153423577236e+00,3.278491760845030339e-03,-9.793642583886498443e+00
-9.724323574953395166e+00,3.891789604912580195e-03,-9.795311319168032327e+00
-9.749892387827870266e+00,3.731632567115981697e-03,-9.805138032437827889e+00
-9.774231107502124871e+00,5.899174773085799454e-04,-9.795172112673439457e+00
-9.791621304589574137e+00,9.524541633460548856e-03,-9.802904745049289659e+00
-9.812495990743371976e+00,8.347585819015913497e-03,-9.779482962802992674e+00
-9.843992637136107504e+00,-1.022573944950515984e-03,-9.798256299178397910e+00
-9.853768907114375253e+00,-1.018014321084154475e-02,-9.800148413729555585e+00
-9.869409907171581509e+00,-2.443895036719794921e-03,-9.800392920678246966e+00
-9.878932787347192601e+00,5.093103216106837153e-03,-9.796842873677723773e+00
-9.896275514015620445e+00,3.092529572050281388e-03,-9.800002329069430473e+00
-9.902409934108320044e+00,1.014347839040185238e-02,-9.782767957395803293e+00
-9.909205865600752006e+00,-5.006291000823504846e-03,-9.797306382585363238e+00
-9.916960114555536165e+00,3.730186290943372611e-03,-9.794084144146738780e+00
-9.930299656868983860e+00,8.592712897488698556e-03,-9.796290638654642891e+00
-9.936922875401879907e+00,-2.550788264752343326e-03,-9.790796061579390752e+00
-9.946455658289806934e+00,1.143070296488487127e-03,-9.795324530877223879e+00
-9.946461887215182429e+00,3.560936112869071083e-03,-9.795350167810207509e+00
-9.954087571553577263e+00,-5.795631659690593041e-04,-9.786814526617288124e+00
-9.958966982543199009e+00,-1.438864476804721558e-03,-9.792385077325961973e+00
-9.951011446105232139e+00,-1.278063271531107783e-03,-9.796129237268438317e+00
-9.972425809912497385e+00,-1.112237626474213426e-02,-9.778028421823263372e+00
-9.968551186361510830e+00,-2.400625950357338813e-03,-9.796151384787837202e+00
-9.977542141587443680e+00,5.353430275185834357e-03,-9.794466339122990917e+00
-9.970330151673771013e+00,2.794654260038055907e-03,-9.785494926899497514e+00
-9.972329775184670453e+00,4.795290017017650105e-03,-9.805373631252914279e+00
-9.989745443602513930e+00,-4.209017895793586671e-03,-9.804870505755440391e+00
-9.981271490398535562e+00,1.922295423858179104e-03,-9.806357682205858239e+00
-9.977887658104327429e+00,-2.280574347429421660e-03,-9.799535799982214357e+00
-9.992280142982924218e+00,-8.767152634809786613e-03,-9.790773343533382800e+00
-9.972357250533949724e+00,4.014113778803525068e-04,-9.803793626428920049e+00
-9.986311502387403394e+00,1.484986056727155730e-03,-9.785795062533923172e+00
-9.997160685613405207e+00,1.169836299505857061e-02,-9.785138763018563779e+00
-9.987881012589982177e+00,1.945805589298145108e-03,-9.801479486955436471e+00
-9.986392036429363017e+00,4.066684205082503486e-04,-9.792853267988940402e+00
-9.992423233167535557e+00,9.059780407542856800e-05,-9.802815468725594172e+00
-1.000266033173370417e+01,-3.087050866349148274e-03,-9.800863147207257597e+00
-9.995854456317200487e+00,5.734366036835935633e-03,-9.786593604089492970e+00
-9.989071988426507787e+00,-7.270722921085281260e-03,-9.798046928987711013e+00
-9.992074140194755927e+00,7.462587508747960119e-03,-9.790846983512205171e+00
-1.000737013620176974e+01,-5.678862926445270125e-03,-9.796513118345343329e+00
-1.000262124558446786e+01,-8.109717725156122010e-04,-9.812365688643106765e+00
-9.991879005095901434e+00,-5.606485435601345386e-03,-9.807267928526679057e+00
-9.991894503613078626e+00,2.293486613308203231e-03,-9.787008532044474407e+00
-9.993054466024730687e+00,-6.512158525984821332e-03,-9.793879493935335745e+00
-9.997758529838614905e+00,6.397302438815768121e-03,-9.792911170942147692e+00
-9.998523417096933485e+00,8.670190463124886893e-03,-9.802223974652280347e+00
-9.996014342209518233e+00,-7.293279295968841183e-03,-9.799887482893545609e+00
-9.996411817270580258e+00,-5.283630223687192998e-03,-9.792794403572338879e+00
-9.992072489427830106e+00,9.922915995992228830e-04,-9.795878182698478653e+00
-9.999910114054291199e+00,5.662962568328932210e-03,-9.792127274333338960e+00
-9.995112300286246310e+00,7.885748498840045376e-03,-9.805004188649881769e+00
-9.997783710681469316e+00,3.272487144935488880e-04,-9.800156041712428490e+00
-9.995992290676902314e+00,-7.315627092677062099e-03,-9.791661331743357621e+00
-1.000315326663646509e+01,-2.065987762620154124e-03,-9.797616849308603548e+00
-9.998441200009709817e+00,-2.074209219054144650e-03,-9.801440398388935549e+00
-1.000044569957047713e+01,-1.541362352983633756e-03,-9.778895514300227632e+00
-1.000319468509601073e+01,-9.292118771484728784e-03,-9.784425827298449008e+00
-9.993683008775670729e+00,-2.601527236143358086e-03,-9.797666703294650503e+00
-9.999395789043125760e+00,1.270573425908121156e-03,-9.795315179612464007e+00
-1.000019133765354162e+01,2.635499236607266680e-03,-9.790366349605553964e+00
-9.991182175522517639e+00,2.997691236863221555e-03,-9.799770461955469969e+00
-9.994896085126239171e+00,1.116873120300066781e-02,-9.794652117790837664e+00
-9.989929932373023291e+00,6.928329334534468050e-04,-9.803919165557097415e+00
-1.000230406544589989e+01,5.042445370328407263e-03,-9.794163333440126351e+00
-1.000547204930963652e+01,3.510093906155244635e-04,-9.767049998441910574e+00
-9.998956743616050247e+00,4.701836575927220881e-03,-9.789432370054774069e+00
-1.000098198077959388e+01,9.010297516434648962e-03,-9.777777609654149771e+00
-9.992257570076674256e+00,-1.278489046431895279e-03,-9.794384064754170893e+00
-1.000430499685445263e+01,-5.692740068777090746e-03,-9.785058910711772029e+00
-9.998027182579088290e+00,-2.104577589951386624e-03,-9.787862131503008101e+00
-9.999012941395246656e+00,-3.802735728437821143e-03,-9.801093026259424690e+00
-1.000335883257798564e+01,3.678948488779800732e-04,-9.792471307296088057e+00
-9.992514076845186111e+00,5.864453011567943158e-03,-9.796966858120436328e+00
-1.000005730349076316e+01,4.086906412693617520e-03,-9.791408633649654192e+00
-9.999126931733343326e+00,-5.757662610872783110e-03,-9.787207151331598354e+00
-1.000182677763837624e+01,9.372733577710012703e-04,-9.798311157735005494e+00
-9.999034363400305381e+00,-1.288663700949505865e-02,-9.776689979136037323e+00
-1.000161058511875289e+01,-7.986821436177344094e-03,-9.803404696693718279e+00
-1.000023026214782185e+01,-1.861674751363742502e-03,-9.785639102108223852e+00
-9.997194471999643284e+00,-7.239687069260483492e-03,-9.800722478526395776e+00
-9.996396208976786824e+00,7.400674879617375780e-03,-9.798193299854300875e+00
-1.000170881576808668e+01,5.222295768061219721e-03,-9.787989814962687163e+00
-1.000629996343991124e+01,5.882029186221895099e-03,-9.794935203831609982e+00
-1.000237782856306978e+01,2.035287861997878557e-04,-9.793089933099777156e+00
-9.996087420020781877e+00,-1.906795025331711529e-03,-9.789737400425511993e+00
-9.999515713692064267e+00,3.780934641717828299e-03,-9.784007486878200766e+00
-9.992308070028039779e+00,-2.632485795037150318e-04,-9.781080373632859093e+00
-1.001067440516977314e+01,-1.486960640790231485e-04,-9.793430042598116003e+00
-1.000180001748557679e+01,1.308134713016237492e-03,-9.802851652983193276e+00
-1.000180196284454404e+01,1.214252299797560428e-02,-9.783763763210201247e+00
-9.993786429283856521e+00,7.214115524330111558e-04,-9.788115956166292264e+00
-1.000308024714422750e+01,5.497408263326368158e-03,-9.798972351278743886e+00
-9.992427737510901409e+00,2.634257376850277204e-03,-9.791033359122859991e+00
-1.000130545597706444e+01,-7.636064695092661947e-03,-9.798543310545710483e+00
-1.000383745193987295e+01,4.847680341594018741e-03,-9.786544648350950837e+00
-9.996889387303422581e+00,6.338589268429116984e-03,-9.785205083869673359e+00
-1.000243755827414027e+01,9.304866633681202091e-04,-9.789997002381440439e+00
-1.000117391804642075e+01,-1.246984399695876249e-03,-9.797991066339957200e+00
-1.000341167228007677e+01,-5.063034226699330426e-03,-9.788497969460813408e+00
-1.000766833222981056e+01,-8.140222364721144688e-03,-9.794486951647888517e+00
-9.999467157890411073e+00,-4.724038104902231715e-03,-9.789235328286164162e+00
-9.998995160150425221e+00,-6.475892626344181835e-03,-9.804815977563839269e+00
-1.001041700330093676e+01,4.984240298161531947e-03,-9.773400111167436677e+00
-1.000432747709341008e+01,3.454664844445765135e-03,-9.795233178008194486e+00
-1.000502484064385023e+01,-4.300864134938373030e-04,-9.793052543705238477e+00
-9.997776422883358549e+00,-4.982019720823976320e-04,-9.800499890075343501e+00
-1.000607374101743474e+01,6.151903154627119501e-03,-9.807702599356586504e+00
-9.990349961254265665e+00,-3.075050570311394860e-04,-9.798685096390819638e+00
-9.994243373831018573e+00,9.806678652225456899e-04,-9.800292398242950398e+00
-9.990205082257947566e+00,4.825421144298257248e-03,-9.783440561587914530e+00
-1.000094682862620132e+01,2.723697110939026812e-03,-9.789784898266141511e+00
-9.996777846937851209e+00,-6.471301898427720561e-05,-9.778331432692707992e+00
-1.000057658647931724e+01,-3.730617829596677686e-03,-9.802021458828644285e+00
-9.996142797864276730e+00,-3.774736437961841596e-03,-9.805195602352846151e+00
-1.000255076401175636e+01,2.951394417663873518e-03,-9.790329507511028595e+00
-1.000644152242882079e+01,-7.935395072761872517e-03,-9.802184683232448847e+00
-9.999167852268495693e+00,6.408328208210634959e-03,-9.780986218210246719e+00
-1.000627504638982401e+01,8.650555758506600287e-03,-9.799479108838603736e+00
-1.000269271034834340e+01,1.211274697782702310e-03,-9.796806104766476508e+00
-9.999915708936226721e+00,6.656865555279087125e-03,-9.795580473834840873e+00
-9.997757381711497970e+00,-2.517773298483748628e-03,-9.803389244234324451e+00
-1.000248453981238583e+01,-4.099013536724068277e-03,-9.774988999382419053e+00
-1.000022605749412818e+01,1.758456645541963889e-04,-9.800148606153753050e+00
-1.000381585450600497e+01,-1.666858929279029173e-03,-9.800160026969892968e+00
-1.000331646920037443e+01,-2.045749890227412538e-03,-9.792343003724033323e+00
-9.996653407990761409e+00,2.856923865995275418e-03,-9.792202609479140563e+00
-1.000118113226639416e+01,7.909529424523506838e-03,-9.800388621729922534e+00
-9.998347139882030277e+00,8.953929363833232000e-03,-9.801418852997365150e+00
-1.000493984489508392e+01,2.685089825949387755e-03,-9.782351008028445705e+00
-9.994461629130322322e+00,6.707500472783824164e-03,-9.814122890355021056e+00
-9.998454860359217378e+00,2.427948615217809074e-03,-9.794121701949999093e+00
-9.995548361004903626e+00,7.860860819397776089e-03,-9.791982922308033466e+00
-1.000312253716665367e+01,2.499849773382388680e-03,-9.801471861278271192e+00
-1.000108404668600670e+01,7.425940521923321200e-03,-9.796417666619491982e+00
-9.999181848316771593e+00,4.729344015546152816e-03,-9.794156307781319626e+00
-9.999416909138343357e+00,5.167768227599785907e-03,-9.788341353108380716e+00
-9.998226144983004104e+00,1.562307236377078910e-03,-9.814101762444547461e+00
-1.000648293836289149e+01,8.754856913721783228e-04,-9.793796036511986713e+00
-1.000753796077969326e+01,3.063444041994035222e-03,-9.800868419171720802e+00
-9.999211299144276310e+00,6.337901009425486384e-03,-9.802902033405576532e+00
-1.000220148271402110e+01,5.105376716225509467e-03,-9.797090799907639536e+00
-1.000189439259584390e+01,-5.482022021569373698e-04,-9.805929523742447529e+00
-9.998340432945388656e+00,-2.692938078962466529e-03,-9.796912536396737536e+00
-9.996723384086401154e+00,-6.797601329914598582e-03,-9.790769999618246899e+00
-9.996859248234166273e+00,-3.503993368491231403e-03,-9.794300876221592844e+00
-9.997789847808769892e+00,-6.454387618126838574e-03,-9.799643236695558812e+00
-1.000192295401722475e+01,-5.807187865639948723e-03,-9.805466736363129598e+00
-9.997775623549811641e+00,-7.695720240292431430e-03,-9.789735896754798716e+00
-9.993964118418622533e+00,-9.244763801145920029e-03,-9.805800985442353124e+00
-1.000944406835739642e+01,4.743748269757241606e-03,-9.797619050730272505e+00
-1.001458314743644351e+01,-1.172356785084968656e-02,-9.797206680333562900e+00
-9.997246881294930887e+00,5.605429105920431594e-03,-9.786812689610496108e+00
-9.994929592437509669e+00,-8.059554719068480130e-03,-9.799266536638739922e+00
-1.000361770721293020e+01,2.320177976378668598e-05,-9.783562761767882421e+00
-1.000617514228589755e+01,8.787541795484113752e-03,-9.807235785099136294e+00
-1.000156117762568186e+01,-7.753720434231115878e-03,-9.806060018973344228e+00
-9.998317811946288103e+00,-3.183043009664748586e-03,-9.793000721856088830e+00
-1.000582178792852339e+01,3.961475446459002472e-03,-9.792273410037665826e+00
-1.000380601993838958e+01,4.428504551248041779e-03,-9.804416837520729899e+00
-1.000038369654473946e+01,1.522739256227119333e-03,-9.790934885467454052e+00
-9.996989618569338987e+00,2.392983148261001568e-03,-9.804560363152660329e+00
-1.000880133454141152e+01,-7.336922334640284295e-03,-9.789842844923606791e+00
-9.998933130078528464e+00,4.075594046002897763e-03,-9.790366325679270787e+00
-1.000209830146451750e+01,5.057330454701927875e-04,-9.793478150851070652e+00
-1.001062010464782936e+01,-2.785964138351419012e-03,-9.797240908733215292e+00
-9.999520264120242530e+00,5.802026784370744629e-03,-9.788597050577667602e+00
-1.000959921951445430e+01,1.530216879567787742e-02,-9.797261453861926483e+00
-9.995451154535913929e+00,4.830557928651132635e-03,-9.796231420588771499e+00
-9.992317312864186007e+00,-7.286897062836757795e-05,-9.792542086404928625e+00
-9.994074994150402347e+00,-2.382970611089615422e-03,-9.785417506845297098e+00
-9.999142791516550943e+00,4.779402572966272821e-03,-9.805021238193885935e+00
-9.990523630158225643e+00,8.171269429572943291e-03,-9.805276869097404813e+00
-9.997894878437067590e+00,-1.660657742233306779e-03,-9.812893466020730315e+00
-9.993458364506505376e+00,2.950757509726369219e-03,-9.786335045822015744e+00
-9.997119706894050495e+00,3.129925761207874926e-03,-9.789143803310160763e+00
-1.000384385220220018e+01,4.842601643548650873e-04,-9.790717887171149769e+00
-9.994872056865164112e+00,2.924417105861795360e-03,-9.800355314305768673e+00
-1.000677766387984136e+01,-5.568278758339428001e-03,-9.810308798221759830e+00
-1.000288742721938995e+01,7.587430501310887809e-03,-9.768373391760171387e+00
-9.992782076189447693e+00,-1.205947572106422748e-02,-9.800250473919190242e+00
-1.000055802828675056e+01,1.401252542093235501e-03,-9.794009679256870271e+00
-9.997250603053945639e+00,2.295943898048951985e-03,-9.793805170126537618e+00
-1.000311348242595244e+01,4.702630436519991339e-03,-9.807666011024949171e+00
-1.000266926889031360e+01,1.994280658251246230e-03,-9.804628167306802311e+00
-9.995078879127525795e+00,1.745255401235470223e-03,-9.791819403315939141e+00
-9.998447802453403810e+00,-6.004369149277675143e-03,-9.793575501822804341e+00
-9.995471867730868709e+00,4.178696492122644800e-04,-9.791716963285194808e+00
-1.000510526070734052e+01,-1.108417777711436045e-03,-9.807038098569385909e+00
-1.000337225530108043e+01,-1.153499747270793525e-03,-9.806294662182938993e+00
-9.999522348919741788e+00,7.858619558268711489e-03,-9.796713647321791285e+00
-9.993599015984919731e+00,-1.639436931345180639e-03,-9.799073056312600727e+00
-9.999265507331836389e+00,-3.002266006291814363e-04,-9.804648185400228755e+00
-1.000161518935658478e+01,5.875536908817232187e-03,-9.810429526730414906e+00
-1.000473909190919031e+01,-8.602969089191585565e-04,-9.787194572476334287e+00
-1.000693121012225717e+01,-2.354476871874326737e-04,-9.779893549195957547e+00
-1.001426441962640190e+01,-4.280133274193582103e-04,-9.795072559086765551e+00
-9.998086889681705003e+00,3.895277923594251367e-03,-9.790046094917865815e+00
-1.000087212752720589e+01,3.921192108550916079e-03,-9.795213036627146153e+00
-1.000422564393857705e+01,-5.124000878591806162e-03,-9.800315283882149231e+00
-1.000089643859232957e+01,-6.835404089099858353e-03,-9.802586670719874107e+00
-1.000527651045007005e+01,-3.762856845571619854e-03,-9.782655378863065465e+00
-1.000075410082529359e+01,1.101616231564780295e-03,-9.805100151972160560e+00
-1.000096978488204336e+01,-2.096432302998967566e-03,-9.804628046963800969e+00
-9.990868615040421119e+00,1.151871356631463324e-04,-9.801280471428686525e+00
-1.000474346878593757e+01,5.249394000047758781e-03,-9.788846025246602522e+00
-1.000418976346912103e+01,-1.127685178330961081e-02,-9.801497928315408004e+00
-1.000261728396739436e+01,-3.845517473689138380e-03,-9.793637298963307813e+00
-1.000943901916428125e+01,1.332990739168762699e-02,-9.795055768682079389e+00
-1.000241540178540056e+01,-1.081529580940814202e-02,-9.795763299673611257e+00
-9.996424398576941428e+00,-1.401710594821408730e-03,-9.801981565542437380e+00
-9.999805686252182468e+00,1.457948372076781204e-03,-9.796540654920182334e+00
-1.000016888786728941e+01,1.116193597780297357e-02,-9.789236466474166676e+00
-1.000493167553101514e+01,-5.461411577104508495e-03,-9.801790820024434581e+00
-9.998119291557616251e+00,-7.749092319358929018e-03,-9.791171573910585124e+00
-9.989152676999246694e+00,-3.536538981972645653e-03,-9.804487332038846148e+00
-1.000750557696896870e+01,-6.183225596854732831e-03,-9.785730615927338505e+00
-1.000262418211625182e+01,3.035988169171683487e-03,-9.796111757065638415e+00
-1.000196369305972333e+01,1.126694379289143975e-02,-9.794266603480837219e+00
-9.993593658317642792e+00,-5.305333401063516349e-03,-9.807132442860003962e+00
-9.996949100227134011e+00,7.341504809830269249e-03,-9.789221829811401321e+00
-9.998242453808652286e+00,4.020977061746235960e-03,-9.792637956936639299e+00
-9.991365657754398555e+00,1.573738411792294147e-03,-9.786238650475688416e+00
-1.000220104955092459e+01,1.022573732022132075e-03,-9.801004175031827970e+00
-9.998390861960226417e+00,4.148217717997729898e-03,-9.792608396289464778e+00
-9.997789040471685595e+00,-5.869327197289528385e-04,-9.784690876426978434e+00
-9.990101343371181386e+00,-9.522288576584197334e-03,-9.788720953005594083e+00
-1.000691614215533320e+01,-2.278318821159224048e-03,-9.785989226746670155e+00
-9.997071404905176095e+00,-1.726437773027623837e-03,-9.794543680002247399e+00
-9.997896707645727687e+00,2.998981721413280198e-03,-9.793761415401551318e+00
-1.000165734544542318e+01,8.551924707397124195e-03,-9.796297107336423338e+00
-1.000455563191209052e+01,-5.374838351261723539e-03,-9.782240651373083296e+00
-9.989252976422696051e+00,8.112799045235456405e-03,-9.797685654183018400e+00
-1.000674302006530070e+01,-2.149955958475248223e-03,-9.800390558692901877e+00
-9.998819381753209612e+00,-5.723476923327342879e-04,-9.799896409818526166e+00
-9.996905927812447246e+00,1.078182133130340357e-02,-9.791719729339414258e+00
-1.000305918083489587e+01,-2.713930189372816288e-03,-9.812738491099588956e+00
-9.991952616173133350e+00,-1.111023586516331034e-02,-9.800425028713528164e+00
-1.000594671237684707e+01,3.638175132021920308e-03,-9.803530710734232656e+00
-1.000269586342886896e+01,8.996471023617912122e-03,-9.793534718877282330e+00
-9.992589472109916215e+00,-5.177804598970762139e-03,-9.800362708611935147e+00
-9.994876299037628087e+00,1.203662977378877619e-02,-9.807205820907867633e+00
-9.999987806706503335e+00,-1.166606382638159592e-02,-9.785970772503093329e+00
-9.997024180925487613e+00,-6.211218771869124293e-03,-9.784222045552086300e+00
-1.000628542996018666e+01,-2.385846729028234109e-03,-9.790393982711339760e+00
-9.998388631117634873e+00,3.179319730835340491e-03,-9.776315778322313577e+00
-9.994723112397000619e+00,8.303593822138766525e-03,-9.801240431132809405e+00
-9.999782639736743306e+00,4.415925998833223828e-03,-9.797114498766156032e+00
-1.000655666504941621e+01,-1.994065601667198347e-05,-9.800208914524716874e+00
-9.996184372979920241e+00,-4.830440480325241847e-05,-9.796116844827061243e+00
-1.000106469672135923e+01,3.322560956643059484e-03,-9.791135192545791455e+00
-1.000214567728589188e+01,5.796237294729533404e-03,-9.798299296507272160e+00
-9.991097707708794573e+00,-8.995876287743463965e-05,-9.795959613074590067e+00
-1.000174961551121733e+01,1.447503128253158902e-03,-9.799816980518595955e+00
-1.000012618839710044e+01,2.174250807411631879e-03,-9.776039932328940196e+00
-9.997644741184595674e+00,-5.386845705577088424e-03,-9.798392281685261551e+00
-9.998635263819121377e+00,2.687882894208582993e-03,-9.784078135350283034e+00
-9.999107061935870178e+00,5.096622610060913550e-03,-9.799026939441834116e+00
-1.000761738683239876e+01,5.996485514869370412e-03,-9.783293912732750286e+00
-9.991112573432925359e+00,-8.775149038802453104e-04,-9.794832236102500644e+00
-1.000363737180231105e+01,1.753368028274244214e-03,-9.801334762227387642e+00
-1.000085589238190664e+01,3.133596544867118649e-03,-9.794352419466651583e+00
-9.998883107233222489e+00,1.065936221966562458e-02,-9.805694200905254121e+00
-1.000172038540200425e+01,7.151343608612974363e-03,-9.789226796674773468e+00
-9.998547411185088052e+00,-5.001226486192560496e-04,-9.807871724882113895e+00
-1.000099575125825702e+01,6.600090147212139477e-03,-9.805028069191141782e+00
-1.000490161696181168e+01,-7.510480859687745621e-04,-9.793799955788637490e+00
-9.993884261600943120e+00,9.825605985036244688e-03,-9.792972036966014926e+00
-9.992181526283204107e+00,1.029459866742642171e-02,-9.795023957743259402e+00
-9.991914016901674245e+00,-5.768694137643031079e-03,-9.810594029571626962e+00
-1.000387749312269570e+01,-6.782799039991233361e-03,-9.803851896885834805e+00
-9.999914829692659879e+00,-1.338744967251974697e-03,-9.778649586965494578e+00
-1.000292379629044781e+01,-1.560471203469018667e-03,-9.807888175308598022e+00
-9.998085741449129316e+00,-6.157477540613376724e-03,-9.787023099943320759e+00
-1.000549111221237908e+01,3.171502533651151135e-04,-9.794783754616457117e+00
-9.993839269365418332e+00,-5.327659637686466346e-03,-9.783029128009337327e+00
-1.000015903716795762e+01,-7.578349213561447889e-03,-9.806583680296542482e+00
-9.994327374638723782e+00,3.947463698422588874e-03,-9.796972922074505874e+00
-9.989716017398848180e+00,-1.075835444108913085e-03,-9.792967225714088286e+00
-9.987890264013211450e+00,3.969273046683372171e-03,-9.798478761562529726e+00
-1.000832070151363595e+01,6.267325725126486873e-04,-9.799024464533687251e+00
-1.000041351060123063e+01,-5.916974113196303217e-03,-9.799875942042215016e+00
-9.991565149738935503e+00,-7.559051500899763298e-03,-9.793396797138953502e+00
-9.995838969588055178e+00,4.142041312654486454e-03,-9.792504335902329160e+00
-9.995838821576018773e+00,8.975433215116336095e-04,-9.803606279302313098e+00
-1.000265481578671967e+01,4.866094336165542079e-03,-9.790984553587430028e+00
-9.992443680286413610e+00,1.745381128438389974e-03,-9.808212143443485687e+00
-9.994671298061989617e+00,6.344157506707284212e-04,-9.793950720235223173e+00
-9.997067370039124157e+00,-2.068593352239950830e-03,-9.797864916896980247e+00
-1.000277604571038026e+01,4.960398452313732019e-03,-9.802897876801297983e+00
-9.999646953260869608e+00,4.450543641634260861e-03,-9.797045509906620708e+00
-1.000667047672914123e+01,-1.668625708938004625e-03,-9.785539549470126275e+00
-9.998186113129539976e+00,-1.277843835662969239e-03,-9.805228006046434075e+00
-1.000094898051336756e+01,-2.401735652371759318e-04,-9.803110295362779780e+00
-1.000622867894342605e+01,2.958846638731848014e-03,-9.812988196409735409e+00
-1.000236951327823576e+01,-3.566225955779806552e-03,-9.788364505012681960e+00
-9.998158283301838978e+00,7.795962726315996906e-05,-9.783898822766104786e+00
-1.000500945991686486e+01,-5.369146626515560773e-03,-9.810401549465163740e+00
-9.997575333661398389e+00,9.543296350568157560e-03,-9.803607778083591739e+00
-9.996200347748104065e+00,5.249705083876173061e-04,-9.808177540276430406e+00
-1.000414228645529668e+01,8.375598141140106270e-03,-9.802570883626238185e+00
-9.998723195976637612e+00,-5.181821669932525770e-03,-9.787376652868600146e+00
-1.000392481058721650e+01,-5.297124510161038691e-03,-9.801635935164249247e+00
-9.999627115449216674e+00,-5.395804384459491725e-03,-9.794906246252631732e+00
-9.996469997885503389e+00,-5.074164616705584101e-03,-9.792129373941781623e+00
-1.000561626603560050e+01,2.058255250498802844e-03,-9.800326479173627092e+00
-9.999517558238611770e+00,-1.604653207652761895e-03,-9.789141268981932598e+00
-1.000646381765660742e+01,1.587976934533638900e-03,-9.807713372402433905e+00
-9.999214103886764349e+00,-2.941804934249969174e-03,-9.791332869718930354e+00
-9.999440178037998450e+00,-3.674274650679518021e-03,-9.792600716100086089e+00
-9.993148144358624307e+00,-7.838240290119183242e-04,-9.791636461506421085e+00
-9.991287078376302588e+00,2.290343781058311326e-05,-9.802175841920819366e+00
-1.000835850506966906e+01,2.314066928272433786e-03,-9.801687026645335976e+00
-1.000857518036517391e+01,-8.674479605982006783e-05,-9.805115874266160603e+00
-9.996014004874782088e+00,7.398746571046141678e-04,-9.791889830187589183e+00
-1.000404256919183865e+01,-1.663774561125510231e-03,-9.780168744784438317e+00
-1.000173991647209348e+01,3.117941507147342888e-05,-9.803973672458818456e+00
-9.997562269336144780e+00,-3.755318286535612622e-03,-9.803696409653559485e+00
-9.998984394381308149e+00,7.151869543607802804e-03,-9.792492103808314141e+00
-9.998042452585877982e+00,4.536297325387282989e-03,-9.801414368955683187e+00
-9.997671656196896350e+00,-4.534208270165557969e-03,-9.801010436524949299e+00
-1.000174902673219712e+01,5.179405408895071221e-03,-9.777347082479920459e+00
-9.999275306432046762e+00,-7.576253761651442244e-04,-9.786640848696785966e+00
-1.000860247528658320e+01,-3.933055983559499875e-03,-9.780689654026129887e+00
-1.000556471351131904e+01,4.922298715116149755e-03,-9.795079966942365601e+00
-9.998516854590349112e+00,-1.290728536378277745e-02,-9.785718710863614334e+00
-1.000144114771904569e+01,-1.360643945679187485e-02,-9.781431423214240084e+00
-1.000322380695570779e+01,5.216824334739308868e-04,-9.786227328484512711e+00
-1.000252750323494233e+01,-2.226170268505332089e-03,-9.800209661557387264e+00
-1.000445103472222641e+01,4.992593004759708717e-04,-9.765353300411394599e+00
-9.996540428429483427e+00,-3.501566582717364606e-03,-9.798014993141269002e+00
-1.000402108680865787e+01,5.540933315534299700e-03,-9.803120624171622666e+00
-1.000272954682896831e+01,-1.964093999589321804e-05,-9.804710403653640327e+00
-1.000964355845566267e+01,-5.517472312212166538e-03,-9.788584230019816701e+00
-1.000775537784390323e+01,4.838753657983385116e-03,-9.797221232024394766e+00
-1.000025077513082472e+01,8.073741363906736940e-03,-9.794233173767686651e+00
-1.000477514203353380e+01,-2.863695994052679449e-03,-9.792513080305926820e+00
-9.993020681137361194e+00,9.456345547790600756e-03,-9.799493463235876334e+00
-1.000103386654908277e+01,3.720481456177606740e-04,-9.800007652422877413e+00
-9.999122319148137095e+00,-2.683441881457365708e-04,-9.797302571591794518e+00
-1.000672776789716423e+01,-2.048037138813091178e-03,-9.807868454153279458e+00
-1.000148644940368037e+01,2.675088050521065575e-03,-9.801234401186258438e+00
-9.999476821022108552e+00,3.129996473601761448e-03,-9.797643511408479000e+00
-9.995240680346416440e+00,7.029705879111489359e-04,-9.783250749706299487e+00
-9.994927304110069244e+00,-8.257257769653169807e-03,-9.801146631814818377e+00
-9.998535969436034065e+00,3.721137762617070851e-03,-9.789683309203113026e+00
-1.000180030375472917e+01,6.978527349796205016e-03,-9.796762844004792470e+00
-1.000313055867956891e+01,-4.567522787802329523e-03,-9.804282065379915423e+00
-9.991396300579253875e+00,-4.667239128024413229e-03,-9.798280618587959623e+00
-1.000753155854952503e+01,1.637575802213453490e-03,-9.794266728165691660e+00
-1.000617253879284085e+01,-5.305781301931174372e-03,-9.778401955496107689e+00
-9.993070929947929670e+00,-4.207130559275263043e-04,-9.804896986760445188e+00
-9.995980255941391945e+00,7.932832011845974626e-03,-9.788966666329057986e+00
-1.000704121404799984e+01,1.421694541708484966e-03,-9.792019304488883691e+00
-9.993787879919608486e+00,-4.408837357248793568e-03,-9.808993237960590861e+00
-1.000548685488685940e+01,-5.730821542876700717e-03,-9.787027167145383899e+00
-1.000149144899117637e+01,-2.831048426468796980e-03,-9.798056391766237994e+00
-1.000477117154437678e+01,-3.170737784222886577e-03,-9.794180180216235598e+00
-9.999953998343698913e+00,4.364250773356805752e-03,-9.787706630475680569e+00
-1.000043451999753152e+01,-1.095740478673577593e-02,-9.793234920432235313e+00
-9.999246559860520023e+00,4.892309988708357441e-03,-9.795999689596515125e+00
-9.997837246747270257e+00,-5.625426048347517173e-03,-9.799041739035159182e+00
-1.000292489427737941e+01,-2.438493827170179918e-03,-9.798903418251098785e+00
-9.998475713763234296e+00,-1.426969392529079056e-03,-9.790433458815030576e+00
-9.998043666902427518e+00,-6.128160108787527281e-03,-9.788536230728666965e+00
-9.990401831015621070e+00,-6.750162290762477986e-03,-9.786158267117064824e+00
-9.994886479754175213e+00,-5.181886826516494482e-04,-9.788209350316199320e+00
-9.997856940057625152e+00,-6.940548889880191613e-03,-9.788243902412760988e+00
-9.996709550543201317e+00,-8.716726978796402597e-03,-9.796677019204928172e+00
-9.992111163973383725e+00,1.553899011859848469e-03,-9.796026482091923171e+00
-1.000379238299200857e+01,-7.818513255167712506e-03,-9.800561272043410099e+00
-1.000008949968380456e+01,-7.697389790086934039e-03,-9.789455167466240226e+00
-1.000131024515709477e+01,-3.104571683058910628e-03,-9.783217382796056683e+00
-1.000546887308465216e+01,2.635252023295775719e-03,-9.808171145476245911e+00
-1.000557825478566976e+01,4.760926644131037964e-03,-9.794948849766319299e+00
-9.998649529909384270e+00,6.675683155878930387e-03,-9.797133911655627969e+00
-1.000156199827317316e+01,-9.019367260686708687e-03,-9.802791241668082023e+00
-1.000520629253197136e+01,-7.117803213312168947e-03,-9.803707061364304920e+00
-1.000964458130798818e+01,3.996309468803520282e-03,-9.796243379807561880e+00
-1.000100398847851935e+01,-1.639303596601317985e-03,-9.788984390732732521e+00
-1.001135016518746035e+01,-5.316925382632955825e-03,-9.800826705810791850e+00
-1.000783942252005865e+01,-7.194509686187494819e-03,-9.796324329452588131e+00
-9.988106014547486922e+00,4.976520897592028383e-03,-9.780595550506349767e+00
-1.000453747879122446e+01,-1.662350206153361681e-03,-9.784362262549491263e+00
-1.001006343115517616e+01,3.957353594014239966e-03,-9.798961697301470153e+00
-9.999889171813087785e+00,8.144310874578954487e-03,-9.793333047403502079e+00
-1.000486290923698895e+01,2.314280826878614618e-05,-9.793357900658284265e+00
-1.000160662215720997e+01,1.824961225533633163e-03,-9.794377728233838454e+00
-9.993973772505615472e+00,1.245163905642430275e-04,-9.804849565757278285e+00
-9.998125124508172590e+00,6.049384981124342892e-03,-9.798268661629203180e+00
-1.000373403241626846e+01,-3.540618620838033911e-03,-9.791285533165629218e+00
-9.999694160241871188e+00,5.655110300845791506e-03,-9.805913375034952750e+00
-9.989598098305254581e+00,2.390297459069288220e-03,-9.803565616620590006e+00
-1.000477097103743063e+01,2.383841504507781296e-03,-9.794920158633528828e+00
-9.993791745725001618e+00,2.817606156167572207e-03,-9.799839721688618610e+00
-1.000753385618411073e+01,2.528984729322648027e-03,-9.795445366220750572e+00
-9.999908319913323851e+00,-1.514020350184291539e-03,-9.816440315459907140e+00
-1.000033849675070918e+01,4.979540246103319329e-03,-9.793627406614461961e+00
-1.000144878309038887e+01,5.950166665100684385e-03,-9.802046332026547404e+00
-1.000387814477947757e+01,3.457986893192308009e-03,-9.789226193354551242e+00
-1.001022975494038647e+01,1.009391482104467349e-03,-9.786533209668183630e+00
-1.000413878446949134e+01,9.133976849225828795e-03,-9.801103728449454877e+00
-1.000021707104124147e+01,3.418900638748897740e-04,-9.795568282243925395e+00
-1.000779924459124537e+01,-3.056121799058307987e-03,-9.805735312912768009e+00
-9.999837890271599861e+00,4.093609461131752364e-03,-9.775000938433711539e+00
-9.997184586322855893e+00,-4.518497366498183156e-03,-9.786962743421884880e+00
-1.000191773687260621e+01,-3.718709078975885023e-03,-9.790918884918148990e+00
-1.000110123172066956e+01,-9.098782070709565510e-05,-9.808067568191761509e+00
-9.996193014182479075e+00,2.008796305926948463e-03,-9.789680520331257796e+00
-9.997628061277296752e+00,2.742910697312944896e-04,-9.805369726051425872e+00
-9.999858475466613328e+00,-7.343196402456223480e-03,-9.799148735916558550e+00
-1.000550107565254976e+01,-5.812553599781215830e-03,-9.797905690265913847e+00
-9.992430855773429599e+00,-2.762823414081839318e-03,-9.804144275194268232e+00
-9.992800902690703424e+00,3.709097510992776479e-03,-9.795533782087703756e+00
-1.000438396483798442e+01,1.030556916983660191e-02,-9.802106106932928498e+00
-9.998854815041816835e+00,-1.592052513736557685e-03,-9.780272371625908789e+00
-9.991090145079278173e+00,3.070649770678058536e-04,-9.797304045112714022e+00
-9.998256339298510653e+00,-6.148815022048873327e-03,-9.786241362212393824e+00
-9.999756712369832101e+00,-8.601093713342439565e-03,-9.800575301916037319e+00
-9.990932279744738409e+00,-4.921958128474280408e-03,-9.787330716275922882e+00
-9.995208815107172740e+00,-2.961937904571629396e-03,-9.782276874051881066e+00
-1.000450754646088392e+01,5.770055255327520907e-03,-9.791593584117260107e+00
-1.000080555400199778e+01,-5.537083230773705636e-03,-9.800165488860921315e+00
-9.995403213773194295e+00,7.312754126502302859e-03,-9.803570763765021567e+00
-1.000148561494829025e+01,1.630547130065606492e-03,-9.803814959745990265e+00
-1.000282518374096696e+01,-4.141604969235322220e-04,-9.787435318756479319e+00
-9.993529209219049747e+00,-7.604789198635220071e-03,-9.796453758796781486e+00
-9.994721355816782449e+00,-1.040544746571713756e-03,-9.805992790216247812e+00
-9.995904147483587465e+00,-7.822130864090530086e-03,-9.790121185633124057e+00
-1.000033053032656838e+01,1.488995074845263786e-03,-9.794039039018153758e+00
-9.997630825268469579e+00,-1.284298308170566446e-03,-9.792094706047706154e+00
-9.991512298589274366e+00,-1.194966794711565215e-03,-9.810374858051183367e+00
-1.000030431622632143e+01,4.404574717204964331e-03,-9.809859128453327415e+00
-9.995968644105769130e+00,3.608139472654496929e-03,-9.794510381228676010e+00
-1.000095578706852706e+01,1.010572848772989946e-02,-9.789363380011330662e+00
-1.000088352700609384e+01,-5.435739206922772515e-03,-9.785890615941491788e+00
-9.997077410516025608e+00,6.500037235135174528e-03,-9.794659361775657658e+00
-1.000167908236941905e+01,5.507921269574029589e-04,-9.799430859620596124e+00
-1.000281018370372799e+01,-4.625079350295756633e-03,-9.818546593597831773e+00
-9.997886542711936997e+00,5.954366952089020469e-03,-9.793435622037128141e+00
-1.000768771332433893e+01,-6.782271332839965965e-03,-9.805888359960301059e+00
-9.998726838804095962e+00,4.005067932608641530e-03,-9.797653370473041079e+00
-9.997030653750202944e+00,-1.674734650426325851e-03,-9.801072144752865256e+00
-1.000456540860088062e+01,-6.095702131394958000e-03,-9.790244431514956602e+00
-9.998351632311129222e+00,-4.934260330603434594e-03,-9.791723184823545978e+00
-1.000460649794712076e+01,2.115451835670703606e-03,-9.799193440836489799e+00
-9.999106360942800364e+00,-3.997431232104733077e-03,-9.793515404490735321e+00
-9.992919453070895131e+00,5.438952292938698842e-03,-9.791848789078168025e+00
-9.988061149451750609e+00,-3.682377067002111457e-04,-9.786563232779339927e+00
-9.995722861450870411e+00,-1.263174024418061477e-03,-9.792444725624241286e+00
-9.996672922275589457e+00,3.912336842245361761e-03,-9.794941322292412877e+00
-1.001230360713089418e+01,-4.643820955104624622e-03,-9.810346026685165199e+00
-9.998711794253663854e+00,-1.083185071740446121e-04,-9.790185294774460090e+00
-1.001403751966033262e+01,-1.695402042484297047e-03,-9.812071426753337988e+00
-1.000228571932106014e+01,-6.389528112663468186e-03,-9.794409574768561555e+00
-9.990555989334097831e+00,1.601427481103111445e-03,-9.806585126611665260e+00
-9.998738291435877557e+00,-1.774022154505527395e-03,-9.800932879564294709e+00
-9.994213028485642525e+00,5.577906670669307079e-03,-9.786611971488751394e+00
-9.998101218465984985e+00,9.465600392168993038e-04,-9.780781208563542606e+00
-1.000220714015500612e+01,-5.759448150347031394e-04,-9.796268181317888235e+00
-1.000089447911058826e+01,-2.317772432567341816e-03,-9.792986855239750099e+00
-9.997676824156204844e+00,-3.112073477483667978e-03,-9.783698623639400793e+00
-9.995628213520314276e+00,-2.815903094527571777e-03,-9.810547627071835919e+00
-1.000519838001701345e+01,7.649070899470875387e-03,-9.802515746957450204e+00
-1.000228098468440407e+01,-3.509076080372361948e-04,-9.779797219600579794e+00
-1.000529581152203384e+01,-3.924793448373193813e-03,-9.782252329933459833e+00
-9.998636686274013030e+00,7.049449316034175558e-03,-9.794813983404736746e+00
-9.997189869286732034e+00,2.157303881814716905e-03,-9.801513972688129073e+00
-9.996882367495519617e+00,1.643053261040431029e-03,-9.803704468938670757e+00
-9.999179702568687489e+00,-4.361996340367489330e-03,-9.798053042222031550e+00
-9.996682162216991685e+00,2.849694115252759431e-03,-9.791626523954573003e+00
-1.000329302166716872e+01,-1.070921962626488963e-02,-9.804460746370976310e+00
-9.995059436879381920e+00,6.393843786805282134e-03,-9.788380657778837701e+00
-9.987266162302219641e+00,-3.943125014133429251e-03,-9.804357268406782566e+00
-1.000234167051829637e+01,1.975312152015711118e-03,-9.800960742421102267e+00
-9.997866606181435856e+00,1.155312787900935386e-03,-9.792857364808581266e+00
-9.998813235307807190e+00,2.226605358733553270e-03,-9.804430321867478426e+00
-1.000560938970014035e+01,-5.869323388279138083e-03,-9.793741937793488006e+00
-1.000122530653392516e+01,-3.685581324007685539e-03,-9.791367254284814692e+00
-1.000857211950055081e+01,-3.450054161272709413e-04,-9.802446914548914592e+00
-9.999317529165470120e+00,2.193218770034640903e-03,-9.781876908273979154e+00
-9.998004996412182876e+00,-3.703150600364620427e-04,-9.807860116509399262e+00
-1.000293527598921628e+01,7.719426162383388572e-03,-9.791741743787744312e+00
-1.000399265145172123e+01,7.314517823621180352e-03,-9.795819363646357303e+00
-9.998382844574694062e+00,1.892422553835026826e-03,-9.783420402954035922e+00
-1.000122104502272435e+01,-1.174338914928384605e-03,-9.797085427854222317e+00
-9.996305641170893708e+00,8.087044383837649591e-05,-9.787194260148250891e+00
-9.999603947170546903e+00,1.001556351824526431e-02,-9.804322009333032995e+00
-9.995760755942660225e+00,-5.226385559214721463e-03,-9.794272146116906441e+00
-9.999423530457981713e+00,-6.316095114925071065e-03,-9.778842198824309051e+00
-9.989903984306836904e+00,1.285207701179131266e-03,-9.787948739893906236e+00
-9.998051200526237636e+00,7.208586809951855051e-03,-9.809583600729448349e+00
-1.000377608444052235e+01,-9.438828849795480314e-03,-9.798923267953375316e+00
-9.989213218642282399e+00,2.035378475533182723e-03,-9.795928484686552196e+00
-9.997571872992459419e+00,-3.025490266090377200e-03,-9.801190215935552175e+00
-1.000701414105984632e+01,6.616603451157115120e-04,-9.795060174086394511e+00
-9.999792854912680440e+00,-3.457350902581701963e-04,-9.800506525998777363e+00
-9.990201850502607783e+00,1.186015659467665000e-04,-9.784005424910803939e+00
-1.000929063497629734e+01,1.389875418611699501e-04,-9.789751481823167012e+00
-9.994422285002070083e+00,2.464622293596337426e-03,-9.804556181380510438e+00
-1.000358412579322831e+01,3.818348205189584128e-03,-9.769949894743037433e+00
-9.993953897908266271e+00,-6.557324395634897898e-03,-9.797305065874382990e+00
-9.998371226337601669e+00,-6.609090361344179161e-03,-9.789086134495507352e+00
-9.991579594474220727e+00,4.987344995916207467e-03,-9.803713969944405804e+00
-1.000007925429417099e+01,7.564218915809879477e-03,-9.811867537860127442e+00
-9.999336585755269624e+00,-8.436973203862373118e-04,-9.784905253972862482e+00
-1.001064839625611391e+01,4.415287575764693245e-03,-9.791138678517441463e+00
-1.001441984183479583e+01,2.735757797964043486e-03,-9.796302345873694861e+00
-1.000035812921121980e+01,1.935936881823507958e-03,-9.790738481676523719e+00
-1.000072064536685268e+01,-6.020913155484849955e-03,-9.784676856633687692e+00
-1.001090660884568173e+01,-1.864920987552804452e-03,-9.801874967907926006e+00
-9.999802068167184643e+00,-3.765585014571140848e-03,-9.789312675207682446e+00
-9.995946484134535126e+00,2.672048694112696466e-04,-9.794041808495453694e+00
-9.989479040636325635e+00,-2.469522652460954225e-03,-9.791316891407987555e+00
-9.999648600028612222e+00,-3.988108511709226832e-03,-9.808076307396953908e+00
-9.990940375567070930e+00,6.872225781750013933e-04,-9.801694003826387558e+00
-1.000091198951160720e+01,8.158319727274352534e-03,-9.779365154388703019e+00
-9.997906239062148259e+00,-7.630244181038991092e-04,-9.792945637276151416e+00
-9.996321221195453077e+00,3.320401609352153106e-03,-9.800720810424689233e+00
-1.000951870372072605e+01,2.750770002276326735e-03,-9.803862749699810308e+00
-1.000351930448671034e+01,-7.550147096097677667e-03,-9.793847109693015085e+00
-1.000291897667523600e+01,-1.946719146808650923e-03,-9.817492130157301489e+00
-9.992983676547156691e+00,-1.878018556867645924e-03,-9.792466117495381539e+00
-1.000406498007463441e+01,3.861264993765365673e-03,-9.814337270178489447e+00
-1.000337304859106347e+01,5.313659452742577026e-03,-9.795314917509699626e+00
-1.000076640702290653e+01,-8.245403730927967564e-03,-9.785022953657824374e+00
-1.000769405905393228e+01,6.743797348295254776e-04,-9.783647275936379728e+00
-1.000649275692991758e+01,-5.680821550975592368e-03,-9.788539057449360925e+00
-1.000085421788654472e+01,-5.147562485089538474e-03,-9.780466584529168728e+00
-1.000661245710541181e+01,-5.056122554603751512e-03,-9.799711971189891457e+00
-1.000197842797598291e+01,-7.905074675774812626e-03,-9.794698343801027107e+00
-9.997538477042432703e+00,2.702622894871632535e-03,-9.789478880252442394e+00
-1.000139765705362294e+01,-2.643052239437337046e-03,-9.807868022696016652e+00
-9.999045971885664130e+00,-2.503636146639280202e-03,-9.793316353103074690e+00
-9.998592342854356829e+00,2.634141650039129728e-03,-9.782026745390027145e+00
-1.000598741600635400e+01,2.910682689032918335e-03,-9.798417844210328909e+00
-1.000500325067168639e+01,1.134102946382909913e-02,-9.807812228489012796e+00
-9.995959857787019232e+00,-7.080186085223962034e-03,-9.782166530058495013e+00
-1.000125972494990378e+01,5.240823398641532467e-03,-9.792859373886965813e+00
-9.992479585577488166e+00,2.178075245149793063e-03,-9.795457945984679782e+00
-9.999159123988460962e+00,7.467582678905300528e-05,-9.782929723819318468e+00
-9.999589088240522727e+00,-5.140545418787405632e-03,-9.805826217303083681e+00
-9.999922176926913764e+00,7.737784560294192274e-04,-9.797187720148274437e+00
-1.000662448814497552e+01,-4.472958968079272964e-03,-9.791772226739334783e+00
-9.995332313711505989e+00,8.924876747535339175e-03,-9.789390142369322589e+00
-1.000425202241800982e+01,-2.625227907246788272e-04,-9.797747441759485199e+00
-1.000278342824897138e+01,3.099391528656460140e-03,-9.785315222680205594e+00
-9.998503413438152521e+00,4.135621509698352884e-04,-9.793909890418273534e+00
-9.991890544341661240e+00,1.058804292535417326e-03,-9.799430516597631424e+00
-1.000144904046313776e+01,-2.737401220644756789e-03,-9.785946756482937658e+00
-9.991255755773003955e+00,-6.736490316860483307e-04,-9.794431738053630099e+00
-9.997273613838475015e+00,-8.943275177326518582e-03,-9.802709194780891977e+00
-1.001237662627656100e+01,1.355531406469946340e-03,-9.786629799794310358e+00
-9.995846229970902996e+00,-5.709161652092282872e-03,-9.807645922412492112e+00
-9.999334350011871209e+00,-5.592846985995156457e-04,-9.789916630656689378e+00
-1.000634572170840997e+01,-2.731919903820726782e-03,-9.810017362092512627e+00
-1.000458919226843868e+01,3.916612086525638088e-03,-9.790059740315401271e+00
-1.000964890695624376e+01,5.032466815959138993e-03,-9.800777376065580526e+00
-9.992974612218922914e+00,7.330695870886917188e-03,-9.803395127947860388e+00
-9.992753351540965667e+00,-1.413729828484034919e-03,-9.811077227300900816e+00
-9.999927795072006020e+00,2.775084289294001659e-03,-9.790182041482671238e+00
-9.999005119111442852e+00,-6.062839735324453659e-03,-9.780998098735793178e+00
-9.995924821411636074e+00,-8.402827230091941893e-03,-9.804965158883378606e+00
-1.000114417745147399e+01,-2.988721971134181490e-03,-9.803089006643508796e+00
-9.995255123778589379e+00,4.887054400746385779e-03,-9.803703411211014185e+00
-9.999202805193213806e+00,1.573748732620669846e-02,-9.802361769670676850e+00
-9.999685728557606623e+00,-4.724371841361859302e-03,-9.787217017865319946e+00
-9.996917450993359822e+00,-1.794150690924413167e-03,-9.786441284615534641e+00
-9.989792771960168238e+00,-2.067735843667451237e-03,-9.788045533634491591e+00
-1.000412052032993415e+01,2.151471825012800116e-03,-9.801240750770167764e+00
-9.991265066746450429e+00,-4.811644984689154338e-03,-9.778459227968573586e+00
-9.999356620166645726e+00,-5.146395346613774797e-03,-9.795229952469350465e+00
-9.999242086619499759e+00,1.098675963096265931e-02,-9.784636137772343645e+00
-1.000244696383472132e+01,-3.620112552864724470e-03,-9.795595706552434834e+00
-9.991229018453497090e+00,-6.475290088141284935e-03,-9.786526604942080709e+00
-1.000554479002184749e+01,-6.430316633613321689e-03,-9.784466122585557812e+00
-1.000278360523451227e+01,-4.395457207026830758e-03,-9.794341516779606849e+00
-1.000146968112331614e+01,4.368543817612979829e-03,-9.808590119286945352e+00
-1.000535609566676243e+01,5.437955819237738804e-03,-9.800479953474617645e+00
-1.000886777178868137e+01,5.303128014293995510e-03,-9.807936298089668270e+00
-9.999737331636536553e+00,-6.360545587401955419e-04,-9.805361712021818832e+00
-1.000534875307058336e+01,1.686228762309781824e-03,-9.798216259421732133e+00
-9.993013128660749089e+00,-4.079124733307814589e-03,-9.790189973409702873e+00
-1.000159719305089823e+01,7.713486551760052011e-03,-9.793413565124120979e+00
-9.998272060157077590e+00,-7.385744533357386545e-03,-9.798390225328693859e+00
-9.997764670906898132e+00,-1.077386476937718975e-02,-9.793332460161668251e+00
-9.996630663820866403e+00,-1.938577004600722719e-03,-9.785542580881214647e+00
-9.997824252163901804e+00,9.016999469935829334e-03,-9.817982687853145762e+00
-9.996684320538404833e+00,1.095299509701193677e-02,-9.793448183424079190e+00
-9.999551030615748459e+00,-8.657383880394386999e-03,-9.795484402330149720e+00
-1.000410273363002567e+01,-4.245092733720173817e-03,-9.795670062788923715e+00
-1.000484677061214711e+01,7.267128427347314089e-03,-9.793181984705181975e+00
-1.001361350220333968e+01,1.965005595704616415e-03,-9.795576108403277971e+00
-1.000543396141846308e+01,-4.880709306843878867e-03,-9.798470672193994702e+00
-9.997638363456847088e+00,-1.037188131803642305e-02,-9.795126337044880671e+00
-9.994973597203895110e+00,1.577965756287450600e-03,-9.781752171592389189e+00
-1.000251471149591787e+01,1.277905382553544801e-04,-9.786713935310691781e+00
-1.000848168207009792e+01,2.257027495285495768e-03,-9.763744576780524653e+00
-1.000356791347778795e+01,4.893829250492170123e-03,-9.801049118377164859e+00
-9.999137507554523907e+00,-2.481173719895172700e-03,-9.804682116868724151e+00
-9.998639371750671856e+00,-1.633363066363947630e-03,-9.796797717975406883e+00
-9.993743723299999715e+00,-4.322483806189486057e-03,-9.810339162719348138e+00
-1.000161467827395789e+01,-1.028281697774137329e-03,-9.784767989746818273e+00
-1.000536397639560349e+01,-1.783396610275160294e-03,-9.806392327579214196e+00
-9.998413073823394726e+00,1.931213157541820935e-03,-9.794755993221460955e+00
-9.996969015222376242e+00,3.765387179841477461e-03,-9.804143031279060949e+00
-9.993199845189025154e+00,-1.376671931545935977e-03,-9.799721518446819601e+00
-1.000546223745025820e+01,6.876083253181172056e-03,-9.796614533636310185e+00
-1.000325653951053440e+01,-4.537638849508942337e-04,-9.801908055399765729e+00
-9.997959460149550281e+00,-9.499825238942412667e-03,-9.795042042058812015e+00
-1.000434921133410349e+01,-1.090658151513773655e-02,-9.801325962579543472e+00
-9.996074850382536070e+00,5.580611987140255033e-03,-9.801811907631551080e+00
-1.000116073703410891e+01,-4.211766016452314805e-03,-9.804481804085501295e+00
-1.000206636143798278e+01,-3.965503269993976392e-03,-9.815271928223697984e+00
-9.998006830310355753e+00,1.440607827971395870e-03,-9.786378584014274296e+00
-9.999880274549630244e+00,-8.489833703766413650e-03,-9.802781662838535581e+00
-9.996757990518506887e+00,-2.562744838708779990e-03,-9.799891683356500849e+00
-1.000473652149651826e+01,4.943820007432830205e-03,-9.797992849396131021e+00
-9.999529031221767283e+00,2.226557244011499043e-03,-9.787716442408202155e+00
-9.997108390174608061e+00,3.450728736830516001e-03,-9.793177902032006443e+00
-9.995869257952504583e+00,1.592003707720321404e-03,-9.796128913597149435e+00
-1.000073257815359540e+01,-6.408284983138641880e-03,-9.802235507085686805e+00
-1.000413033363187942e+01,-8.099570644709052150e-04,-9.788636648621713121e+00
-1.000140210934245921e+01,-5.792581700414479659e-03,-9.801309323217189728e+00
-1.000056093373723343e+01,1.144220005771780235e-03,-9.808468359753309329e+00
-9.998159342494451707e+00,3.307698637736616637e-04,-9.781526951434711847e+00
-9.998073494336551903e+00,-4.588247062396403307e-03,-9.775886580695594574e+00
-9.997120342897494183e+00,3.567437678690239117e-03,-9.791743340172457621e+00
-1.000326610041942921e+01,1.478526985052026031e-03,-9.791049539968458504e+00
-9.989972892097533474e+00,-5.153953836229656880e-03,-9.786849041294317431e+00
-1.000863695353845451e+01,7.470735392897488898e-03,-9.788143795065970210e+00
-9.996167615520878513e+00,1.329741786941465069e-04,-9.804854247509474874e+00
-9.999910297314118068e+00,-1.873311167250325251e-03,-9.793987207456956057e+00
-1.000619783199351609e+01,-3.926987876877560853e-03,-9.798248607632421781e+00
-1.000836441868007043e+01,4.739076090889323030e-03,-9.794654759967579949e+00
-1.000312155227631905e+01,-1.244772226291671437e-04,-9.785950449908073168e+00
-9.995341561745767933e+00,8.775332248742067145e-03,-9.794847251864682747e+00
-1.000520525303205055e+01,2.060125749469966013e-03,-9.784959383074829375e+00
-1.000148597685501883e+01,-2.129138451304534796e-04,-9.788762989251061697e+00
-9.995090676804091245e+00,4.879243446302576398e-04,-9.800548343763638925e+00
-9.994341123019598427e+00,4.289972124568689101e-04,-9.776796741576523786e+00
-1.000024887925703787e+01,6.729432754210618907e-04,-9.793469646609530344e+00
-1.000311537662896377e+01,-6.175373365163393941e-03,-9.782028822887436803e+00
-1.001555479509929292e+01,-8.623467469101609231e-03,-9.803572774970865211e+00
-9.998069512298261685e+00,1.371793110662725785e-03,-9.798453987186437786e+00
-1.000913743533478240e+01,-3.863878132253449355e-03,-9.796125248152042886e+00
-1.000576925209560208e+01,4.392713262619155068e-03,-9.800222549369241420e+00
-9.992380767314864798e+00,3.410304826685156814e-03,-9.803223528741074944e+00
-9.994677532407855836e+00,9.375507273413143409e-04,-9.801743683975676191e+00
-1.000268564763456247e+01,-3.059767130211507613e-04,-9.793431741237395016e+00
-9.999726622127804276e+00,4.069614797486975806e-03,-9.795701281211377065e+00
-9.994597424596605606e+00,5.841659847195999899e-03,-9.796503153660630403e+00
-9.998894913279320562e+00,3.089726222059940419e-03,-9.787183010742342759e+00
-9.992681791660174895e+00,9.682603370425826861e-03,-9.797297178916602789e+00
-9.999214182746012369e+00,1.242700112725251020e-03,-9.781728696915960697e+00
-9.999905322321557932e+00,-1.147153104922280864e-03,-9.796670577215262909e+00
-1.000059256351566539e+01,-2.612582621370524490e-03,-9.797953769409545544e+00
-1.000006468787772462e+01,3.432162902460536309e-03,-9.800940348321832474e+00
-9.998985465723153609e+00,-3.191776084379037513e-03,-9.788092021883139537e+00
-1.000206798488852655e+01,-5.292472228188452830e-03,-9.806722542860130787e+00
-9.995462121613906348e+00,6.063761319290710168e-03,-9.783206838753162771e+00
-9.996292086609944505e+00,-2.519094861508799129e-03,-9.791694090471620981e+00
-1.000352852257005942e+01,-4.714783127169646509e-03,-9.792612759013925583e+00
-1.000138119235459300e+01,2.889908617716356858e-03,-9.796324949467999588e+00
-1.000342080964014713e+01,-1.145545314698486784e-02,-9.815549808324723458e+00
-9.998182085963668086e+00,-5.352673449304054532e-03,-9.789774665511922436e+00
-9.998835393287148321e+00,5.882023586792269401e-03,-9.785943026826140922e+00
-9.991796175606788566e+00,-6.449362510883375468e-04,-9.797361876100985967e+00
-1.000607729884065833e+01,-2.536067539410798936e-04,-9.772040221746877364e+00
-1.000250341140126586e+01,-4.176116262956511282e-03,-9.790892335273666092e+00
-1.000329845286789343e+01,8.655099442265678372e-03,-9.795183080546021159e+00
-9.995409948892827856e+00,1.132644577825321457e-02,-9.783677798592798069e+00
-1.000408177019350653e+01,-8.308357622188660557e-03,-9.797365639443219365e+00
-9.995115771433146890e+00,2.668633717173728506e-03,-9.799711579410102402e+00
-1.000356172703622448e+01,-6.306646821589178588e-03,-9.782938832917245975e+00
-9.993991286110809114e+00,-2.149752529736990818e-03,-9.792579361558741979e+00
-9.999457177903591898e+00,3.535102549382355616e-03,-9.787398645739976644e+00
-9.999258729691261394e+00,4.505169715080391442e-03,-9.805178801472736794e+00
-9.996044699402581557e+00,-5.237093038780182147e-03,-9.807702472697869212e+00
-1.000193246487010157e+01,-7.571531617472246345e-03,-9.784506888300708027e+00
-9.998942238816992401e+00,-7.825033061794588879e-03,-9.792018869097695699e+00
-9.991229747906286818e+00,3.672654220175641197e-03,-9.808239888463536005e+00
-9.996483245984748578e+00,-1.017852190157306561e-02,-9.801893927944842488e+00
-1.000187953404939378e+01,6.975255230832057111e-03,-9.803471012994908307e+00
-1.000486575271563439e+01,-1.301683267691650103e-02,-9.807779565715033954e+00
-9.997025565623273380e+00,-4.358431365941450170e-03,-9.799586810910556167e+00
-9.999785442046190909e+00,6.134648339267368029e-03,-9.776572481431799133e+00
-1.000625181721194679e+01,7.522126720486099240e-03,-9.793013238953090394e+00
-1.000037289045381250e+01,8.907090233902945076e-03,-9.790370111803607500e+00
-1.000679873936110553e+01,3.935938781131004434e-03,-9.798254865941149916e+00
-1.000117262568845078e+01,-3.945668686777356604e-03,-9.787954359482757383e+00
-1.000104447588273437e+01,-1.336559219013353991e-02,-9.807420683197305422e+00
-9.992318820210211783e+00,9.959756735885667237e-04,-9.784255657527729966e+00
-9.996682848319059289e+00,-3.448556759769294110e-04,-9.798807045116234349e+00
-9.987847726251329661e+00,-9.370894145403110831e-03,-9.793250845496491053e+00
-1.000837795722260104e+01,-6.006433376241224198e-03,-9.786882555257976790e+00
-1.001205182085482903e+01,5.546485510176855926e-03,-9.785782419660916887e+00
-1.000043826286262316e+01,2.856124511688472225e-03,-9.792182497449607226e+00
-9.995595179920142570e+00,-3.559004982407607248e-03,-9.796559893805657282e+00
-9.997181464319242039e+00,1.772138397899319972e-03,-9.788368670423821527e+00
-1.000314586165264608e+01,-2.936668022788953801e-03,-9.792565041002662340e+00
-1.000160016665868135e+01,1.565237252900563694e-03,-9.794145726413033159e+00
-1.001044819141968745e+01,8.710613081019480484e-04,-9.790784866694821176e+00
-9.996405450368763823e+00,-7.566634437084746902e-03,-9.809410147320807738e+00
-1.000002694822719640e+01,2.491926681711203757e-03,-9.795865784165487256e+00
-1.000088351258528441e+01,-3.616473490554828352e-03,-9.795434585089081381e+00
-9.996864788177084904e+00,8.411836173086474633e-03,-9.796888378796786867e+00
-1.000258715069362481e+01,2.031734731206390893e-03,-9.787580866127473911e+00
-1.000004427785315464e+01,1.292300219766204499e-03,-9.804706652200504635e+00
-9.998695111367300825e+00,-1.583646677195089036e-03,-9.786612650284839177e+00
-9.996938310717991882e+00,4.159576125598904005e-04,-9.801315219484182606e+00
-9.995417995056286031e+00,-3.760611555100410158e-03,-9.792962496736070221e+00
-1.000466317720793619e+01,3.785635234359346468e-03,-9.806425029437329854e+00
-9.993928698049710846e+00,-1.472766060830168729e-03,-9.799682344827260749e+00
-1.000038089580886869e+01,9.206094879766651626e-03,-9.818228215610339760e+00
-1.000321232861390008e+01,-4.505351643393864548e-03,-9.776289748494273013e+00
-9.999920969868815845e+00,-2.762124627878785339e-03,-9.797772243697757233e+00
-9.997329476850078223e+00,-4.174145268526783040e-04,-9.789508281110951060e+00
-9.996220221735981681e+00,-1.557497551227467886e-03,-9.803617520264742424e+00
-9.996932699585181936e+00,-8.792826941154865527e-05,-9.792602965492871903e+00
-9.998695940928707060e+00,-5.041623143533158734e-03,-9.790322401205230562e+00
-9.998615972785394490e+00,-3.645638631178971158e-03,-9.791714467051896520e+00
-1.000168742493691632e+01,2.744988923352384425e-03,-9.797037371163881403e+00
-9.999390064929581712e+00,5.849585766969757697e-03,-9.795303885381384745e+00
-9.991668486711839492e+00,7.950308380371112760e-03,-9.797092458761113676e+00
-1.000392038638984893e+01,-6.763056918844189899e-03,-9.790378018014113337e+00
-1.000926090175469341e+01,-3.298547648578710928e-05,-9.804305177673228400e+00
-9.993760524737213657e+00,-2.952554214836071271e-03,-9.795963788284838714e+00
-9.996544787773800067e+00,1.275950671609416822e-03,-9.790795846872239139e+00
-9.999780418397628878e+00,-1.701562669593458584e-03,-9.791594109956122338e+00
-9.997824204309608831e+00,-1.529342886930837959e-03,-9.780919130286392260e+00
-1.000155219489310809e+01,-1.792165345222551361e-03,-9.784382756148669813e+00
-9.998218542372086404e+00,7.704915605029822364e-04,-9.808936389973379022e+00
-1.000652357157041727e+01,1.517015979386830780e-03,-9.795869223993848962e+00
-1.000426107231340467e+01,4.030050595015439129e-03,-9.803592775026691797e+00
-1.000554947603878730e+01,-9.597687205304303542e-05,-9.800300489859807840e+00
-1.000233815234362211e+01,3.885759218372700045e-03,-9.793944350530454201e+00
-9.996496014027291821e+00,3.099318495809368600e-03,-9.795793617226410177e+00
-1.000526730835436240e+01,9.096166974731173744e-04,-9.796325434602431770e+00
-9.998257090457142837e+00,-2.109677336342605583e-03,-9.794515670793298767e+00
-9.992516688763878108e+00,4.238541086155185600e-03,-9.796526127057601840e+00
-9.999807082850484363e+00,-3.637427266467746674e-03,-9.804756371902133338e+00
-1.000090084838220861e+01,6.867303103947594621e-04,-9.792372677924790381e+00
-9.995559122798567842e+00,-2.438472135286777129e-03,-9.789792537886619073e+00
-9.996977705332795949e+00,-2.024903851255445680e-03,-9.800104828596500894e+00
-9.998981520982074045e+00,-3.905567960021468117e-04,-9.799327403913832057e+00
-1.000567209053527229e+01,-8.571115752928763418e-03,-9.789808096252816227e+00
-1.000067890164285167e+01,2.516174712236924748e-03,-9.785385996894396143e+00
-9.999104030416221534e+00,1.425302780328701127e-02,-9.802417693543407751e+00
-9.991234632496338364e+00,-2.250548836265118570e-03,-9.789435283472689875e+00
-1.001524236385530919e+01,1.975782697915623443e-03,-9.801709871670034602e+00
-1.000101282963930416e+01,-7.095045386601634731e-03,-9.799441056933218874e+00
-1.000721319436437362e+01,1.172944183079419229e-02,-9.791361934011348467e+00
-9.992214731043580045e+00,4.497208810513499133e-03,-9.773395768171070586e+00
-9.998612982982580277e+00,1.675569920180771440e-03,-9.798763250162789262e+00
-1.000577703505172344e+01,-5.539334030049083805e-03,-9.803872361697202109e+00
-1.000050049615304282e+01,9.475179610362216738e-04,-9.793506461015187625e+00
-1.000188635642657076e+01,4.523218920845788367e-04,-9.793808475457852936e+00
-9.997346695364281999e+00,-8.474043948587781788e-03,-9.802679166234906205e+00
-9.997084226116015770e+00,5.288231565321764235e-03,-9.800327131301230565e+00
-1.000616996674934001e+01,6.254514779711049278e-04,-9.787900392885413581e+00
-9.989411886853297062e+00,-3.635856553950374097e-03,-9.810737797947183481e+00
-9.996730711135036529e+00,3.079168138731496092e-03,-9.802659776188443530e+00
-9.999293067027123172e+00,-5.629855700055807176e-03,-9.788862435320675459e+00
-9.994473547845998951e+00,-1.461887378632268156e-03,-9.786868019498635718e+00
-1.000393471286180436e+01,-8.061585511792701553e-03,-9.806865592274398580e+00
-9.999589316059642741e+00,1.838377353506639306e-03,-9.789843789247203887e+00
-9.986933364182004169e+00,5.279983772956001534e-04,-9.792301856061733645e+00
-1.001054214568282497e+01,-3.289035187203444201e-03,-9.802567236490423497e+00
-9.998494316595520459e+00,-4.186609597191851516e-03,-9.801510342659378594e+00
-1.000420623599011982e+01,2.720392035181128055e-04,-9.788650312845655677e+00
-9.999944569532118521e+00,4.044039367216901125e-03,-9.795868621259112174e+00
-1.000244138928442972e+01,-5.896393418500305364e-03,-9.792197966016473742e+00
-1.000642255910884515e+01,3.377008927440012295e-03,-9.790019469419565468e+00
-1.000569700837516862e+01,-5.136224553113986901e-03,-9.789603021174496433e+00
-9.997201196002359680e+00,6.584270462307049987e-03,-9.801030936169260244e+00
-9.996867188374212176e+00,-5.811970338821519522e-04,-9.791279494970968500e+00
-9.996619596110427608e+00,-6.171672578595243340e-03,-9.795344309164383034e+00
-1.000870843984681535e+01,9.321360626138254848e-03,-9.787908127011450077e+00
-1.000148389997320741e+01,2.987447552849672029e-04,-9.791130241530053624e+00
-9.996877139580977456e+00,3.600105284079977569e-03,-9.792977251147481965e+00
-1.000040085732995898e+01,7.488837610532051055e-03,-9.793336053742882186e+00
-1.000409179086995515e+01,-3.939185397493882856e-03,-9.794223404597637739e+00
-9.996637471847401812e+00,8.978266040783394394e-03,-9.810397517332861028e+00
-9.992183496063791637e+00,-2.472892187665569566e-05,-9.782185724127231197e+00
-9.996850051461201758e+00,1.627162488976165037e-03,-9.790971521747758644e+00
-9.995695376039012814e+00,-2.572465360969281717e-03,-9.789388061371404604e+00
-9.999191050781233159e+00,-6.652966919456827256e-03,-9.797604908523734224e+00
-9.999860507426317824e+00,2.989964510312340465e-03,-9.777755125150680016e+00
-9.994451477131587325e+00,8.077445221146775309e-03,-9.798772120847802469e+00
-9.995187726983905563e+00,4.418155461654221794e-03,-9.789286984807898051e+00
-1.000256204518336922e+01,3.572937346179408044e-03,-9.785880833575227200e+00
-9.996556260594754661e+00,-3.267960473568734450e-03,-9.795375835745627313e+00
-9.996980802011538714e+00,3.117743167884923922e-03,-9.786416407099734371e+00
-9.993079817971013412e+00,2.366873058636050249e-03,-9.800364602819353621e+00
-9.993224777781781754e+00,4.078255828352444178e-03,-9.794268763320657101e+00
-9.988235885408913717e+00,2.056224327581900567e-03,-9.791053244143823164e+00
-1.000114148434759365e+01,2.056498841636368157e-03,-9.791676361082769731e+00
-9.991281332274827065e+00,-3.034040186142094794e-03,-9.792120873807046877e+00
-1.000350791235135617e+01,-1.830843190249976330e-03,-9.795262871844769847e+00
-1.001015421271982753e+01,-2.720817927578136636e-03,-9.790170314098634918e+00
-9.997981751943477491e+00,-2.070551279475389781e-03,-9.791227598876185212e+00
-1.000327677510058066e+01,4.805727647585675277e-03,-9.764704906839268617e+00
-1.000311525453419925e+01,-3.746908120895659552e-03,-9.791292083950908776e+00
-1.000334005433065698e+01,-3.516008685579021225e-03,-9.794869161966966331e+00
-9.995858796679144120e+00,5.852466785889401044e-03,-9.774765661228189018e+00
-9.998874933683190136e+00,-3.320814307727669792e-03,-9.801449804502121665e+00
-1.000519727867071573e+01,-9.635597529623500523e-03,-9.807437332018563936e+00
-1.000485324102439222e+01,9.488106012261169134e-03,-9.806636965503278347e+00
-1.000576402171673607e+01,5.725765756746838651e-03,-9.788670919582727947e+00
-9.988357229758316080e+00,-2.491805577125734503e-03,-9.785497943917357944e+00
-9.998282011963590676e+00,-1.232156437186976384e-03,-9.793812538550607627e+00
-9.995055659752727806e+00,-1.621164046223917622e-04,-9.772921766055771897e+00
-1.000062415267543692e+01,-6.677596013747294154e-03,-9.809684866974370365e+00
-1.000387994980698814e+01,-2.027084105875546789e-03,-9.810350616058494566e+00
-9.995865898229951085e+00,8.468293375186229308e-03,-9.796230864466368260e+00
-9.997030025397615205e+00,-6.537447048594920672e-03,-9.795436910884918191e+00
-9.998404527648304452e+00,5.976144525060064078e-03,-9.800915892763020665e+00
-9.998043489652895133e+00,-3.099786285948611352e-03,-9.794042981974840245e+00
-1.000055120851648738e+01,-2.212301009937602241e-03,-9.796822037196298183e+00
-9.998881164738600447e+00,1.387951001169204822e-03,-9.801554194238541129e+00
-9.992495482339341706e+00,5.677070707203421031e-03,-9.812915449962408942e+00
-9.998180198453228584e+00,-3.730087986310807319e-03,-9.801831114163912062e+00
-9.989791048116558159e+00,4.877873563394144289e-03,-9.777312645892008547e+00
-9.996630751600781295e+00,-6.249079954541773146e-03,-9.805194091878515650e+00
-1.000088651479042134e+01,7.531551321877334726e-03,-9.802854974273975230e+00
-1.000069261372265572e+01,-3.541657952643820521e-04,-9.780050743570336991e+00
-9.998101599434232156e+00,1.629996275893045698e-03,-9.806802806339359080e+00
-9.993392606037870607e+00,-7.525748029575078137e-03,-9.792095552865514918e+00
-9.997571847665216893e+00,-2.703259406209173026e-03,-9.797051629788295912e+00
-9.997109444479889362e+00,2.028003233704429083e-03,-9.793916520075255150e+00
-1.000547713223319590e+01,-1.577654754525218512e-03,-9.805303463023619770e+00
-1.000697501896651254e+01,6.781424330227558278e-03,-9.795932529187892257e+00
-9.993937557731461752e+00,-4.709603254813371498e-03,-9.792747869901308633e+00
-1.000112462340738162e+01,-7.294293443519333326e-05,-9.790240360885833937e+00
-9.992175075136696449e+00,1.109231891277770617e-02,-9.795947465411540378e+00
-9.998651001182430775e+00,1.284765020320536048e-03,-9.787508299460181860e+00
-1.000534438351929190e+01,1.472985953922864534e-03,-9.804252695385349270e+00
-1.000107592796872957e+01,2.499225375518039291e-03,-9.781264137635504952e+00
-1.000404682823295666e+01,-6.094873445855090478e-03,-9.803743131313821024e+00
-1.000193683988164928e+01,-3.069794654680536600e-03,-9.808362962028450482e+00
-9.992542250620880750e+00,5.706742560168105369e-03,-9.801829872659004295e+00
-1.000883218377418515e+01,5.625613017651624748e-03,-9.792923997525893043e+00
-1.000535427769722219e+01,2.396496337774019821e-03,-9.808173981615052384e+00
-1.000567535306700329e+01,-1.769254957410388652e-03,-9.797338229716649138e+00
-1.000026460608335910e+01,3.184776371700715619e-03,-9.791728818008175850e+00
-9.992733164873653706e+00,5.706432838856165084e-03,-9.798090853938012046e+00
-1.000802800878832244e+01,6.372236453077495533e-03,-9.793321633219211009e+00
-1.000459128793722208e+01,-6.535714984775951733e-05,-9.784695369911156959e+00
-1.000031257178925692e+01,-2.522091330698625344e-03,-9.785210754382191567e+00
-9.994615456453718849e+00,5.475786136318713110e-03,-9.811610486943903808e+00
-9.992523363585220864e+00,3.808826239863199146e-03,-9.783239212420674846e+00
-1.000264865102061052e+01,1.144917716222721392e-02,-9.788370596038111771e+00
-1.000295839579165325e+01,-6.837595956897943230e-05,-9.791102194291948280e+00
-9.998118190584772691e+00,2.851500169478372176e-03,-9.800213497300436671e+00
-9.995699423023589603e+00,-4.816155200940795954e-05,-9.794667775982244251e+00
-9.999407648492361744e+00,-8.704136660402336453e-03,-9.792127072635031126e+00
-9.991510417498014718e+00,5.212144647839377781e-03,-9.803901236118930385e+00
-9.998060708631507865e+00,8.864838218936665556e-03,-9.792039309694693827e+00
-9.997034871694552294e+00,3.661775111086959435e-03,-9.803668089834076227e+00
-1.000410928437606550e+01,8.244699226535950019e-04,-9.796211360465417073e+00
-1.000869443484854315e+01,9.806697466317548881e-04,-9.799954866643364682e+00
-1.000711010307565552e+01,2.485038786414721281e-03,-9.784609555511487144e+00
-1.000354130020069654e+01,1.003504794886630590e-03,-9.812640417190529263e+00
-9.998249823533686964e+00,2.913123676489112659e-03,-9.810457374691004873e+00
-9.999918180359630426e+00,-2.110726386087467821e-03,-9.782238416628540989e+00
-9.994939809459609137e+00,-3.678540112699674788e-03,-9.807983742942294469e+00
-1.000253625098278931e+01,2.525381714465898490e-03,-9.803336342581813412e+00
-1.000925214749287839e+01,-4.957711266335739116e-03,-9.798326830517268604e+00
-9.991911433814253840e+00,-1.184856318832072652e-02,-9.802088192493661367e+00
-1.000006687813133333e+01,6.978683639403310095e-03,-9.792046529330818316e+00
-1.000464864217800454e+01,2.057046308662188131e-03,-9.789705832939262109e+00
-1.000143291594480033e+01,1.352720287380303329e-03,-9.796256453118846963e+00
-9.995050130186195148e+00,1.354772278276263585e-02,-9.791442963566789004e+00
-9.999044729844271728e+00,7.273130800225724273e-03,-9.802689885072636500e+00
-9.990222942012538354e+00,-3.170610671271401233e-03,-9.796290666492041055e+00
-9.999882121384546352e+00,-3.594304370419798556e-03,-9.804699750011158343e+00
-1.000097869780736026e+01,-1.457847763788830159e-04,-9.802069622657551662e+00
-1.000100883926713990e+01,5.094073320082152800e-03,-9.802576424429036095e+00
-1.000011508833188856e+01,-3.308789418522627059e-03,-9.801709372224685524e+00
-9.990667542147223301e+00,3.038576009222966438e-03,-9.793825114753515138e+00
-9.995272760307662097e+00,-1.340496569370256937e-03,-9.794346726383968971e+00
-1.000510581287318956e+01,-3.282967116776648164e-03,-9.788175004574355853e+00
-9.999342676273625941e+00,-5.451157518171612266e-03,-9.776817252593174246e+00
-9.999532416768131426e+00,-4.858088887810606271e-03,-9.776904216554585858e+00
-1.000741341573977294e+01,-7.043867243625908173e-03,-9.804554305850080809e+00
-9.996996465555284317e+00,-4.725644238676788601e-03,-9.789995479174573134e+00
-9.993589331855218916e+00,6.250331879098569576e-03,-9.801922888353864494e+00
-1.000494040600722023e+01,1.198992083974150316e-02,-9.788046690236917868e+00
-9.999835088506058511e+00,4.165886386255497793e-03,-9.784156304173981411e+00
-1.000553968371380797e+01,8.487591460081935282e-03,-9.792864479971930436e+00
-9.993416617085028264e+00,-5.883175287903398207e-03,-9.782155639199508812e+00
-9.988582337364629637e+00,4.140806024352699892e-03,-9.797608731665164328e+00
-9.998717737174821707e+00,1.841813597185820196e-03,-9.804170063478329311e+00
-1.000267565723027552e+01,-5.217991255300732760e-03,-9.797960142934693195e+00
-1.000081548020991917e+01,-8.572347043463847231e-04,-9.794434377582911466e+00
-9.990105851744509380e+00,-7.332758206262003121e-03,-9.791936470885664434e+00
-1.000622101427410904e+01,-1.090096407561876642e-03,-9.804271338978239214e+00
-9.996315931870128679e+00,-3.685819514685029306e-03,-9.793118407719809682e+00
-1.000303132746398838e+01,3.233949907496949400e-03,-9.786517990771425701e+00
-9.991785345646619021e+00,-7.770223690431628250e-03,-9.791814191618199104e+00
-1.000268124069740772e+01,-7.397230481542586486e-03,-9.796639805976630200e+00
-1.000371785207397934e+01,8.303383690748194004e-03,-9.801212534736684745e+00
-1.000137014711542527e+01,-1.168608324524002305e-03,-9.801072645313350762e+00
-9.997265560021102004e+00,-3.422974922806938571e-03,-9.815237204519682734e+00
-9.995658923462741541e+00,1.042086460405005797e-03,-9.796600495300673117e+00
-9.997222104150804256e+00,-7.629440122499627115e-03,-9.805066430690567714e+00
-1.000019828875060313e+01,-8.099865989969669972e-03,-9.804719782022019103e+00
-9.996922647172342025e+00,-2.941378181762934266e-03,-9.797639164737363515e+00
-1.000150965874382969e+01,-1.207468322115789507e-03,-9.791943923273850103e+00
-9.999467068236883804e+00,-2.521856497118340687e-03,-9.795167662838634826e+00
-1.000450056981001268e+01,-1.864640612470252340e-03,-9.783651560278546100e+00
-9.994776421907557662e+00,1.359630300362856458e-04,-9.798628639005439567e+00
-1.000300455798417687e+01,8.605215371411021122e-03,-9.794767815483721662e+00
-9.998445046786050838e+00,-5.926175847511069676e-03,-9.780627276983709706e+00
-9.995053935490334496e+00,-1.392563467461837125e-03,-9.786942895285642763e+00
-9.988327321736473863e+00,-5.379366144782058747e-03,-9.774537585210822499e+00
-9.995041260777799863e+00,-3.220543203239266752e-03,-9.779475041771183541e+00
-9.997713654425346874e+00,-4.263039732151717442e-03,-9.805523120088954769e+00
-1.000307528409634550e+01,9.397195545033583050e-03,-9.798872332167254839e+00
-9.999387949924171792e+00,4.718364878119263132e-03,-9.800075513730789112e+00
-9.997951707874225491e+00,-1.962086203005849148e-03,-9.797072049023491047e+00
-9.999203167434011164e+00,2.793335770023617007e-03,-9.796509568989410610e+00
-9.993216694011120893e+00,2.118840579782922499e-03,-9.793658851985668434e+00
-9.999341579329449559e+00,-2.065805329835200804e-03,-9.793851287693275509e+00
-9.998611745198678236e+00,5.299688428392626376e-03,-9.812857273117128187e+00
-1.000642277271781921e+01,1.097792939227517674e-02,-9.796571649475739108e+00
-1.000451875629958565e+01,-4.395947011444750405e-03,-9.787891407265593813e+00
-9.998170337532123142e+00,-8.316867252708782588e-05,-9.799195323865939500e+00
-1.000576120861293639e+01,1.747399975402761122e-03,-9.796321034477365686e+00
-9.996815766414274051e+00,1.900412914669709743e-03,-9.795479461428296730e+00
-9.990349747168092875e+00,-9.849925240034118276e-03,-9.799961870836110478e+00
-1.000630110063822364e+01,1.093893397164629952e-02,-9.776424490194706607e+00
-9.993759289493333142e+00,6.873278299599244745e-03,-9.807263202494684862e+00
-1.000185182146902108e+01,-8.932040673509968748e-03,-9.791041973255893538e+00
-1.000087753048133976e+01,-2.080360176678740063e-03,-9.790459309175718161e+00
-1.001045080945488053e+01,-4.326254320015469716e-03,-9.807652029420532713e+00
-9.994195425267115240e+00,-1.002014836633245524e-02,-9.794455039165622878e+00
-9.995376712842729106e+00,6.619284446547179894e-03,-9.781605556035083637e+00
-9.997546929915536396e+00,7.306106387038551093e-03,-9.790063531560296184e+00
-1.000332382181577628e+01,5.784444795938680980e-04,-9.789371408223940918e+00
-1.000582732950496734e+01,4.948838997283897499e-03,-9.792418170602172012e+00
-1.000047042351884308e+01,-6.562490669279533303e-04,-9.809904070197696058e+00
-9.992935154774396977e+00,-5.569115676928055626e-03,-9.779655247189316114e+00
-9.989435851473917438e+00,-3.783931616284847300e-03,-9.787050224957742017e+00
-9.996782068196521820e+00,2.986604825518838525e-03,-9.789310666014001683e+00
-1.000403858530488144e+01,2.205746823545533600e-03,-9.790130824690942646e+00
-1.000492294083987410e+01,4.167734209320913229e-03,-9.804055148616981796e+00
-1.000332166910635223e+01,2.890591264796699405e-03,-9.784207532126036000e+00
-9.990545867660689083e+00,-2.848439941412974838e-03,-9.796988267314281629e+00
-1.000286232644815598e+01,1.021242133434461293e-03,-9.804825230548161130e+00
-1.000048836282088338e+01,1.375325803738271842e-03,-9.801885373691581194e+00
-9.995176741648268859e+00,1.360888683419945403e-03,-9.785442772638521802e+00
-9.995891703157898434e+00,8.043150134094816952e-05,-9.807582283195717565e+00
-1.000533952765604084e+01,2.693863422656255489e-04,-9.785820822722124390e+00
-9.991700374541913732e+00,-1.156803644565435616e-03,-9.784667826979083216e+00
-9.994849158688191793e+00,5.646908076383464620e-03,-9.807011241885176034e+00
-1.000667645485956747e+01,4.538190110512894948e-03,-9.799788612604224625e+00
-9.998554176122786075e+00,-7.184244581273939792e-03,-9.811488276210935666e+00
-9.993906715919498751e+00,-7.037198132185642357e-03,-9.795339513979888224e+00
-1.000249711576226197e+01,4.646873436365638217e-03,-9.789946686502762674e+00
-9.997060061441400691e+00,6.199489578313342394e-03,-9.789919118258550768e+00
-9.996560827780127667e+00,2.305030093945479881e-03,-9.787035897681956698e+00
-9.994019353571463427e+00,3.808013259769382070e-03,-9.802090578386806641e+00
-1.000529975542486127e+01,-1.098558326421776067e-02,-9.796640134462920813e+00
-1.000287541490060050e+01,3.191706502216405770e-05,-9.784645285049679231e+00
-1.000176477700954791e+01,-4.079918788858841183e-03,-9.796799835689926184e+00
-9.990894796343171791e+00,-5.199786273214237987e-04,-9.786469953118810849e+00
