gyro_x (deg/s),gyro_y (deg/s),gyro_z (deg/s)
-9.495079966272431879e-03,1.475772630435658039e-02,5.008958244665429743e-02
-7.047552353585216124e-03,1.572531390158463452e-02,-7.142640120220176969e-02
-8.606630813432400093e-03,-4.047422375006235438e-03,3.496866039224003769e-03
-1.699705118077655258e-02,-1.121572494448319635e-02,5.822606360943032022e-02
1.507098721644432046e-03,4.584931320381082503e-02,2.614610432598862486e-02
9.836046854277316186e-04,-3.798955875993193648e-02,-2.848245316072954558e-02
-1.575282440323194297e-02,1.466456792220227276e-02,-2.591776117668053922e-02
-2.547645401959398523e-02,-3.206927761101845131e-02,2.901520609384662663e-02
-4.328396518914306469e-03,1.253220117097629711e-02,-2.789201503515505382e-04
-5.109565979414566056e-02,-4.929566943818398939e-02,-3.279191964996047010e-02
-5.873587021068497199e-02,-2.961951291438647297e-04,-5.569107328653023770e-02
1.363469613112042005e-02,3.536979014662061487e-03,2.917647849348388792e-02
3.083348595974309825e-02,2.297770698891437105e-03,-6.343944005195988056e-02
3.360393637802155248e-02,4.438697520958186093e-02,-1.358663727295454302e-02
-1.373232926447756673e-03,-1.698873726040929857e-02,-9.400662766139223844e-03
-3.510470227699759999e-02,-1.811186972949956119e-04,-7.038647508370704346e-03
2.943779036911390277e-03,-7.070884090616037397e-04,-2.387860240066240480e-02
5.200341605644446391e-02,4.961014529135824441e-02,-2.941727093480554084e-02
3.957876134477775198e-02,6.600306239511016283e-03,6.516329474140949984e-02
-1.956693083023549207e-03,-5.788115362161312671e-02,-9.881366299880096904e-02
7.718829555313666546e-03,-2.059596158308298411e-02,-3.584225486636605229e-02
4.021687908310999510e-02,-1.939265918859518984e-03,3.713646024556103292e-02
1.346078770384013905e-02,-4.556305096804978000e-02,6.329611762928756546e-02
-3.349401349215717222e-02,2.922419541938698490e-02,-2.296476234894381102e-02
1.195757637351293860e-02,3.007309083303723318e-02,-1.915904473399778277e-02
1.687687091039495602e-02,6.135734203643813250e-02,-4.705566526925605148e-02
-3.462333629125487894e-02,-2.787098276501688218e-02,1.218076456609473168e-01
-3.698559064837411703e-02,8.003229621738007504e-02,-9.471297972462353748e-03
-2.104628182598719532e-02,-4.180912442031724935e-02,-3.324293189306178065e-02
-3.058692930562684209e-02,4.169275996458219474e-02,-2.660957724403282404e-02
-4.702153433681281053e-02,2.115647368717330640e-02,-3.535929867328049120e-02
6.902171625883153638e-02,7.911184702443214978e-02,2.230619349052498021e-02
-8.186553069002082753e-03,-6.110747191914737281e-02,1.510103127157007459e-02
5.923747919286325575e-02,-2.226347762309920791e-02,1.311065738835854103e-02
3.490698239981453177e-02,1.669502956320196088e-02,3.033475460006088012e-04
6.812436229479718053e-03,-9.546486670530157648e-02,6.310666218299143884e-03
1.825402076156167064e-02,-2.309550832446347068e-02,-2.871498595703809650e-02
5.490304971268754330e-02,4.031612801079982600e-02,-1.640756691580809792e-02
3.977620485225504682e-02,-1.583350899578834722e-02,-2.344987544299597867e-02
-6.071003614691051348e-02,-3.695984181561708798e-02,-7.142838171808302272e-02
-5.111985303454225776e-02,3.871985225076200049e-02,2.249134125706667153e-02
3.516275665139978468e-02,2.229210960507389035e-03,-1.491699440420598058e-02
-2.846873978692450805e-02,1.752965286686788624e-02,-2.296053015197179609e-02
-6.126765139074220184e-02,1.512679369622791509e-02,-1.831643189509148117e-02
-9.607748327570090133e-03,3.928078808584087311e-02,3.513288144057588602e-02
-2.121014849968859417e-02,6.909530385403297482e-03,2.026987789204800355e-02
-1.450271936469139759e-02,7.150858896637192486e-02,5.156822428918696882e-02
-1.245760867379374498e-02,1.140511894891268058e-01,1.138122430080045454e-02
1.061952885204475901e-02,-7.714688187384158291e-02,-1.736545108705773652e-02
-3.953816377463122145e-02,5.791536718813890261e-02,4.149031722981148806e-02
-3.804985567285198295e-02,3.884228741227049864e-02,-4.204391338767041880e-02
-5.470279407423243173e-02,3.217642619025756767e-02,1.840123469203651385e-02
3.122024937984880719e-02,3.453494272110740285e-04,-6.184868331992936230e-02
-1.100938587384257122e-02,-3.775619069901544646e-03,2.375368136679735162e-02
-1.610064925875129282e-02,-2.126245815436049458e-02,-8.568225792179581801e-02
-1.068728185408002185e-01,-4.812930967562135953e-02,-6.438368850000013820e-03
1.703018657297877825e-02,2.877486966621741610e-02,2.856116342249097328e-02
-8.062278694712723959e-02,6.951642565638430473e-04,-2.690039457614450125e-02
4.380828850106388735e-03,4.243662031520198386e-02,4.380970421408050819e-02
-3.130080839631520229e-02,-6.242125865086148827e-03,2.728178534704555139e-02
-1.433313069262732997e-02,3.128881514260315605e-02,-4.934962480754522679e-02
2.542099571333311658e-02,3.237012724366701566e-02,-7.263821297413620981e-02
1.252575948371975612e-02,-2.341731799690809079e-02,-4.655543352236866245e-02
4.354385828576818468e-02,-1.126447276332282789e-02,1.518074646407282027e-02
3.351026678523334745e-02,1.236719240890642862e-02,3.014146885698976500e-02
-3.012203972436612587e-02,-4.022841028298195648e-02,-1.969873558065233718e-02
2.716396744439749517e-02,1.536301694482649152e-02,-1.590850328844749251e-02
2.103586333650867002e-02,-2.351753682395272410e-02,-2.481361607803555386e-02
1.046971816884589845e-01,-4.804617216974885890e-02,1.512476356983239421e-02
-3.631203028850871206e-02,4.070462583300005904e-02,2.931170238473101378e-03
2.968697070898303897e-02,4.984560075938374024e-02,2.517324256953383521e-02
3.429379388480777689e-03,-2.371167534395334647e-02,1.118206353141876219e-02
-4.645968715441795710e-02,-1.293544569938928461e-02,4.143854488950318021e-02
-1.099707036461618388e-02,-3.715333391104867766e-02,1.429919065059097327e-02
-1.059106248752660420e-02,-2.696505471268773740e-02,2.302312923525855898e-02
-2.200890441416750859e-02,8.882799888359365487e-03,1.034358524763015763e-01
-5.346938468520142512e-02,2.784860838946043651e-02,-9.560309762067661921e-03
2.002530386357647546e-02,-3.636377608708381975e-02,-1.763771322541346151e-02
3.078935857384685476e-02,-2.058689345409226920e-02,6.801719755752362595e-02
-7.750146461189466596e-02,-1.012819293951984674e-02,5.085168411457800797e-02
7.559878920685421909e-03,3.334358837598303676e-02,4.239269157358043633e-02
-1.929637530771459789e-02,1.184974169479123540e-02,-5.402289814480643049e-02
-1.112931971672319331e-02,-8.082660138627925303e-03,-8.222232305933692767e-03
2.299103268612048834e-02,-4.661524965050265618e-02,-4.851374748641598678e-03
-7.371105603606708211e-03,5.100197532490362284e-02,1.018541311575243413e-01
3.260189784455908013e-02,-1.901058241913447869e-02,4.848689409334890066e-02
-3.608031252347038143e-02,3.941545171522577162e-02,3.642972803004741050e-02
6.432214302021709018e-02,2.265096630098737893e-02,3.305556194500781919e-02
-3.464455677409385148e-02,6.757614999807495804e-02,1.554818384440814598e-02
-5.909356928518285507e-02,-1.255643660672656724e-02,2.480236853612129491e-02
-1.150111982780672917e-03,2.786956806421413482e-02,2.499423406398017244e-02
2.112641341901689424e-02,6.649085393353718065e-02,3.049433609128622200e-02
-2.527057527955598945e-02,4.626761066030640746e-02,-1.307178477945595630e-03
-7.443391746863729785e-02,2.085821635839291838e-02,9.102933301940240940e-04
1.027886471645045839e-02,9.688273180590803446e-03,-3.981902278270671447e-02
-1.206967453258950447e-02,1.786243950063505503e-02,3.464512719860710771e-02
2.476794047466535781e-02,5.846369764101398692e-02,-5.081196465466492757e-02
9.414012937874638443e-02,5.465302527672979103e-03,6.214015359274229627e-02
-7.997350284842759047e-03,2.864895161785860431e-03,-3.692915949573432471e-02
1.535559535441340974e-02,-1.720863668235706259e-02,4.146783702167300238e-03
3.304174166897195369e-02,9.556458695991122687e-03,-1.081848789471478826e-02
-7.284528242817678474e-03,-1.578983873004880661e-02,1.416791475506182858e-04
-4.472968892359702880e-02,7.638722566010760530e-03,-6.910690865180538212e-02
3.054789338705856793e-03,3.345174430935894672e-02,-2.737604093232106142e-02
1.814073305652051660e-02,-2.850801166325078306e-03,1.126528037552528699e-02
-4.957237555442135096e-02,5.518021432398426823e-02,-6.946973357763884527e-02
2.623517867937897891e-03,-6.220210017046728934e-02,3.744167383933406923e-02
3.164314483492922450e-03,1.790780663813806156e-02,-7.775035020091405902e-02
9.067481902481978884e-02,-8.073848100057086363e-02,8.851992754680175490e-02
-8.858921411255929468e-02,2.721451580921852020e-02,-6.776611594335303634e-02
-1.064175996183675844e-02,1.151069350152076134e-02,-1.953281035733067314e-02
8.663420781698396786e-03,-6.384638309794005151e-02,-9.704264380285246641e-03
7.254675146467896851e-02,-9.135336538130079537e-03,7.057799182715956965e-02
-3.585792438450138148e-02,-1.536051495020244323e-02,-5.157166280840722733e-02
-6.083628992911570277e-02,6.769495340401381067e-02,-2.036521693854826797e-03
-2.035437755101930299e-02,-2.580462587765336782e-03,-5.781327990953640666e-02
-2.149142070917137506e-02,2.233413678410623923e-02,-2.305018602416634976e-02
-8.169249753758191235e-03,-5.762686045715217920e-02,1.112924432949422698e-02
-1.899084379511490131e-02,-4.686965240219292950e-02,7.535460429758454592e-02
6.724031748406542053e-02,9.712823428174394147e-03,-1.656478064623018815e-04
4.473212224962091338e-02,8.700809307195241094e-02,-4.060011326719276115e-02
-4.909701645294117789e-02,4.252520484552437668e-02,-7.430910882964644748e-02
5.604445219604455020e-02,-9.638901516069126041e-02,3.275241247245271048e-02
-4.431771538148157261e-03,1.066644674822010003e-02,-9.846945179852576585e-03
1.345920261608887086e-02,-1.683888113204446563e-02,-8.417042667339018347e-02
-4.061788755950818119e-02,-1.766064146848957822e-03,-1.085655276082547055e-02
2.765128289273112785e-02,7.735106016370935089e-02,-5.641818669154464311e-02
-4.267773572405240967e-02,2.660771263219414984e-02,7.975906003097530533e-03
-3.399430988285035565e-03,1.578105498805940088e-02,-3.194691414113574185e-02
-1.354198008626826197e-02,-4.906709514636770075e-02,3.506667107411669607e-03
1.351407836193819004e-02,2.937432224227473632e-02,6.774733756634007675e-02
4.417615507956221266e-02,3.843234670476446818e-02,3.018939600038005044e-02
7.456470587233061942e-02,-3.207473819243799717e-03,4.145741452639992858e-03
-6.444832495735913769e-02,1.420361691301244740e-02,-2.604081982424368003e-02
3.593330341619367652e-02,1.042832044600723422e-02,-3.932596056999871498e-02
2.934552585989168988e-02,3.704191650323959001e-02,1.887903581468470182e-03
9.223427740143711265e-03,5.315692512768521033e-02,-5.075464234604434854e-03
3.963163417365995339e-02,2.232713525231541651e-02,-9.437494285608898775e-03
4.500714326050057196e-02,-2.275259637246308461e-02,7.313935162799445333e-02
4.998538839520903169e-04,1.640762257669144478e-02,1.275446143806143254e-02
-6.845326331212517323e-02,-3.545805100143509941e-02,5.100084623431365080e-03
-1.919290697380674968e-02,4.228508040152487851e-02,3.148348420312866575e-02
3.446655578843658627e-03,5.339230247626846476e-03,-2.256583596051361593e-02
-1.941937941902309450e-02,-6.625928968142925923e-02,-1.902849225604793387e-02
-5.859222121422994617e-02,5.420981059453657686e-02,6.539463802450841412e-02
-2.570059687999947783e-03,1.506480996582579626e-02,1.694039277561192741e-02
5.388738181994362497e-02,-3.533142750069233340e-02,8.693114040997113739e-03
8.891449179238156142e-02,-4.328067852885746775e-02,-2.045922258188897017e-02
-1.344759287265659235e-02,2.365002294007871597e-02,-4.864092141846904777e-02
-1.639154240062556727e-03,-1.223628019719390399e-02,2.798472135870580871e-02
-8.334635137109719372e-02,-3.740193141714441127e-03,-1.750457410356563714e-02
-4.057953076178141133e-02,6.638793837316158720e-03,3.695078343218129169e-02
-7.314587568178305965e-02,-3.863765367812135865e-02,-4.868673880305130625e-02
2.651390721250512783e-02,-2.388336106024792002e-02,2.616148173569984511e-02
2.356307308110961590e-02,-5.436894584530529984e-02,1.506987848907450148e-02
6.599378192985040636e-02,-6.007455175395852442e-02,4.584415804705559150e-02
-1.099816715722105875e-02,4.659812828428339798e-02,4.090840530368505812e-02
1.133111321567268704e-03,5.128949535536017276e-03,-4.065361804057735645e-02
2.301154724119615011e-02,-5.571175152832224392e-02,-3.067100110342587532e-02
-8.465909424820715692e-03,3.055128910092344205e-02,-5.491930236206141180e-02
3.597466026720565896e-02,4.992458292757216004e-03,-4.760955480930158246e-02
3.393351491089900696e-02,2.827329400402108124e-03,-6.466456496268373211e-02
3.131559240282646289e-02,-2.167208429243899434e-02,2.942271857716536806e-02
1.637015475893557892e-02,-2.568137709509293529e-02,6.147791820651599300e-03
-4.331166837519050648e-03,2.258594354503997911e-02,-3.122974185587464382e-02
2.744811817686988037e-02,3.992513521913135244e-02,6.256594180756991364e-02
-1.354697746302406698e-02,-7.736059431776409756e-02,5.105250706842195951e-02
2.336734511004509227e-02,1.639410894092854093e-02,7.084753127521715987e-02
2.368338026434673588e-02,-8.184864404272679250e-02,-2.143780299640459658e-02
1.641503879864887258e-02,-3.766685861002274510e-02,-3.849824341335835592e-02
6.951357523788868897e-02,-1.335320272312660352e-02,8.756262011842872936e-03
-2.819308222574294989e-02,1.492256301780196977e-02,5.754628364871714613e-02
-4.841881979589806109e-03,2.153004614791714788e-02,3.162996805811506967e-02
-3.290642345398999552e-02,2.430810681348745395e-02,3.961407245413718983e-03
7.826755067584740882e-04,-1.646104218381972545e-02,7.450423604682142320e-03
-1.239160400068799531e-02,3.258128891292416673e-02,2.558083996478657807e-02
2.811147860413817576e-02,1.283627227790282155e-03,2.938801287562699954e-02
1.376375772812317433e-02,3.787590511849785874e-02,7.268654933170689853e-04
5.417734512703151900e-02,2.756015847475539252e-02,4.260118515327990935e-02
2.175865913734154403e-02,1.538173705923792829e-02,5.279797933899219378e-03
-7.792991373662574994e-02,-4.256523590622136172e-02,1.196011715604444747e-02
-2.140258638109601708e-02,7.375903745860439009e-03,-6.466498724205312076e-02
-5.151891661959157737e-02,2.328324531349368343e-02,4.725242921751012654e-02
3.690793523491409101e-02,5.227891582486877270e-02,-3.076561393530542060e-02
-1.684112506505834952e-02,-1.175529208561279793e-01,-5.310747209523822288e-02
-2.237571769647829847e-02,-4.116087609263693881e-02,1.711302102307699774e-02
3.819325785229712306e-02,-1.410801016291557755e-02,-1.713413127410893730e-02
-9.057479637507644121e-02,1.499338090958541106e-02,-5.357890010333097447e-02
-1.687117751897283932e-03,2.421637044691955440e-02,-7.079268778373627724e-02
-2.009777921490630073e-02,1.786425283123882490e-02,-9.441497021590879168e-02
-8.685033410311078506e-03,1.780182813144242510e-02,9.154965052057381994e-03
-3.893105101263365925e-02,2.205139125550355586e-02,8.595539327941433688e-03
-6.946594203559956771e-02,-5.206148443311293950e-02,3.148325976012859156e-02
6.539848404205139687e-02,-7.401980073054057439e-03,-5.798438929474312303e-02
2.005831140868404722e-02,-7.360314262998055024e-02,-3.938908809235513883e-05
3.717898621752092209e-02,1.079587831457809108e-02,6.025452316593701493e-03
4.083962107741320215e-03,1.194883982947276581e-02,3.994842811256166942e-02
3.555925728635753874e-02,-2.400081167354234293e-03,-4.163245706285852166e-02
-2.928208967127186174e-02,-3.312324769376301381e-02,-1.067343695441910247e-02
6.052486714106380082e-03,-1.499372530379690892e-02,-1.422720600487921254e-02
1.079235503741958306e-02,5.672382571020667501e-03,5.016797211836394182e-02
1.310431000688470904e-02,8.846831949709837994e-03,-1.311659755069238993e-02
6.815319600568754688e-02,-5.972845234264540989e-03,5.125170830415305169e-03
3.638676920273564708e-02,6.795363931388496287e-03,-1.226542896613383449e-02
1.827943936751965162e-02,-5.936811552475091021e-03,-1.475862422658648192e-02
-2.187972353121864482e-03,-3.321821109137044342e-02,-4.034973658991409910e-03
-3.911893841258359122e-02,6.776287601126455840e-02,-3.991151689698253097e-02
2.379494353327733618e-03,-1.017562310132038433e-02,-7.728586397352561407e-03
-3.361668359254583321e-02,3.675867167647114964e-02,1.547772708307395585e-02
1.728479964281545364e-02,-3.541824140917686214e-02,4.623909697180096645e-02
1.794453917984892982e-02,4.591993157834178135e-02,3.165954993796222389e-02
-4.242088414965580062e-02,-3.992655448368952545e-03,-3.637482911436648418e-03
3.229943784738019408e-02,-4.249764799885059896e-02,-2.527582547945580668e-02
-1.888805249778877787e-02,-1.347585027837859897e-02,1.935428545636152034e-02
-2.852632655197894634e-02,5.340183502023620674e-03,-8.556820354417713631e-03
-6.836588278048737893e-03,4.908689377066109000e-02,-2.025260881544504576e-03
6.126350954757978778e-02,2.586547685353529288e-02,4.185941572724844600e-02
7.255205883995534399e-02,7.322942476381090471e-02,5.177617774650562082e-02
-4.902656611568051437e-02,9.512591200939279901e-03,6.343258445750044570e-03
4.674726554072194257e-02,6.150476115853967252e-02,6.162567186223231325e-02
-3.503062331619967440e-02,-1.797845036145877262e-02,2.195949391738294745e-02
2.272010828524016757e-02,-6.614357511430244037e-03,7.186115025589264946e-03
1.199723536284428779e-02,-7.303660841945352859e-03,6.138215482967238762e-02
-9.857969596917651872e-03,-5.074647020574162698e-02,-1.193228865292797654e-03
3.808367431231108463e-02,2.579852338266777623e-02,-1.567072435008961054e-02
-1.762677364298649921e-02,1.106827133793100194e-02,-2.137438926737041112e-02
4.635080547997654649e-02,1.149283188019814723e-02,-3.040428068865033695e-02
1.937484954485422378e-02,5.397150039404734201e-02,-1.014019331735790778e-02
5.327899591770419996e-02,4.406908068702063835e-02,8.070116652621321662e-02
7.381590941294510766e-02,3.516914792272222978e-02,-3.299987576647361864e-02
-4.351612951386624878e-02,-5.131902888751366590e-03,2.265171106367729753e-02
-5.707559931430506578e-02,-1.485362448215205022e-02,-5.125223153035532962e-03
4.624800505163323416e-02,5.866990679922655383e-02,-4.737265182639401745e-02
-5.695316741987888759e-02,-9.213998121424459009e-02,1.618906636458807002e-02
-1.486430071032973296e-03,-7.827013399816067085e-02,5.103106520183406380e-02
-1.296646857650952077e-02,-4.530465568729737103e-02,4.409730908452899611e-02
-7.106021163193079748e-02,1.147072892951913822e-02,1.948256502686079167e-02
2.385359098813983128e-03,-1.881736215894817127e-02,-3.599955315489000024e-02
-2.061842442885458357e-02,2.579899711705964382e-02,-6.178560204064224848e-02
3.671739459790712007e-02,-3.219021339028039358e-02,5.475368213573100773e-02
-8.922934188191431609e-03,-4.869891760775432038e-02,-3.232616882755571120e-03
7.103512467152109378e-02,1.871427354253544714e-02,8.306161326736394290e-02
-1.179000073103769058e-02,-1.161375730809300483e-02,-6.093717182547692124e-02
4.635648203849304649e-03,1.473452686300951928e-03,7.146718062174773831e-03
7.775348409822953333e-02,1.141101499912426306e-02,2.645427857661711724e-03
1.258741095309551423e-02,-3.560076577232193507e-02,3.944907882571124791e-02
7.906749120214826010e-02,3.079735839899077916e-03,7.480589201966279800e-03
3.891656557763066571e-02,5.680047746145832493e-02,2.561322982075910776e-02
-6.785170415886082607e-02,-4.852049635794895149e-02,4.314032094052180216e-02
-1.013217398740181782e-03,-1.291858978994654119e-03,-3.805452953939757882e-02
-2.951778515817589377e-02,-8.396785888861319977e-03,1.503979846781825468e-02
3.325041449875445858e-03,-1.430385754822907900e-03,-7.949175902060784393e-02
4.011182237633078435e-02,6.875998613544324900e-02,5.295972487842044024e-02
2.137029665482525695e-02,6.049894879086632760e-02,1.750802572355655146e-02
-3.451557399418609534e-02,-3.094962331631632632e-02,1.721090203250343065e-02
-4.073966993497753208e-02,-5.866938958841739354e-02,-4.411378892857452383e-02
5.733634431672434383e-03,2.936126163151158569e-02,1.824263971757958055e-02
4.025575241953072148e-03,5.071617300127814754e-02,-1.820826424393567899e-02
-1.979194349755387938e-02,3.521391325035159309e-02,-1.785035173305044368e-02
4.578490197151981189e-02,3.453115481939422055e-02,1.483092345547576407e-02
-3.786688352243847838e-02,2.595382090857047824e-02,1.440488832797306822e-02
-6.794141620870635355e-03,-7.675156510057046244e-02,7.539892017868408958e-02
2.532988272007289168e-02,-2.314538478727745999e-02,-3.463661821711810918e-02
7.201386974674999289e-03,-9.038054363022447399e-03,-4.797964829720602342e-02
-1.720561405054716470e-02,2.065143917604563700e-03,5.366066673553771676e-02
6.132494403170949369e-03,-1.397358771171064440e-02,-3.046033243442925614e-02
-3.489690633074906539e-02,-9.147738029111796010e-02,-2.386477953336967744e-02
-6.238875269014945713e-02,-2.974072849716232966e-02,-9.115400184654152277e-03
7.933886883039112381e-02,3.810463778518934086e-02,-5.726842734669453788e-02
-1.672721789558185429e-02,-6.114146356235165142e-02,-1.656663581348913339e-02
-4.097461370360271082e-02,-7.582566196399229130e-02,-2.522424063472269648e-02
-8.805481736458426996e-04,-4.233510081918845196e-03,3.110966157740459315e-02
3.365776919971133485e-02,-9.663490495624565968e-03,-1.925776837112913586e-02
3.016432129599547207e-02,1.369601295226310217e-02,1.362856888835637000e-02
5.894994908834798840e-03,3.416250955251979443e-02,-1.877700093247364199e-02
-5.781828629608230102e-02,2.904981636042467882e-02,2.411958504288938543e-02
-5.121295713413259731e-02,2.109719323121836410e-02,2.438637959110545247e-02
-5.518636336373781981e-02,9.483689783104829255e-03,-2.201656347941212052e-02
2.291525152182396358e-02,1.970316792440044221e-02,5.206584097716638465e-02
7.637014613777554951e-03,-1.182724087014683755e-02,7.888511900660793996e-02
6.154802929826850080e-03,6.307520848170470977e-03,2.031806721706502783e-02
2.123554912392912331e-02,1.939030943954523495e-02,5.212932162371062411e-02
6.836153718241904514e-03,1.459403088742146359e-02,1.589623131026749597e-02
-1.262087924001322435e-02,-1.730290044642369615e-02,-2.965760348951713282e-02
-2.459041508997540648e-03,1.754292378713658007e-02,-6.755619203929781602e-02
2.019415506458424256e-02,4.796273546541249960e-03,-4.148433859523874279e-02
-2.186538674977356691e-04,-5.100869779815146721e-02,-2.152232816968985968e-02
5.324855300320732038e-02,2.186499946993732124e-02,-3.308909689614000088e-02
3.925870009077900465e-03,-4.222718829941724678e-02,1.816126931602595135e-03
-1.877701345466508201e-02,-8.349063380991444960e-02,-8.768701771410179757e-02
4.804731217698436120e-03,-6.057472152206729368e-03,8.618800757580459548e-03
2.767032669160628122e-02,2.275046430398115771e-02,4.778207302266335860e-02
1.797245261473689754e-03,1.254328068877303207e-02,-7.746927083199101928e-03
-8.431344971635210128e-02,-4.534481252563363207e-02,1.947957589175142168e-02
-5.029842311409825524e-03,-6.076080919072106984e-02,-4.955433183994216104e-03
4.214767640330621679e-02,2.002849442022571966e-02,1.676475004698214227e-02
-1.801511611914105235e-02,3.164474754882851126e-02,1.568228360669387048e-02
-2.685089369602340278e-02,1.326673217075001118e-02,2.289947502361776993e-02
-1.875385156137920201e-02,-6.937248804937566626e-02,-5.999608914827274375e-02
-9.069417285433496040e-03,-4.346212425898843962e-02,5.961360327199007048e-02
-5.712436149528781620e-02,1.183147711119203992e-02,-1.362694127360789507e-02
1.225007932748708138e-02,-7.129427062522357417e-02,3.208068997501136582e-02
-4.297337069437153108e-03,-2.336894327223153212e-02,2.345983726625765903e-02
2.956177226753157333e-02,-3.361962597500538913e-02,8.777775096799383947e-02
7.086605793551431498e-02,-1.670662491345406911e-02,-9.906706340473408080e-04
4.410875289638702124e-02,7.931860453540990133e-03,6.176929807692903979e-02
-2.242233958266760460e-02,1.927759592738873679e-02,-4.171089974312718399e-03
-9.009380691225965521e-02,-6.950918512500582624e-02,4.222380377895438436e-02
2.783120319057013486e-02,-2.052769666931604162e-02,-6.012965492219850966e-02
-2.854054124984354082e-02,-6.622759628980808000e-02,-2.749261766661520792e-02
-5.266645056970248318e-02,-1.420474171451704612e-02,5.459381285339333367e-02
-1.337244302486485271e-02,3.666270647864084548e-04,2.227329318226311736e-02
-1.099189302892277231e-01,9.081263914943940932e-03,2.626612494549650581e-02
7.190031806917152393e-03,9.494116201288330115e-03,-1.800827835832154514e-02
2.188836100039467242e-02,-3.376238038886657244e-02,-6.623201356952426386e-03
-2.774237161999202825e-02,-1.661296701453112909e-02,1.809410490735104474e-02
1.697788045249798775e-02,-5.453514452207654239e-02,5.471042112623822340e-02
-2.959497439268925657e-03,-6.882332935942907237e-02,-2.806295874732603942e-03
1.035494232850463214e-02,-8.571813796022774434e-02,3.383517495180538709e-02
-3.208752637366473447e-03,-7.260465756213888011e-02,-2.013613858237753990e-02
9.417826817659002980e-02,8.949961108163485834e-02,-6.079829485209337255e-03
6.453119743015155174e-02,-3.688008111443286802e-02,1.328597500978075585e-03
2.208242741119769911e-02,-6.355599012514162420e-03,9.023274431089202408e-02
1.197643900480342000e-02,-1.239172358036438742e-01,-1.824680367001031700e-02
-9.996594529461970413e-02,9.759063731353768978e-02,-8.240094787715133984e-02
6.576687509718420754e-02,-1.145860372154884393e-04,-1.425903352235041981e-03
1.703246672845569812e-02,4.165749646058442696e-02,-1.978013536566591846e-02
-9.488289379031893123e-03,-2.682496427340726880e-02,4.065419990048557003e-02
1.325544357865321259e-02,-7.205861412432920665e-02,-2.100313361744212196e-02
4.009141288812296394e-02,-5.637449318453114505e-02,4.090053793044075292e-02
-9.025872167614991393e-02,-4.808303413043316793e-02,-7.532091248268064400e-03
-2.953045054744722273e-02,2.382301464535345817e-02,2.392653516778299461e-02
-7.832068249301495436e-03,3.590850328875618697e-02,4.122160507061094215e-02
-2.874194264381045236e-02,3.417606494803052813e-02,-1.416319623054944181e-02
-6.023874512740472198e-02,3.264989604643821208e-02,1.147914415251717959e-02
-2.195087198402736334e-02,-1.190186422935321509e-01,3.277047656269614639e-02
-6.304901007533901362e-03,1.494837497844522063e-03,4.078370411552422609e-02
4.622614344592928561e-03,1.298492164348930833e-01,1.636851401660739322e-02
-5.645274612071566472e-02,-1.248174505281882639e-02,9.416786852082647402e-03
1.811534917020772573e-02,-2.162429573166834221e-02,-7.424623327714989507e-02
7.138408503602304556e-02,-5.878531328373510882e-03,-2.020042857435751238e-02
4.167685413546673434e-02,-1.041538182255000722e-01,-1.128556285706651049e-02
1.137686070792297971e-01,3.115364353952905854e-03,6.524475271649783636e-02
-1.356525778810496264e-03,8.665893026530131771e-02,4.957708740881772852e-02
-5.763893995697769168e-02,-9.572574840407027316e-03,-8.191279509166361078e-03
-3.179877553025586140e-02,2.766283859471181661e-02,-2.180266347674843230e-02
-1.883370311685871046e-02,-2.748473873412164009e-02,-4.835191274446345305e-02
2.173562941283179936e-02,2.038657440010066893e-02,-9.634777663559896885e-03
7.641555692142081024e-02,4.040506814322925022e-02,6.492323150049971077e-03
1.537238584310544366e-02,1.609892670777289189e-02,-5.700992112626263736e-02
-5.749263156178718165e-02,2.665149573309921749e-02,1.653435013776443155e-02
-1.821525216629896193e-02,5.194444656938429494e-02,5.253985828096401772e-02
5.431859554374290910e-02,-9.823278555544644533e-03,-3.356736647797290557e-02
-2.048459749875096783e-02,-1.480855181371741255e-02,-2.360292928791305617e-02
2.698555663266072324e-02,-4.044949310494542344e-03,-1.398159418455740925e-03
-3.101384879476777254e-02,1.558974117817103419e-02,-6.183666414044578993e-03
2.418098830198530877e-02,-5.755303615095738040e-02,-5.723218987112095590e-02
1.039709657884216841e-02,-3.646646803293047273e-02,3.846884618178515736e-02
1.991769496543762188e-02,4.765742408058859514e-02,6.993678922076125874e-04
3.048828000379260814e-02,-3.892533705857717519e-02,-4.702708225618744409e-02
3.039424668095164900e-02,-3.244535741615690166e-02,6.929248842680771348e-02
7.097672864726160824e-02,6.880478185373775646e-02,4.632963875635863482e-02
-4.086812640067852276e-02,3.543269137876490366e-02,-1.384841400453262761e-02
2.886694388157073216e-02,-2.413479416316161724e-02,1.322516316071445895e-02
-4.815629153533616813e-02,1.827403732334871578e-02,2.377652360416701929e-02
3.751855663129924356e-02,-1.751547297207651371e-02,2.840249067313011487e-03
5.191372375731616480e-03,-3.607936781247873120e-02,-4.276117563616343986e-02
-4.689655615335108080e-02,-3.360274790584626831e-02,-8.008321553038964813e-02
2.856420545930144633e-02,7.676061772477948963e-02,-2.025555332956090887e-02
9.864817766516467690e-02,-6.685125445634486352e-02,-4.527245652925881818e-03
2.008605571161180617e-02,1.186710639622354062e-02,6.619424738431715916e-02
1.257457141805470684e-02,2.792889497983651065e-03,6.752356796486916335e-02
-4.945916900264189092e-02,3.104769329898245458e-02,3.610477648715695875e-02
1.868112780371782022e-02,-1.529037301397902747e-02,-3.898369969640137767e-02
8.089099513388736673e-03,1.488088088124106534e-02,-1.549352764536351956e-02
2.606399628133259164e-02,4.996885191006309249e-03,1.153874803894775272e-02
-1.064555734869520806e-02,1.017485628507169143e-01,-5.248943900912205612e-02
3.048401383519970184e-02,-3.856765302568679332e-02,-4.410525560035452597e-02
8.176509619678333507e-02,1.867906305820107860e-03,-1.242629278915461342e-02
1.475776109368896402e-02,8.037330902048904838e-03,-3.022371332307068753e-02
-2.989184985115829474e-02,-2.570626574394503996e-02,-3.701687293651601679e-02
4.473150177441023029e-02,2.790834393175219835e-02,-3.362128336494064201e-02
6.863802918720057766e-02,5.133744049140153559e-02,-1.241844041318764837e-02
1.903409150007220538e-02,1.460328547056237436e-02,1.042332080297696251e-02
-6.978664730210284474e-03,7.825008069294277224e-02,5.587689300069844517e-02
-5.167640890590921576e-03,-8.121429016650435692e-03,6.087495939918476789e-02
9.257278307201490669e-03,-7.832261573542349115e-03,1.457938670196776490e-02
1.599949813672817481e-02,4.724721465949575233e-03,2.242971150586414025e-02
5.317922013429421738e-03,-9.543522535094749182e-02,4.627247970647583274e-03
-3.625344864842235809e-02,-7.235262570486636347e-02,2.658158672336221814e-02
-3.490173725639752339e-02,9.964036634776560208e-03,6.552229308884142955e-02
-6.064649976817682031e-02,3.778978495220327444e-02,3.884131221835303901e-03
5.151746506692136962e-02,2.928515456611716777e-02,9.687003703047682591e-04
2.146907417223368683e-02,1.380533384912535633e-02,5.013692287468102205e-04
4.670359164997644336e-02,-4.302180222529924936e-02,-3.132755569585972399e-02
-2.947211345154991322e-02,4.514275196677500213e-02,-1.030480533384202889e-02
3.985491443970090586e-03,1.091965312034115509e-02,-4.337365580335413029e-02
7.797367432990205682e-03,-2.597972745044508508e-02,-1.351769129603316300e-01
-6.030687706806284881e-02,6.959543647142457656e-02,-1.935740053363887124e-03
-8.991124413902383539e-02,-6.853287681127116782e-02,-3.391522682558143625e-02
-6.802782632915570921e-03,-6.152669374194881524e-02,5.206835110119900634e-02
5.100183705194809985e-02,-1.752729167740889934e-03,-4.878300062054819614e-02
-5.016270899200959109e-03,2.901736577202734119e-02,6.289266261630248323e-02
-6.227252604852009238e-02,-3.053361527663834077e-02,-1.441876414675716256e-02
-1.009007419839309111e-02,-1.065223146297143361e-02,-5.316521322132738286e-02
-2.320143705921156457e-02,1.126749067185183958e-02,-3.587280009826672444e-02
-4.291459771497353054e-02,2.010643493075805685e-02,-7.532827369436589926e-02
3.598661634303353812e-02,1.398220165405291426e-01,-1.727586387759461051e-02
-3.676064385392315004e-02,-1.227060232958535752e-02,-4.138875500430246046e-02
5.741826252140828230e-02,5.217324489294383055e-02,-1.954343264229724958e-02
4.406645391588197985e-02,-2.696414368839994066e-02,5.962736927899950183e-03
-1.556424693350059660e-02,-2.496061245897942572e-03,5.775862469178667802e-03
6.034638810223454455e-03,7.660545629576141768e-02,-2.780139759453904326e-03
1.196795442905768114e-02,-5.040601764576631283e-02,-5.732612648072202277e-02
3.448512897980337416e-02,-1.500557603422115333e-02,6.574835651490007482e-02
-7.955905792357729003e-03,5.940642589968003588e-03,1.514620260855711886e-02
-9.610889304374242020e-03,-6.318548271625894219e-02,-1.362689623689686789e-02
-9.117410082229715496e-03,-5.327691935342136059e-03,-4.531973196458088417e-03
-2.642730313281296817e-02,-7.063875314368139868e-03,-5.763083594007343408e-02
6.287608107274447744e-02,-2.740475603342456060e-02,1.199593254033022756e-02
7.648284688808409601e-03,4.084194171551643960e-04,-2.013892263853394801e-02
-8.039338111628915873e-02,-9.826547303217487289e-03,7.658330987437469116e-03
2.946042307948584446e-02,-2.967704666645346046e-02,2.682525398973946169e-03
2.546508645957429318e-02,2.510687512984307451e-02,3.146648782595298788e-02
2.490575511189488389e-03,-3.656039119952432526e-02,2.453200687222139437e-02
1.649191201694574088e-02,-7.142138409914228214e-02,-9.682909998532363005e-02
-9.126600993315654720e-02,-9.000259928970353804e-03,9.654739524729703121e-03
1.333675561685682652e-02,-1.444701514288164804e-02,-7.418022815165425943e-02
4.362034017003569436e-03,-1.573487459650594646e-03,-2.079194155251011186e-02
-6.239236099046997081e-02,5.446902948546754331e-02,1.683403555399529518e-03
-3.660195698373307910e-02,7.181078978351522479e-02,8.277693651514583806e-02
2.786596038488580590e-02,-3.870196344137544209e-02,2.433655189122795048e-02
-9.306538357058972066e-04,4.506052928508097639e-03,2.079257976800311797e-02
-4.497667125463173515e-02,-6.227590000708849161e-02,-4.239403041489565871e-02
-4.402078251912762419e-02,-1.502783135443994805e-02,-3.965738971338373525e-02
2.088157959860643606e-02,4.845537078283774363e-02,3.321899393914005960e-02
-3.559491576018646020e-02,3.502340870736725398e-02,2.973786485780382724e-02
3.684512454406859566e-02,1.798040179941578359e-02,1.418376243834013929e-02
-4.661660793086572219e-02,-3.933163323530256689e-02,-4.428672959214219329e-02
6.746815520663393406e-02,-6.307839369901319104e-02,-5.189821982627903368e-02
-1.087514415664004169e-01,-3.910543002980769456e-02,5.981252303553193268e-03
8.999557337350089226e-02,8.227127602679183693e-02,3.247563349858389407e-03
5.140165697206261486e-02,2.899647957871323220e-02,-4.934219196755832565e-02
-2.750513583534598683e-02,6.157480365124622101e-02,5.558073678573553777e-02
8.405895054592772697e-02,2.841938531440575677e-02,9.730299704205008088e-03
4.990435489609724995e-02,-4.450958389851607938e-02,2.048717095745854894e-02
3.558172353097072138e-02,2.925713684320965791e-02,4.819803001495535921e-02
-4.276260430995430101e-02,-6.228384134905928793e-02,-8.230537480203317657e-02
-1.298676569077398535e-01,-3.693344674764015290e-02,-1.290387890224457476e-02
-1.605445143999810823e-02,-1.714167408327520875e-02,-3.577827606238073721e-02
-7.474302614180504400e-02,-3.307584353085062101e-02,-5.290965443302822480e-02
4.813981693287786717e-03,6.965005266669151152e-02,-3.472270572294167742e-03
-3.315100977218223000e-02,-3.032735005034601153e-02,-1.791539734461583197e-02
5.442940391382611320e-02,4.647582927623741637e-03,2.025951710737075237e-02
-7.169582426534996944e-02,-2.956435854736342086e-02,-1.007969681521690870e-02
-4.175728302198909205e-03,3.475604230543702378e-02,-1.446625991715320449e-02
7.996173381620788612e-02,1.741132548399524846e-02,-7.214946974084854303e-02
3.120760028630763933e-02,-7.047754867302130979e-03,-1.346115618014042115e-01
4.248949457843376187e-02,-3.584975630899136373e-02,1.823363478616005229e-02
-6.048855015420696174e-02,-8.353044575127518967e-02,-4.963071141376930451e-02
-1.837770544471582432e-02,1.045444934323791347e-01,1.844670563507300881e-02
-1.982059770611288227e-02,4.132556504779900941e-02,4.063259514521165572e-02
-1.195204046887869409e-01,3.068629751984828721e-02,2.744263347159699509e-02
-3.275394239218074738e-02,-3.789775988390354372e-02,-5.225884746256969499e-02
-7.332768671601104515e-02,-2.498731398427734077e-02,-1.207944011303456943e-03
3.089857066573885314e-02,-1.265107915286012644e-02,-2.817169561899712446e-02
5.424734246751436451e-02,4.354858553334882421e-02,4.020390343213483403e-02
-1.066741386253156412e-02,-6.499440357210360675e-02,5.972130379694902402e-02
4.239788730110649606e-02,8.532707116626522814e-02,1.456455177391244825e-02
4.082756203219777003e-02,-6.687314774196835565e-02,1.005781879472213980e-01
-6.853041765832042220e-02,1.472494879413670764e-02,2.618386490096792293e-02
2.359810496585337120e-02,3.003419723666782282e-02,-8.280667207757319570e-02
2.674097050874385192e-02,4.922487992531709988e-02,4.062628188443512256e-02
1.241139259418623936e-01,-2.932370591150701422e-02,2.221964556761720291e-02
1.900962374432368235e-02,-1.457160493802180275e-02,-3.571023175970179653e-02
3.003642866843507508e-03,-8.049956281559816906e-02,5.002468255267260300e-02
1.231750115445063437e-01,5.893568916186948253e-02,-3.446914686406257755e-02
2.637251776045029198e-03,7.141449893598403320e-02,1.099709356617539074e-02
1.131302178122701486e-02,-7.222151391044154961e-03,3.496141241943177824e-02
1.277620518489224963e-02,-5.878204395142649225e-03,5.371934952503926858e-02
-6.965447525710349863e-02,3.140293151287487650e-02,2.933856065699081556e-02
2.309497874433803777e-02,-2.478864947224472537e-02,3.242887691330586381e-02
-5.686894939670562865e-02,1.639552291655076849e-02,-5.983761048967703791e-03
-2.813958477480708528e-02,-2.746406572462546311e-02,2.495931562080772048e-02
-1.489798370677402131e-02,-5.565619950956993134e-02,-8.424071957720613568e-02
-3.143509592372665390e-02,4.148347883142774334e-02,7.732536946067515571e-02
3.170979191887352781e-03,-6.052822167549075372e-02,-2.802956530982726388e-02
5.597765234380584071e-02,-6.253428997185539462e-02,-4.184911365907621056e-02
-4.770886401126103044e-02,-2.285637492149806410e-02,2.723075744354937905e-02
2.037280158309610900e-02,-3.817176857351758240e-02,-3.191478996236581100e-02
1.136344223730732933e-01,-2.433261975897647346e-03,1.761694408770364409e-03
-2.349553870344782761e-02,-4.571087902770760297e-02,-4.366401441115189130e-02
9.650651812437450322e-03,-6.170229583203969831e-02,1.518216321273007686e-02
-1.460498501540268869e-02,-2.559616696823412488e-02,3.413378894732180258e-02
6.830414416205096706e-02,-2.407626551711234200e-02,7.585741570650580967e-02
4.422045947664780124e-02,3.332432051285057553e-03,-4.594916873892815334e-02
-6.240975336512652460e-02,1.151248620774570665e-02,7.232180516058567266e-02
8.668676732627710393e-03,-3.190483490971453284e-02,9.951106206015988484e-03
1.160223371417402199e-02,-6.385738507747221182e-02,7.099139033478400751e-02
-2.085651749664257232e-02,-3.927942987605629460e-02,3.361796177907003941e-02
-2.044812704180700574e-02,1.000913290136725168e-03,-9.508300166648681745e-03
-5.389153958982819542e-02,-5.998346118530805716e-03,1.687668996037001989e-02
1.752864214580003230e-02,-1.290403541923951410e-02,-4.462439428307293614e-03
3.690425619182306771e-02,2.661713326441193794e-02,-2.445674173137725102e-02
-2.274741094037781991e-02,-1.004623875114461252e-02,3.632210800367122183e-02
-1.774361818217575631e-02,5.110287644635678334e-02,-1.964208976927144922e-03
-1.730717839428099272e-02,-1.879335409222211012e-02,7.260794335370497621e-02
5.998834207871691498e-02,1.560660836795163021e-02,1.128367238644494702e-02
-1.802659672043065153e-02,-2.940547702055778482e-03,6.192756690323102109e-02
-7.807013559358610966e-02,6.110260076756634379e-02,-4.108725869704972782e-04
9.301904778054119124e-03,-2.494437646306939347e-03,1.673973445081958569e-02
-1.075187537852853939e-02,2.921500259809847039e-02,-8.049730057752684312e-03
1.032736438763664708e-02,-5.638558612163427700e-03,6.391730874770047179e-03
3.073229377198762394e-02,-6.212193884370011826e-02,9.383748808743261338e-02
4.187125508339253205e-02,7.847245888216375365e-02,4.449907725424124411e-02
-2.838667300177877620e-02,4.088094651246114430e-02,3.348194375698262948e-02
1.205068512785602980e-02,5.567744621582412790e-02,-9.369880496955819080e-03
3.451920176260427943e-03,-1.243750910192462436e-02,6.217099978029951013e-02
1.852358531042301235e-02,1.650662542472296213e-02,2.231996584614940465e-02
3.161317621550530782e-02,-6.717808656540236179e-02,-5.672191361034113061e-02
-5.911703783774167886e-02,1.201034447917508075e-02,5.149785142672157548e-03
-5.554954839071701150e-02,-3.941249407484936212e-02,-2.593632161407555953e-02
1.033401230783419916e-01,9.244660055206294080e-02,-3.042473253337730967e-03
-5.597058789417666547e-02,1.919242731982135491e-02,1.460405230185697623e-02
5.519908640084313783e-02,1.395098663701241533e-02,-2.995269133997560326e-02
-4.543977597453149192e-02,-1.112389531508573004e-02,4.299419999169252181e-03
-2.563357627517697662e-02,-8.212757328479018681e-02,3.292657027857079366e-02
6.381167607260776475e-03,-8.830970381966275762e-02,-5.447478828478718310e-02
2.198980003037067851e-02,1.050489696182231765e-02,1.270109058909147694e-03
-6.132518487874460446e-03,-4.174528008077145989e-03,-7.184585321285502646e-02
-1.848333464032851994e-02,-2.469909155227162367e-02,7.027343310203343352e-02
-1.744275822604808915e-02,5.140354274229209930e-02,-1.329846447328061031e-02
-9.231810526892972324e-02,6.463990608763461876e-02,9.901839758858632656e-02
-1.572668180910865091e-02,-7.282577487315408660e-03,-2.333027013648875103e-02
-1.540935992570199170e-02,-1.018958644400655769e-02,1.824600699147017890e-02
-3.423508414739431793e-02,5.603512234684242949e-02,-1.043550088117596239e-02
-3.498834460457078688e-02,-2.518320495134751882e-02,-7.564736687862917523e-03
3.651366833741316598e-02,2.259980294317100874e-02,7.339131359105676225e-03
1.581455161165459464e-02,-6.710461981087914932e-03,-8.769352246711085985e-02
6.060316176300528657e-02,-4.487936858473758756e-02,-2.773282976356285581e-02
1.759797185718291884e-02,-3.316940621198034844e-02,-2.157890177136897319e-02
7.956068719843265025e-02,-4.567105312891361207e-02,6.879830731041770842e-02
1.531365760887933719e-02,-5.342674271782805323e-02,-4.088272357406687318e-02
7.211383760516862189e-03,-2.944590921115032567e-02,8.007387876065771848e-02
3.042590542674301901e-02,3.808286757088165386e-02,4.006802739034176497e-02
-5.020682848624575395e-02,2.178432248090998377e-02,-1.429820747505678412e-02
-7.008345374224417106e-03,2.640577546786781332e-02,2.498096639150450271e-02
1.025139703249270187e-02,-2.564135865857470123e-02,-8.102346219033897123e-02
-4.363546626451754451e-02,2.109426813050562389e-03,-2.692665037619510274e-02
-9.177518744063306588e-03,-1.145701631960402769e-02,6.997187688091392743e-02
4.030819474280185333e-02,-7.305585429465079328e-02,2.030731325637780485e-02
-6.384008368840947412e-02,1.678592458377027585e-02,-8.472264960561881608e-02
3.912976190047666447e-02,-3.098793344975029132e-02,3.310070160329044858e-02
5.686600604657464364e-02,1.473659965604780242e-02,-2.554006100281812353e-02
-3.873325896730451384e-02,-1.161732831695544976e-01,1.416337331939539028e-02
-4.110320771486096481e-02,4.830513125664261109e-02,-1.095428643250112230e-02
-8.611190532747516058e-02,-5.345749536587318662e-02,3.233994684133446873e-02
-5.824886475728514867e-02,-9.077374331968063315e-02,3.903854351007310375e-02
-2.949244320175699059e-03,3.396454437449212410e-02,-1.276298126626642868e-02
-1.507512874445217019e-02,3.470742453040139008e-02,-3.390781660194434888e-02
3.238613272692963257e-03,3.441585737474826129e-02,-5.682855357923388001e-02
4.905458200445389494e-02,-7.597460839632376754e-04,3.766948879450053578e-03
1.821203548789849386e-02,-1.952490823700466990e-02,-6.434684208497545854e-02
-3.054106559854056699e-02,2.207621920377778393e-02,1.190983563940856554e-01
-3.659500342564424996e-02,-2.229053811021452017e-02,1.258017697045823446e-01
1.253814175089855432e-02,5.856375117630863159e-02,-1.224959735538309891e-02
4.783052134349690537e-02,2.648919390120323819e-02,3.947383345404090194e-02
3.858867013151862091e-02,-1.351318820340459631e-03,-1.914727885560797704e-02
-5.208460175198206810e-02,3.600205683152008646e-02,4.670542405808043862e-02
9.583980370289466380e-03,-2.280579041013176388e-03,3.934181900618513583e-02
-1.181223006204461592e-02,1.351757321386736974e-02,4.661493773573571579e-03
-6.214005363958603756e-02,5.038258890316144739e-02,7.483156836635233670e-03
1.829900135625237706e-02,6.413692110964167893e-03,-4.155253540630669817e-02
-4.540958996081807808e-02,-2.975877989734816015e-02,-3.093498725647765915e-02
-1.636554660803155817e-03,2.308167464384073414e-02,-9.670829182583790679e-03
5.426586377686483387e-02,7.207088113530476202e-03,-1.555983284432359802e-02
-5.459464324021397197e-03,-6.549667832950903379e-02,-2.650513672831189896e-02
-1.238583602132446553e-02,-3.653820301450881602e-02,-7.978611087867951146e-02
5.994952273545726268e-02,-1.093546368762760429e-01,-2.248765324989489278e-02
-1.650937797645319824e-02,-4.625881592838113066e-02,-1.527138622274178126e-02
2.509661898597450105e-02,-1.819705960533490874e-02,-6.658932298676005501e-02
1.259316360059525939e-03,1.109770769864946993e-01,-2.414928913705992677e-02
4.727937416864125969e-02,3.260395187313110121e-02,2.423997858532151405e-03
-5.906221113341399848e-02,-1.097833696896641786e-01,-6.840109877356552459e-02
-3.743324417681691274e-02,-1.054716599522924694e-02,4.588962446558744745e-02
-5.074300451450399103e-03,-9.987287027662453132e-02,1.019800305028178630e-02
3.471940322272431406e-02,-1.983282932356849812e-02,-4.172179372842427236e-02
-4.214737969776987531e-02,-4.271507208515751448e-03,1.112272935501456075e-02
-1.624493432987865124e-02,8.151496703342734143e-03,2.471670311331412850e-02
2.013605409552979980e-02,-4.556421549451285247e-02,2.462063198994327105e-03
1.418653588777962337e-03,-2.930378082412766257e-03,-3.053590688683426729e-02
-1.025320456078623044e-01,4.476904913169038602e-02,4.355340771768356767e-02
5.544042034634323948e-03,3.851913760552089228e-02,-1.515607387745276403e-02
-3.462589166037967348e-02,-8.399694426346393517e-02,6.995903260819399429e-03
2.649606739094582247e-02,-1.870524075141959119e-02,5.076406618130448190e-03
-4.565768649008768165e-03,-5.665338051561006477e-02,1.712985433663223589e-02
2.082089246534939153e-02,-2.152669508351427036e-02,1.182271411616829526e-02
-1.736662570911119002e-02,3.942115925210888661e-02,2.144825461528501558e-03
-8.137249889392764168e-02,7.710497591152457031e-02,-5.612175166273487836e-02
4.384843038909488899e-02,7.543455591478310900e-03,4.112935675576821076e-02
1.735446327829964774e-02,-1.047704289945841777e-01,-5.998963559426051008e-03
-2.458118480091393138e-02,2.493712747352950826e-04,2.330085716991726202e-02
-3.208646108581450496e-02,-2.034486162210286803e-02,-7.727688856573022499e-03
-1.837766089765942995e-02,-2.743676931302855421e-02,-5.810264578465105384e-02
1.052755489587547770e-02,-3.391325152094270060e-03,1.288796713999186203e-02
2.231174278385819956e-02,-1.703737366284693855e-02,-1.065909627118427280e-02
-6.410373801619850820e-02,1.056403378600369869e-01,1.062341164561522375e-02
2.112184641991658035e-02,3.977979025232925708e-02,2.232438269416010986e-03
7.136976875638516293e-02,-3.722722259063321066e-03,-3.400434920356758262e-02
-8.878907227621911369e-02,1.654346650060659410e-02,9.945491131215273770e-03
-5.446432603008755091e-02,4.243671139479560789e-02,-4.078627617604611150e-02
3.803452085565900420e-02,8.064638531414054096e-03,-1.391332383890820854e-02
1.066902636271872297e-02,-3.326844003445700304e-02,6.505481324062349635e-02
4.929872783304663914e-02,-8.492055072165279050e-02,5.926788723896282002e-02
-4.361639019137128481e-02,-2.453703336629466797e-02,-6.587846714253542228e-03
-2.453178591574604189e-02,7.984068187250710491e-02,4.948919343227671519e-02
1.063084998294560983e-02,-2.474097050975442025e-02,3.624750146197843609e-02
1.690520507567803976e-02,-8.666011916964394546e-03,3.134409262246545813e-02
-1.766188746036293986e-02,-1.441397463299348355e-02,-4.505179030735664142e-02
-9.015365203581687543e-04,-9.296186492754522634e-03,-3.045197727622195056e-03
6.834694164234799904e-03,-7.872894294466502296e-02,-1.995645128573213245e-02
-2.428903415917170548e-03,-3.978266422629901655e-02,2.297610270777341798e-02
2.204448717902069560e-02,4.488532625198941861e-02,-1.154935798157587755e-02
-3.129710694099729906e-02,-6.809711457276364233e-02,4.675176612796713010e-02
-6.757502205706274190e-02,-4.567147130813257322e-02,-4.887384036987200281e-02
-5.149203240456168285e-02,1.561234925232370813e-02,1.065801817648097255e-01
2.211289537776044145e-02,2.197705469606587789e-02,-1.081448691038341264e-02
7.677040977560570245e-03,6.647609848216617934e-02,-4.596067647300367508e-03
2.746410035215614623e-02,-4.039420502212277136e-02,-2.705882540822650392e-04
6.323149571705176386e-03,2.427533099823746959e-02,-4.755763340737959033e-02
1.836319453306088298e-03,-6.792821653213572397e-02,4.932572643392164197e-02
3.828595726984970055e-02,2.640630778581206511e-02,3.417614772436121384e-02
-3.031714501737915041e-02,-1.542985933474331529e-02,9.537011328815796218e-02
2.619992560204584611e-02,1.823686938710024352e-02,-3.521303028080838976e-02
-9.182452732509778504e-02,5.242658485148157799e-02,4.770097634853418672e-02
-3.165232676023201075e-02,-3.967286654590409384e-02,-4.100491816749753798e-02
7.526627840721886566e-04,4.674318797001816850e-02,-1.704298636647524207e-02
-1.450333112427920103e-02,-2.747909713164026213e-02,-3.224095353533305147e-02
5.578035509697503586e-02,-4.024113469026211615e-02,-4.010883199073546346e-02
-2.414903312747259875e-02,-8.463358474133471365e-02,-2.641184507961484920e-03
-2.288345177176230941e-02,-1.236825985111413527e-02,-9.393790650362172923e-03
5.289554234337173061e-02,5.602212768268716864e-02,-1.909637469507113883e-02
6.027701434806918661e-03,-2.452572097675083732e-02,-3.713890238142392858e-02
-1.179704837148452812e-01,5.018094460643265226e-02,-4.933417507398213386e-02
-6.621469441091402605e-03,-5.858156568624245386e-02,-3.630032148368182027e-02
8.387213011768630475e-03,5.978173690200835194e-02,6.107171947984688792e-03
6.579650272930726018e-03,3.081709310046223255e-02,5.431278867368730112e-02
9.932818514439781948e-03,-3.694340142803075044e-02,3.242557847624267381e-02
-2.841019536237140639e-02,1.568203638418516621e-02,-6.545661474401264293e-03
-5.359259359139034729e-02,-5.217141098430652657e-02,2.588621410705953599e-02
5.415878484445667967e-02,-4.594404061830185786e-03,-3.880138228604513434e-02
-2.000571959260538657e-02,-2.348386871901628897e-02,-4.924014570030348092e-02
1.340198125932429499e-02,4.857485279790759586e-02,-7.605715045082548677e-03
-1.669799207682130804e-02,-5.844127026029515698e-02,-3.770171448376940376e-02
5.891399066735928704e-03,4.723013578696961395e-02,-3.885592721425945584e-02
-2.881314988256771827e-03,-1.118245607667187579e-02,6.417211845608636334e-02
1.540318653427073525e-01,-6.598220529149652347e-02,1.004008802943989059e-02
3.291112716952557943e-02,-1.138517780536314056e-01,7.320465556992870881e-02
1.329823428277174431e-02,-4.065371471901399469e-02,-3.439551591594026958e-02
-7.499352139072390511e-02,1.058679456574724946e-02,-1.247557605045637036e-02
-3.454261131000789520e-02,6.559611984235425020e-02,-8.748950735407737267e-02
8.191510001370565491e-04,9.007578775416682712e-03,-1.414544737424557833e-03
-5.069336327055387614e-02,-8.492224119850254327e-02,2.988826591664859450e-02
-2.648848438872750122e-02,-3.125859338771273810e-02,-2.223500793778259571e-02
-4.512515696616365563e-02,8.476506483771513445e-02,1.302165419971660319e-02
4.352578232127236879e-02,1.259449224318965471e-02,6.177935601356354320e-03
4.163952918086076538e-02,4.428790987756300868e-02,2.572663221155221946e-02
-7.147739322457800915e-02,-7.522701675567240731e-02,-3.588731729594120401e-02
2.077404374791732428e-02,2.525092020909500742e-03,6.095063593045057376e-02
1.507535013282383478e-02,-3.341287455370178100e-02,7.674400523957794484e-02
4.984281433666241067e-03,4.080653706262115689e-03,8.491773140898867256e-02
1.580585562707378542e-03,8.811834905595512801e-02,-8.524275619098622969e-02
2.907506736657647015e-02,-1.356418017927401264e-02,-9.113163742941736423e-03
7.874661984686420757e-03,-3.350155987897327631e-02,3.061468061530170717e-02
-2.009128448769481601e-02,8.999739994712530056e-02,1.867451672417686989e-02
8.146564513174535394e-02,1.019809926409805979e-02,-5.169899894677484377e-03
5.991423506475443417e-02,-5.166856278552523114e-03,4.224926839806478207e-03
-4.950281507346800808e-03,1.772800998140978621e-02,-4.686111982946621068e-02
1.948566093641316069e-02,-5.186345322989165119e-02,-1.049579742842047733e-02
3.689672847635590280e-02,1.933446363213142324e-02,-1.087067656732952463e-03
4.102954235410760653e-02,2.435131360378468141e-02,-6.201835036078320179e-03
-6.222169790857295241e-02,2.807116888349516295e-02,-8.870784868961077707e-02
-1.670912691679431877e-02,5.766487013035337394e-03,1.044796227079326963e-02
2.839618273477059751e-02,-1.532563159507008797e-02,1.825957665287990944e-03
7.410964816195445004e-02,-1.724084681741648237e-02,7.530918447432501800e-03
4.193858978254830228e-02,1.445945803735061708e-02,-3.201065965476480348e-03
-2.351535711651786195e-02,-1.899399530944919159e-02,1.537304433289091686e-02
-1.351477851311319762e-02,-3.607571137712472890e-03,-4.805210962475262026e-02
4.189804001620594381e-02,2.335715579169006170e-02,2.717624296055663746e-02
-7.334907764825769616e-02,-1.583967144278788583e-02,1.118172469828223464e-02
-3.648487475637184063e-02,-2.231550269142942508e-02,-5.390075337240132769e-02
5.953192679218321506e-04,-4.961895679536808962e-02,1.993783813594854348e-02
8.925227271237942683e-02,1.994277887756321782e-02,-6.945514624293519512e-02
-2.709120154410605066e-02,-2.125963932515519475e-02,-1.855817295346888149e-02
-9.511804079496741227e-03,-4.842501992969561880e-02,-3.183322114245760309e-02
-2.744135461124207545e-02,-2.971252417420359657e-02,-7.073700785727574103e-02
-4.439304449627406307e-03,1.206517348913726390e-02,1.962883266334998142e-02
-2.673503761037208590e-02,-1.102993528304127384e-02,6.729351588735338341e-02
2.548032943628431891e-03,3.706246911024054652e-02,-1.802267004267668268e-02
-3.037294422162087684e-02,2.045596339118326088e-03,-6.360815567636838273e-03
5.685415228338000504e-02,-1.746931258725263614e-02,-7.669504617602129759e-02
-2.736892863779231619e-02,-6.382395743649665887e-02,3.227119993786418950e-02
-4.289476704953951169e-02,-1.461739712923658570e-02,6.500568466211507912e-02
6.623947001169160076e-02,1.745215498979701615e-02,2.891564418089861890e-03
4.277248888971183632e-02,3.381081226380992788e-02,6.858034168435223066e-02
-3.110933285759475558e-02,4.232826515545802526e-02,6.144765451751546537e-02
2.054255331590970970e-02,-1.008702242674322340e-02,-1.859666751655591685e-02
-3.603946148518334669e-02,4.323242851727571862e-02,2.095111361151520690e-02
5.153643817154627237e-03,3.529107654578701216e-03,-5.074508091993595871e-02
-6.236262938525137522e-02,2.016957227671821104e-02,5.883981128180540421e-02
5.438067810691742110e-02,-5.487602793472805968e-02,2.289396430650074074e-02
2.163169400659006782e-03,2.401888459155947231e-02,1.149259452213282490e-02
4.655912677719582782e-02,-8.020732138592930049e-02,-3.016734346661382668e-02
-1.324915466677938948e-02,3.370706998437892482e-02,-2.431145774130026149e-03
-4.797626713017982825e-02,-1.632866358426118825e-02,1.073745989496651190e-02
-5.579454676446709421e-02,3.659490229896503188e-02,-8.225127284533154462e-03
2.071321041289748283e-02,-2.795263639148653362e-02,4.076564153184651998e-03
-3.160823159630770512e-02,1.181615407595388613e-02,-2.654594761510500889e-02
-3.486818283416581732e-02,1.523993297517793090e-02,-2.133337347744115528e-02
5.960383443207515480e-03,-6.989312976535803912e-02,3.860441653426906899e-02
-6.406198303273980682e-03,1.563995412858323192e-02,7.844409150456362750e-03
2.489753929291320042e-02,-2.051640703058895884e-02,-7.498903644040770533e-02
-4.205896431323150053e-02,-8.999028030383912635e-02,4.284662878745235104e-02
3.676388662168782184e-02,5.444346113555115219e-02,5.363349830567981473e-03
-8.522446768839767040e-02,-3.793433875040465308e-02,-5.121940770419140983e-03
5.889766345697641792e-02,1.105929015649771349e-02,-2.234443874088622162e-02
-2.765263191038199592e-02,3.947878495152567363e-02,7.537725806138041718e-02
1.926737796764321168e-03,4.270929538998775171e-02,-2.707055918560467844e-02
-4.569693603660582998e-02,-1.281318468288016738e-02,2.145596682994663044e-03
-7.871288583714808849e-04,-3.952120621490037150e-02,5.285896868121969100e-02
7.301251626901826552e-02,2.993077049617944366e-02,2.212206948936006751e-02
-4.559959820458518026e-02,3.106259804679229602e-02,2.690908388397705506e-02
1.000488351998213635e-02,-7.223131653368340677e-02,-3.810141444744045980e-02
3.175420811601829818e-02,2.612630745481622427e-02,3.589265029448684280e-02
5.945880417812319380e-02,3.733489832094489397e-02,2.099918372843691781e-03
-5.414666156579071160e-02,2.522116724733987347e-02,-1.661903068302441125e-02
-2.287922460063775013e-04,1.564609139677291660e-04,2.644640428469764021e-02
3.296811932670135059e-02,6.028069080967308861e-03,-7.073216450344556143e-03
3.666797755012472793e-02,1.788772821615336808e-02,-1.660003211424374708e-02
2.727385210938693128e-02,4.825689435837533098e-02,-3.097179044778350029e-02
4.159609815600633781e-02,-4.915616652324986818e-02,-6.221727019708590128e-02
-2.337073011610017390e-02,-5.360766466551226267e-02,1.211337677442405891e-01
-2.933800619696263698e-02,1.196766207929287652e-02,-9.608642533419533074e-03
-6.508067494421536023e-03,-1.373906482887897983e-02,4.557182388975012516e-02
-2.694477628378092599e-02,9.163351862291529981e-03,4.614251070799799126e-02
8.525720227213003100e-02,1.900637971377294039e-02,-2.312771462937621494e-02
5.793333925567631382e-02,-3.739177406703716317e-02,8.542317086558701145e-02
-3.654691414356484036e-02,-6.115010802631831027e-02,1.983762604734443449e-02
-3.862042045514416794e-02,-3.814181492618252955e-02,-3.286005734647626936e-02
4.043243442756800504e-02,8.375436487161053156e-02,-1.545552215356149443e-02
-4.021974509744512434e-03,-1.065740529514516699e-02,1.867975515090858699e-02
-2.236690594197818238e-02,7.052400920538100942e-03,3.662157196956605104e-02
-5.417520369429756205e-02,-1.186466036982635960e-02,-2.153807159552652978e-02
8.409097738686785450e-02,8.848430898185508098e-02,-2.929626007529540291e-02
1.286948241344623538e-02,-6.979909011796661049e-05,-4.312209213566270405e-02
-2.248032118367705723e-02,7.667698994172862659e-03,-1.140614892719894399e-02
-4.571675861898499144e-02,3.479097782420746687e-02,-1.786529754534908407e-02
-1.706927221065910466e-02,1.893619074604344435e-02,-6.486294450687464866e-03
8.722295606181561245e-03,2.904837122844330932e-02,-3.005333272797046026e-02
-7.564813137313383673e-02,5.377542830581373556e-02,-1.672887295220868570e-02
-4.177859617952568716e-02,4.397520217537137857e-03,-2.725794021362478042e-06
-5.907949338380639320e-02,1.090383850683599234e-02,8.283252792767042960e-02
-4.534031344804292929e-02,4.913763543231286501e-02,7.241904990402552034e-02
-3.496644509462487616e-02,2.550871268088530930e-02,-2.509736258536148651e-02
6.287750658081387931e-03,2.174290666998551780e-02,-3.318029550135186134e-02
-2.651732615779324627e-03,-3.416722394823988596e-02,-1.244688575311525070e-03
-1.158655086888023267e-02,-4.780457633180201088e-02,-6.123250410476401007e-02
4.386331955379005332e-03,-2.877042477846562460e-02,4.014002948070281851e-02
-3.897212585059874057e-02,2.264365838578314555e-02,2.375908068388258090e-03
6.122938387175973218e-03,1.061060453580450714e-03,3.764460823537028877e-02
2.519009131384300840e-02,-1.163244498913364958e-03,-2.102623003627729012e-02
8.510722649528185135e-02,3.970564578011647611e-02,1.171341946956784910e-02
3.379756450010543145e-02,2.112802618234455379e-02,-3.073350483052183298e-05
-4.692901291611909637e-02,-2.520406676371845719e-02,-2.501235229855276743e-02
-8.681518540972761599e-02,-2.296609843514464677e-02,3.487783565483917186e-02
-2.810022072707899984e-02,-1.816395339249528285e-02,-2.153632178413981448e-03
1.750801016010277919e-02,5.437503313353040518e-02,-7.364521452473915542e-02
-1.390723369320366436e-02,1.085317939160006760e-02,9.317171934087761787e-02
9.462348706850523192e-03,-3.691263911611434440e-02,-1.793268324997172522e-02
1.564822563754730183e-03,-4.527408451324537592e-02,-6.425507945349691330e-02
-2.250461185850278698e-02,6.016712051007688800e-02,-9.346732866543080304e-03
-6.667279733358137672e-02,-1.763271116627407613e-04,7.585683529118278888e-03
3.447077941525188149e-02,3.006319254242122499e-02,2.968449937673026118e-02
2.659785448443630421e-02,-1.431241291742566153e-02,6.341623804241611206e-02
-2.120136271886903512e-02,2.898680520285084813e-02,2.544193693643389056e-02
-1.437645345701525357e-01,7.427433829316116426e-03,-2.725676375698025001e-03
4.029986744559556355e-02,4.609370076999726173e-02,2.906702503004574348e-02
-6.069899023232425139e-02,5.706049213971357142e-02,-1.559895045356846045e-03
3.173370611083424324e-03,3.678686617720851055e-03,5.372679495872381000e-02
5.273458903959336169e-02,-7.625790124190298148e-03,-1.123797538289041803e-02
2.546180101009169749e-02,1.553734175299500107e-02,-5.879853641069375525e-02
-2.954472530045647652e-02,6.889048774407217912e-02,-1.091650811047815278e-03
5.286673263150921259e-02,-3.335774557868509405e-02,-6.823298189615865927e-02
9.952143654300121128e-03,-1.760673067683211218e-02,3.429289744742698015e-02
5.517755989947682044e-02,5.491160144704196333e-02,3.414284816720506571e-02
-6.419605972373645941e-02,1.428107467315528796e-02,-2.344293445264076722e-02
-2.975635908493849680e-02,1.800537180886132085e-02,5.408818648831326126e-02
2.825033142490917734e-03,8.170331586260916323e-02,-2.571933295554270499e-02
-1.487276432932821586e-03,-1.893928111794292157e-02,1.635787207555093256e-02
1.040848724709465302e-02,1.334806874745202675e-02,2.676952896148196079e-02
-4.565880116059035931e-02,4.809189853956567784e-02,8.329887073210597015e-02
-1.577900845295458418e-02,-1.054437210618432673e-02,4.497349347421731453e-02
1.852963672140707507e-02,3.930053645167094767e-02,-1.400917389440321618e-02
-7.384912284383572667e-02,-3.968343698988341210e-03,1.108553723676073376e-02
4.255797182395103934e-02,-4.717629436156790812e-02,-5.308219642161642049e-02
-6.936868816323588094e-02,-4.264898085463962769e-03,4.271422779495761407e-02
6.100645136867301199e-02,3.036382696048826532e-02,5.582369342651969518e-02
3.029593195447994117e-02,-5.093887786400111417e-02,-1.441125569302684336e-03
1.887996640670697515e-02,-4.720863121729206718e-02,4.354839376977554660e-02
6.725121210501247559e-02,-6.591335871775895645e-03,-2.953691049321169673e-02
5.251714630856014338e-03,3.172431001641015658e-02,3.380645004445177043e-02
2.070252880676154428e-02,-4.235824739783776438e-02,6.558280277858537233e-02
-4.611037133951426809e-02,9.178406293349834072e-03,-5.021617240961118167e-02
-7.876677245775096786e-03,-3.580738489483068637e-02,-5.184355168204801689e-02
3.272870061135196157e-02,3.808356880910425055e-03,2.391272519514860660e-03
-6.213912856420975191e-03,9.862917322828233455e-03,4.464759886759606111e-02
3.568324761048037586e-02,-1.345011765889540627e-02,-1.444955283362622453e-02
-5.079681730582460975e-02,5.299798225397710227e-02,-6.954320062531198048e-03
9.355287279098851994e-02,1.485687169915973251e-02,5.518938294794666077e-02
-3.242638455002324477e-02,2.144862147732647453e-02,-4.927686772628364631e-02
1.200709758403027856e-02,-9.126326908289968121e-03,-6.966572182570530958e-02
-1.536235146785971430e-02,-2.147858940228069072e-02,-1.073246122436957162e-01
-4.225585232258852186e-02,1.444702102221288691e-02,-1.692571506655484587e-02
2.551389973012909915e-02,-3.136580984981377634e-02,5.772912841295856079e-02
6.412610880495599186e-02,-1.788985272376224234e-02,4.188311626829979706e-02
1.573371444604410724e-02,1.076242567705513672e-02,6.686738656171730896e-03
9.493893402300926376e-02,-7.013616996885979442e-03,-5.524545790462028622e-02
2.589130250977896702e-03,-2.204858387305231801e-02,1.367381344079487276e-02
3.789230708385767782e-02,-1.180755876330496883e-02,2.203466943126724392e-02
-7.470107280642744596e-02,-5.838182581616396111e-02,-2.515319252110129883e-02
6.270510036674689647e-02,-1.087971002530257157e-02,-7.751412712745339370e-03
3.354281757668183678e-02,1.207882930900243124e-01,-2.422177350884954089e-02
7.215905326299898448e-02,1.341631502573024460e-03,-7.129578218957875746e-02
-3.972327237527163712e-02,-3.106458142274745680e-03,2.681724829679334871e-02
-6.241083904780199421e-02,3.104615970662089140e-03,5.821721906303317651e-02
-4.866762213002505562e-03,-3.650957176837638790e-02,-7.104155134974414476e-02
-2.193760440312643098e-02,-6.367370476025568937e-02,-1.867298484041840859e-02
-3.010384047044871447e-02,-4.253475827613996396e-02,6.884232662528709523e-02
1.223898061066668042e-01,-1.558020507421440000e-02,2.376183789019679915e-03
2.227338106881222510e-02,6.715256788116246919e-03,1.062907814346984031e-01
2.165849349293480844e-02,1.105570523247274006e-01,-1.526966346271555613e-02
-5.227939403361310522e-02,-3.825323568138310620e-02,-1.236101182136559000e-02
-4.308908083038738286e-04,-7.148590167279587557e-03,2.749723781908531076e-02
-3.032584344480127037e-02,-4.721615594712289671e-02,6.212021089257862031e-04
1.384118555037764688e-02,-5.399704064381473378e-02,-2.074271723043319589e-03
-2.654335983012595657e-03,1.229251187916733865e-02,3.189633987447263591e-02
-1.673608498586135265e-02,3.700074341139346357e-02,3.318701922876236138e-02
1.337387101953455178e-02,5.505805026929789375e-02,-1.013292493473076476e-03
4.698801129735512283e-02,-7.388958305723650200e-02,3.692521083886114719e-02
4.070695760165538024e-02,4.341010596298935237e-02,4.114746033710445228e-02
7.522638787887662992e-02,5.804093286769284460e-02,4.933403941435875184e-02
1.676250638103052391e-03,-2.880912747814459718e-02,-1.390722484664604248e-02
-2.065132001486551586e-02,-2.787117928551879203e-02,-3.616394617327881728e-02
2.799069687037597162e-02,2.162961992376614614e-02,-9.426351640517437180e-03
-4.342952739389834699e-02,-1.569166546744867052e-02,7.343831784257720541e-02
3.306140558898201798e-02,-5.565751683099189745e-02,2.798332943922404725e-02
2.474898527679732924e-02,1.800232716882811668e-02,-6.418334317780802212e-02
6.135430868306955728e-03,7.242738609810529804e-02,1.012355576565838675e-02
1.940718275895074799e-02,-4.640676328823425956e-02,-2.434012857539752384e-02
-1.647520171744642353e-02,1.815174718092005951e-02,5.495100032003896739e-02
-2.100169722399021499e-02,-2.324292212299244528e-02,-4.347363117318008702e-02
-5.315969812578541509e-02,-1.071321769907922390e-02,-4.454753249955462069e-02
5.324993686805282178e-02,7.265648846695693663e-02,-1.791398429674081333e-02
1.444250167846951489e-02,-7.408638890653833353e-02,2.361689936587729050e-02
-7.731963800612201218e-03,5.736827795402005964e-02,-1.745418038970980579e-02
4.798508227920885577e-02,1.363579678418907169e-02,-7.225157966626832677e-03
-5.963476222210240332e-03,5.534583245823065066e-03,5.797131419877555453e-02
2.558325238342293653e-02,-1.237414883862868360e-02,-1.751070321283224734e-02
-1.515411340980498019e-02,-3.373837437067837147e-02,-5.207837841140252472e-02
1.685782536755164873e-02,-1.545704284675064599e-02,8.737090289859711367e-02
2.183086522233402063e-02,-1.971594070850992558e-02,-9.943098892223277419e-02
5.740168141358357318e-02,9.899036821502615879e-03,5.643535096794368572e-02
-7.843537231289482436e-02,4.607187295231063122e-03,-4.676632129051380704e-03
2.206886308712658132e-02,-4.042744169133417192e-02,-4.351761705232985722e-02
1.125290592320491237e-02,1.445596395962403698e-02,-3.055994749221285518e-03
-2.904227024245387492e-02,1.391262888024322880e-02,-2.149072644993963929e-02
1.131297407985928406e-02,-7.299162528030628261e-02,5.534764822890635844e-02
5.268336639328006360e-02,-2.603231072839432003e-02,-1.596431886440670064e-02
5.160371226241310116e-02,-4.020147112579021409e-02,3.052393085568151990e-02
-6.414903058200603636e-02,3.679954147295145389e-02,2.772320374198215809e-02
-3.723057311187266682e-02,4.888310751541218718e-02,-3.368112501231022328e-03
1.917906024871846027e-02,-4.031087714335090250e-02,1.565059529344852915e-02
-2.450768715840903351e-03,1.648697201497144674e-02,7.033347775607697548e-03
4.488960498632955931e-02,6.984343179008435090e-04,-3.589188743381883234e-02
2.857653909073771398e-02,-8.978931987476231058e-02,-2.017739427431657767e-02
-3.882521540880266853e-02,2.603972427736161305e-02,4.859474320229505151e-02
4.107301916368553268e-02,4.930134513807928748e-02,-3.018687547176292230e-02
-4.856867709579530679e-02,3.243914890636789145e-02,3.108992066733055892e-02
1.772393852647803636e-02,-6.748091461784776202e-02,-6.903826117172049033e-04
1.025397978576831765e-01,6.543919896643607056e-03,-7.734058358854346664e-03
2.745693222463104627e-02,-3.217198846006284058e-02,-9.974074376264503369e-03
6.160402601390255195e-02,-5.293246376055097541e-02,-4.003952457888473523e-03
-2.527532145872073491e-02,-3.239536890702311017e-02,2.912133315468602365e-02
2.964845319703608012e-02,3.775344794991033343e-02,-6.952092500166413835e-02
7.010454851758811390e-02,4.992718903120823941e-03,1.990348409701342414e-02
-6.854467485902014656e-02,4.080388514669246874e-02,1.253977102783095099e-02
-4.273325546950234449e-02,5.433114561860630243e-02,-1.763414562109297604e-02
2.254919514513273673e-02,-1.112647957314339374e-02,2.563650023363831659e-02
-4.647570434816616219e-02,-4.369997916600323190e-02,-4.226192833240522556e-02
-1.244235590662769349e-02,4.193382450582168464e-02,2.190598798619590101e-02
-3.943510452431585149e-03,-2.551461296702279419e-02,3.910443098835267306e-02
-7.463191006815220185e-02,-5.118100047725999968e-02,-1.067517275964127883e-03
-6.812491470650437753e-02,-5.309306249497489777e-02,4.647801707267999738e-02
-1.674406773495488651e-02,1.946311774886565552e-02,3.851833250238613070e-03
4.285052495424027108e-02,-6.425520422406137515e-03,4.626144268968755691e-03
-2.872587081834904882e-02,2.211641028278772680e-02,-7.122174455212358646e-02
-8.520958562832881000e-02,1.268100513389351820e-02,-2.793064599751791596e-02
-1.212573342620399536e-02,-1.724265124964073984e-02,-1.605633779354567747e-02
1.534442201063766949e-02,-5.693433220182413795e-02,3.222924581982096904e-03
-7.768272058277837788e-02,6.976307330746653323e-02,-5.244187263455186293e-02
-2.910395660300443138e-02,-3.493510669450315687e-02,-4.358548322002473580e-02
2.864236781780775745e-02,-2.583370975242099341e-02,-5.463974978386074155e-02
-1.144003710577623165e-02,4.976227303179112799e-02,1.817492402979601143e-02
6.658977780578818895e-02,-1.826786550397834299e-04,4.268558301336694560e-02
-2.833748010315619015e-02,-1.042025222880853391e-01,-4.992774483165755839e-02
1.127306717512621542e-01,4.182037326431746471e-02,2.298778629537304510e-02
-2.859721665101785243e-02,5.788960338764550378e-02,3.189832519284061668e-02
2.890089680243180387e-02,-4.928082845846983896e-03,-2.409674733744011227e-02
-2.198991744123026185e-02,-3.315911320220614467e-02,4.021007830687538254e-02
1.009265828618263056e-02,-3.413920206309959543e-02,1.723079650398184198e-02
1.347027072294957988e-02,1.403398060061611906e-02,3.944164948630518586e-02
-6.120873054139590146e-03,-4.228716595326174887e-02,1.557901328948232966e-02
-3.206784201065117357e-02,5.129936910268697442e-02,7.424843440852479937e-02
-3.287218499675395589e-02,1.627789278621121286e-02,2.790729724323280300e-02
5.672031874620243885e-02,8.665615464690158698e-02,-1.903376379946876071e-02
1.659748517086213557e-02,-7.051411399775396605e-02,1.235352173766996776e-02
3.733819908456475350e-02,1.876958772676122142e-02,2.817718326919580601e-02
5.884847884037729820e-02,5.646599452391916352e-02,5.603616767409401456e-02
-2.374409154620337262e-02,-5.340755832085824356e-02,-1.902671029399310293e-02
-6.907224229890739087e-02,-8.580083433946218696e-02,6.999102486552410442e-03
2.530640421810521901e-02,5.792348402062045230e-03,-3.397230634331501603e-02
-5.238603075099135947e-02,-8.253138077264120243e-02,6.928158267149990557e-02
-4.265938966892372786e-02,7.275220224425387773e-03,-7.430349047286403941e-02
-3.277752126458820942e-02,-7.644975257742400720e-02,7.607008826761041398e-02
-6.567086071451196105e-02,2.612034312560201910e-02,7.963645188485697635e-02
-2.053561418245596765e-02,4.499805603501087596e-03,-5.095406788357800115e-02
2.578408252783051351e-03,-6.883067220381970143e-03,-6.432921798250676448e-02
-5.927267625047167449e-02,5.363461767281366838e-02,-1.086896927012087066e-01
-6.930224761883640831e-04,6.212647981127730062e-02,-2.159002986538233627e-03
2.495791187819853749e-02,-4.859598746432083199e-02,3.841013633936501970e-02
1.916862274591295268e-02,3.120012501508835287e-02,-4.521542305627909708e-02
3.761661052812588502e-02,6.304606177639435205e-02,3.696376496465331868e-02
8.972027602784491199e-03,-2.401138543071416193e-02,1.207671404324428370e-02
6.665503530085313544e-02,-6.863776859622074122e-02,9.717018170421944795e-03
-1.197723941231737393e-01,5.337554474719177593e-03,-4.616828304349995804e-02
3.194254217911804417e-02,8.330479877940923095e-02,3.591976104480448101e-02
4.345234672933853681e-02,4.399023673072676582e-02,2.733135619023465204e-02
-9.301981492992396003e-03,1.254621013977954593e-02,-2.866200081002476946e-02
5.099343009952371497e-02,-4.054340883824492786e-02,-2.090934452589604878e-02
1.540622286626022394e-02,2.166219751070204771e-02,-4.733095186238189464e-03
1.151591623993645152e-03,1.494234458503140503e-02,-1.733012472264896381e-02
-2.013945036863050431e-02,-9.078397567728997697e-02,3.985761339585474489e-02
-6.223478714967344699e-02,-2.348039784608246111e-02,-6.807328169130219542e-02
2.178385355414867719e-02,-9.147114701584244112e-02,6.906528652488483355e-02
-4.376526356627756520e-02,-8.696990736096910785e-03,-1.901508259899141809e-02
-3.581494447310876184e-02,-7.906124618512577751e-02,-5.205319299813709888e-02
3.895165718283052220e-02,-1.904648292211209848e-02,8.795447171566805888e-02
3.156815042931709892e-02,5.429139090704664106e-02,-9.736040923170524025e-03
4.908177706251209971e-02,-4.807096318829912757e-02,-6.300151195637325452e-02
6.004106310299016369e-02,2.268303638136288242e-02,-6.742058126742769830e-02
-2.741046575927765655e-02,-2.115988007860320624e-02,-1.590276066489837675e-04
9.358826910611293612e-03,-2.730298201409623107e-02,5.682260892641275742e-04
1.030669889913391873e-04,6.091198127191327361e-02,-5.461874239859167146e-02
7.737034583892750395e-02,-3.545361209330381153e-02,3.382451256840882103e-02
2.473741921669974156e-02,-4.600319520617453944e-02,-1.898453666401204651e-02
3.662876320524049989e-02,-4.627213698781625778e-02,8.039897434933832021e-02
1.465637002841140187e-02,9.758684460994451748e-02,-3.919426869198845004e-02
7.375362946742330950e-02,-1.987229552007165750e-02,1.122611741071503737e-02
-5.479046428583384670e-02,-1.187090058066433973e-02,6.324758947591600788e-02
3.031986849666865394e-02,-3.160864802992802841e-02,1.175326721009666980e-01
5.659517711080438995e-02,-4.237789027507872508e-02,8.444598242871820953e-03
-5.104799538865336522e-02,-8.027623886622096971e-02,-1.444607153428618257e-02
-5.743768211963719977e-02,6.169337548976288471e-02,-1.868601634407258613e-02
-2.975531861862484861e-02,-3.573585953295573686e-02,-3.512971891010757686e-02
1.222690343527123649e-02,-5.127821570664331530e-02,-2.780534777341420877e-02
-2.147637892586264086e-02,8.947882625755488109e-03,2.840545564851949117e-02
-2.345345023750857946e-02,5.039392767890329278e-02,1.005990182201300497e-03
9.087554918462106834e-02,-6.807672598276136820e-03,2.767445735040209923e-02
-5.853727788196999571e-02,-2.798745622440500583e-02,9.180865945101643333e-02
-9.003244774034926956e-02,-4.727631068949866150e-02,-2.961854201470865561e-02
-1.616350218010252290e-02,-5.922210337686054094e-02,-5.204337621617623200e-02
-9.467383238441908584e-04,-9.863787283611689938e-02,-3.786691215527680787e-02
1.035420076244431345e-02,-1.089128882046995137e-02,-1.069814606682935668e-02
1.141565469178316451e-02,1.272580839848787976e-02,1.460153234861865344e-02
3.397828608444711934e-02,1.022091505076468468e-02,-2.232384680745634273e-02
-4.947654283408225995e-02,-8.777202050531028588e-02,4.065218124933522165e-02
-2.560967329037176082e-02,2.197623114419380332e-03,7.688386931487889431e-02
1.441163227335659144e-02,2.168027643803488794e-02,-8.644854059317996775e-02
-7.549109507292347263e-04,-7.352669559797893328e-02,1.081771849628105492e-02
5.938756247932761023e-03,2.049438073059898623e-03,1.376499303270714222e-02
-1.372599705756801826e-02,-2.857487945896738935e-02,5.376025804353203388e-03
-7.032759559847162958e-03,3.762121575705829057e-02,-5.656920026731353940e-02
-2.997934249650548166e-02,-9.316976947933439460e-03,4.169677713817118367e-03
-6.541586341366362189e-02,3.530628904214342528e-02,-2.557879483699425360e-02
6.452505307937415890e-02,-5.106375986610137141e-02,2.599536298074699506e-02
7.433431764468221258e-03,4.565087909735098676e-02,-5.803097349026212215e-02
2.451293248713752940e-02,-5.094028535160684441e-03,-5.394189665517066384e-02
-3.010338092838235960e-02,3.394794994628065610e-02,-1.187542423950856650e-02
4.399214430311775698e-02,-4.990655022157480109e-02,1.564076132715138193e-02
-2.069693586551076339e-02,7.635488595506467746e-02,-3.672681433645125920e-02
