accel_x (m/s^2),accel_y (m/s^2),accel_z (m/s^2)
4.050432220893715463e-02,-2.037486223160287629e-02,-9.760332770531949365e+00
-4.674419115989202761e-02,2.517155326247978372e-03,-9.751091803118724144e+00
-3.313041500300046432e-02,8.601402234782810907e-02,-9.748591190965898434e+00
1.029539899951586145e-02,2.097432783925219646e-02,-9.691905649506944442e+00
2.163827500549912741e-02,-3.247254527070830843e-02,-9.762033988807424123e+00
-4.161829279331694803e-02,-3.840928114107362845e-02,-9.723888971057006003e+00
2.330542789207891083e-02,9.480682869801597759e-03,-9.761276175166575086e+00
2.143239616768908076e-02,1.947965507715347655e-02,-9.792882916686215466e+00
3.517517889892460021e-03,1.556968615928113094e-02,-9.861980763222467417e+00
8.049997923593395915e-03,1.193248922395180600e-02,-9.838052234911449645e+00
4.106511661031314597e-02,1.797459039912205694e-02,-9.827419620785580179e+00
2.298894710761241640e-03,7.039509312036247753e-03,-9.744609859505974470e+00
-9.877279109036882915e-03,4.953953322593027814e-02,-9.738782369637386083e+00
4.707075660802269301e-02,1.762999326468666153e-02,-9.815849908306919502e+00
5.989800521110984211e-02,-4.778612656873115760e-02,-9.664227858337065769e+00
-1.180602556154717805e-02,2.226778764289131032e-02,-9.831193060784022109e+00
-1.113374069561128415e-01,5.453975939845107784e-02,-9.741370829239661688e+00
-2.269087984678997555e-02,-8.120900070960205067e-03,-9.807400280508067780e+00
-3.785399433084603998e-02,-7.213355627603505911e-03,-9.746043405102795987e+00
6.545249942639311258e-02,1.541853520982963514e-02,-9.837335074702872717e+00
-1.287304517475919632e-02,3.778973901221755610e-02,-9.808057919545861481e+00
5.310782667024163684e-02,-4.605251077598145060e-02,-9.776677536732208296e+00
3.495787404712717705e-02,-6.945168151465655818e-03,-9.719885032132792091e+00
8.818709285591076058e-03,-8.077613333979002941e-02,-9.904457104504491127e+00
2.933414407191575410e-02,-3.895377956685805443e-02,-9.827828914285293038e+00
-3.770907985267521641e-03,9.374747576322334242e-02,-9.831252674230199773e+00
4.184134696312215990e-02,-2.781200433357263954e-02,-9.746203576463518203e+00
1.226781190679701247e-02,1.486806963958008272e-03,-9.801640077635006776e+00
-2.513701939023378282e-02,8.440221646171221226e-02,-9.835273326546570161e+00
-4.839806119081664984e-03,3.327222163031979402e-02,-9.869692288105097688e+00
1.990667223418504661e-02,2.543902886731427143e-02,-9.747921934240018516e+00
3.472913677871270616e-02,1.355082210524782491e-02,-9.852499784421070217e+00
6.759403387597455459e-02,-5.311617409625537384e-02,-9.773391356142534292e+00
2.312386830214923153e-02,3.009767440864440091e-02,-9.794743507842781582e+00
-6.263129065138810236e-02,5.709047553240997885e-02,-9.778267570355829719e+00
6.886696925636225097e-02,-1.780752035117010371e-02,-9.825136874997602021e+00
1.603440475917624480e-02,-5.589117188875575293e-02,-1.000815957168271453e+01
1.317982243758416411e-02,4.845418829833372798e-03,-9.746373430709924790e+00
-1.000922960444229348e-01,-2.245406045343718501e-02,-9.841896356835832194e+00
-4.596707852341408440e-02,-5.815558160267277066e-02,-9.830140348526104077e+00
-1.957628798779704332e-02,2.806752984160497746e-02,-9.906002298962304664e+00
1.034532787044217528e-01,-5.463832960444202358e-02,-9.739978883534933018e+00
3.963984832337076603e-02,-7.848239015647583139e-02,-9.663717834164746279e+00
-1.556927159682200759e-02,-5.879536543673410942e-02,-9.780312971517107101e+00
-5.359846064152416073e-02,1.013868549493887050e-01,-9.798259101816563899e+00
5.493922736445004847e-03,-4.042373921181446894e-02,-9.756555409816973778e+00
7.508405135502639605e-03,-4.267244658448049455e-02,-9.948739030252156113e+00
3.158828977806738686e-02,3.942140356614819846e-02,-9.639952205190954970e+00
-6.861615601911656703e-02,1.440778792424923099e-02,-9.750957988457118475e+00
2.872375793989817832e-03,-1.442119842296712452e-02,-9.883583367722520663e+00
-1.712987737946095740e-02,-3.839621324998634261e-02,-9.823414138325791356e+00
-4.105522855666598331e-02,-1.548042262034066835e-02,-9.803487110919189007e+00
2.221884937775022491e-03,-3.908818230470241517e-02,-9.812369290523440313e+00
-3.893637652593165410e-02,-1.687112483218726824e-02,-9.793222584884279769e+00
-9.156329410042698957e-03,-4.941667348201417634e-03,-9.899002141220869078e+00
-1.972547959615329402e-02,-2.521553666255035506e-02,-9.727639058819196549e+00
1.386644138631744003e-02,5.349740615128536353e-02,-9.867467632923823118e+00
-2.790833875019056373e-02,-1.099103156491661355e-03,-9.709938079325391769e+00
-8.319038169615490530e-02,-7.764854727626368733e-03,-9.711741370010019025e+00
8.805968962393667318e-03,3.037078069686225887e-02,-9.813866778577729377e+00
3.018691359802433069e-02,7.604024149149578304e-02,-9.818945393943282696e+00
-1.211824473683551472e-02,-6.940807208309089649e-02,-9.702750119059341927e+00
-2.165073241351398933e-02,-2.450126415899735177e-02,-9.687988105973298403e+00
-4.493102972855677474e-02,-4.166880856084167334e-02,-9.710310512209185063e+00
4.034950060493119016e-03,-4.685292707720208581e-03,-9.808903830253729694e+00
-3.869568485279783338e-02,5.409756204752376452e-03,-9.848624471385845069e+00
-1.957680810740467653e-02,7.318982971598310405e-02,-9.818615644549714361e+00
-3.165220588653908096e-02,-5.834230080455440892e-02,-9.838523906520626028e+00
-7.032555274764261399e-02,7.452980916618998086e-02,-9.853072596282768103e+00
1.035181786453739788e-01,1.670181914943363183e-02,-9.812095594034991208e+00
-1.795784402171858932e-02,-8.739466864182563605e-03,-9.808270667179998625e+00
-1.603950728612894838e-02,5.232582337861006044e-02,-9.776330475840083523e+00
7.013025999204158811e-02,2.568528573239082374e-02,-9.846694348439097411e+00
1.459254235370469402e-02,-1.688342881673855767e-02,-9.817847163316820058e+00
7.485025743269205223e-02,1.024353958246836116e-01,-9.736727042193077608e+00
-1.983455275241256116e-02,-9.609545474118609543e-03,-9.830178959366300262e+00
3.142625005616231371e-02,5.341841771245101587e-03,-9.877960059878882149e+00
-6.460366621174543078e-02,-6.697555881826273462e-03,-9.699109754660034000e+00
3.125070318496805943e-02,-5.338746845779442779e-02,-9.734296645678922388e+00
-2.357874154099908609e-02,-6.757421038071212416e-03,-9.818936001644406275e+00
-1.606001667677655828e-02,3.152617285927791779e-02,-9.787665328730090764e+00
-1.495586933361194373e-02,6.568954003477357750e-02,-9.816005446125105394e+00
1.831418262868672944e-02,1.894959443918963621e-02,-9.891986349546533219e+00
-1.049874250320461527e-02,-2.074762872123174853e-02,-9.780772052827053642e+00
2.242260670032500403e-02,-4.292075095754995309e-03,-9.821164451300859355e+00
-1.796613801356314322e-02,-1.591585174120064422e-02,-9.733301470081244133e+00
-1.794485776882328784e-02,1.903002226267549654e-02,-9.886601619345382730e+00
-5.498903808622987444e-02,-1.054349340996716192e-02,-9.840341855074868249e+00
3.671696317092187217e-02,-1.917093769532528941e-02,-9.755859173020173358e+00
5.359556241879927241e-02,-1.659290721104285989e-03,-9.798345941843326301e+00
-4.725629655703630222e-02,-4.900543250608087320e-02,-9.855558027107827357e+00
5.902503322040853623e-02,-1.159906487643672796e-02,-9.824270060123577508e+00
3.414895316414349319e-02,2.112761764114567953e-03,-9.757427942369741203e+00
1.788671966453768414e-02,-1.565113972087884761e-02,-9.828137119701954916e+00
-4.969654809904607701e-02,1.308690713147179878e-02,-9.773839987226869752e+00
2.677374156218874021e-02,3.583520779306084009e-02,-9.819959697504724971e+00
2.859185507857110731e-02,3.431790526021896021e-02,-9.756116824411865451e+00
-4.010234688203796749e-02,-2.673274889412100008e-02,-9.763812836868488887e+00
2.203779972870122464e-02,-5.606358664768226231e-03,-9.789312014806323958e+00
1.188629728062563090e-01,2.414616856845564971e-02,-9.787450889605757709e+00
-1.244141190573932881e-01,4.216473119334052111e-02,-9.698450487028910771e+00
-2.889023718068281163e-02,1.241866940608748332e-02,-9.731268040002756692e+00
2.657884031413605339e-02,-3.188200273354674374e-02,-9.778936828377331025e+00
-7.473256022480305114e-03,1.052057837781947280e-02,-9.785821478497600978e+00
-2.088392244233769693e-02,1.277641814490149998e-02,-9.615208139258250242e+00
3.773243001750815895e-02,2.325629067035437508e-02,-9.678546244132277820e+00
-2.459465524473113812e-02,-4.586942741398785999e-04,-9.781540477910461107e+00
-1.021248021292289754e-02,-2.133718920863963281e-02,-9.823612208546213864e+00
1.957191212777027386e-02,3.803016980605074260e-02,-9.743095789861214939e+00
-3.427407111672316903e-02,2.963229235637138137e-02,-9.705677994565149902e+00
4.964288476166415186e-03,-2.786925019191371228e-02,-9.848206899048413732e+00
-1.114245474403392777e-02,-1.767620631930673022e-02,-9.824481715928245151e+00
1.243398983819836087e-02,5.931769651030231738e-02,-9.767576253963241584e+00
2.779710270291782179e-02,2.608980927428279292e-02,-9.900188064469785942e+00
-2.241436286976801473e-02,-5.308555089927052308e-03,-9.754458120365129048e+00
9.960275561107649264e-03,4.605138093712225072e-02,-9.739332093073574725e+00
6.093616766623849434e-02,-4.674568108305878628e-02,-9.871211813641755484e+00
1.974489536575335311e-02,4.185290286524870167e-04,-9.753416398169308721e+00
-2.668713666623887329e-02,-1.787573087629304794e-02,-9.789598082666783441e+00
6.700618173791255024e-03,-6.991230514601444457e-02,-9.758431999187958894e+00
-3.591900784626352906e-03,-3.127436242350858930e-02,-9.867945301623732846e+00
-5.119103813901568212e-02,-1.960618731855586980e-02,-9.888869322744813672e+00
-2.619275302379802176e-02,8.319030506806887951e-03,-9.795249802647528981e+00
-3.146768489892732418e-02,-7.175766113424234503e-04,-9.763373085793245920e+00
-6.502818592908596318e-02,-5.610119606225657564e-03,-9.830064430903918904e+00
4.099509242398190895e-02,1.131826441694309821e-01,-9.774924790518198847e+00
3.541696359457757043e-02,1.974458048458088005e-02,-9.799844219490589481e+00
2.133449004356903229e-03,3.849494843406154471e-02,-9.869666516288811309e+00
-3.688757386040961844e-02,6.392222948497935930e-02,-9.739544520065152255e+00
6.216753036389558243e-03,5.603834998220790647e-02,-9.770841486263945441e+00
-3.468940529482920226e-02,-4.893029403498875413e-02,-9.744473870922467640e+00
-2.359621231873202524e-02,-1.412326308009953253e-03,-9.788488739440111885e+00
2.047671948520071034e-02,-9.685592911564296081e-02,-9.854633034998352414e+00
2.217793026146030327e-02,-9.840292672679985114e-03,-9.728550226642019183e+00
-1.313270558790840398e-02,-5.210828557039912101e-02,-9.964133028998604757e+00
-2.089354008135265589e-02,-4.880960331215567632e-02,-9.761759110738806200e+00
1.516645200053819489e-02,-5.138073305258709228e-02,-9.820864223019180272e+00
5.718202107891199801e-03,8.147430185276992309e-03,-9.781868735967510275e+00
5.625392297168921307e-02,7.150232214364664329e-02,-9.846612529113814460e+00
-4.925065516602680771e-02,-5.614193886054900939e-02,-9.680290839573567396e+00
2.376260855752980114e-02,6.516765343252981478e-03,-9.838051907921482098e+00
8.819787066030328193e-02,1.394007792785972562e-03,-9.731512449440456791e+00
2.638608312638845987e-02,-2.784378694933227483e-02,-9.771045717437493394e+00
-2.152915398495352031e-02,-7.665153618570508254e-02,-9.774344156470672118e+00
-1.789106781278396521e-02,6.608804019476186009e-02,-9.759217775168245623e+00
-3.069678452923938622e-02,8.480679670412927945e-03,-9.848158583629421869e+00
2.897571167130220081e-03,-2.160497725548835013e-02,-9.783389639644274993e+00
2.522403682651170459e-02,4.557450700903514090e-02,-9.835629147675952311e+00
-7.398185434971063512e-02,-4.907452972237655309e-02,-9.792968395319743280e+00
5.725425308111289219e-02,2.248955222068513282e-02,-9.764689814718202854e+00
-1.159466901689423374e-01,6.837315511100259396e-03,-9.818143238465673051e+00
-1.245330933555130817e-02,8.579855039151007556e-02,-9.827466394333333355e+00
-3.227032457324119363e-02,-6.376126970115322812e-02,-9.780258499253868365e+00
-3.895767967088956119e-02,1.109579246028874824e-02,-9.698332097001403085e+00
-2.954372433249902175e-02,-5.489356099665532694e-03,-9.773830122074384619e+00
9.908529722081065028e-02,-6.564048977921978223e-02,-9.796681044940191541e+00
-3.597355232481547899e-02,-3.084683187776171912e-02,-9.851728537633869465e+00
-7.665116830478568323e-03,-4.282992777743391960e-02,-9.874875061398659781e+00
5.219739601027034714e-03,1.279966574800977912e-02,-9.814910246134740390e+00
-1.045461446862215038e-01,-6.817437539093728835e-03,-9.741137743839507479e+00
-1.109341131676653928e-02,-3.715049154997163866e-04,-9.773959225645809212e+00
6.878691815486595584e-02,-1.093821389373078774e-02,-9.757469902489395608e+00
-1.102360900269659313e-02,-3.051615260203400029e-02,-9.808180169807457105e+00
6.519293023894542384e-03,3.162120347259266689e-02,-9.831098985129486323e+00
-1.438823289901661195e-02,-5.740889158781233709e-02,-9.849458319340701706e+00
5.101091591767786815e-02,-2.475576934215255320e-02,-9.724760346802362676e+00
6.541324124435543563e-02,-3.275972443599601408e-02,-9.747752656467762122e+00
3.364088377158999232e-03,-6.100897488849256478e-02,-9.825724044238279831e+00
-5.762586680618349971e-02,-6.462595163820590571e-02,-9.737756053272860868e+00
-2.405941866075765601e-02,5.134989982121586360e-02,-9.829573916374542364e+00
1.700506993920542506e-03,-2.574376814688740869e-02,-9.775630501122234861e+00
-3.986197487169997750e-02,-9.930810142781856809e-02,-9.753407971734452175e+00
8.312959400335298565e-02,-6.723132863681527405e-02,-9.770429644948517733e+00
4.966554861319404449e-03,2.855720088798300790e-02,-9.825564719301960181e+00
-4.911003625653526800e-02,-2.449618614974273089e-03,-9.800109500269298834e+00
-8.983874485433111790e-02,-4.780715243693532852e-03,-9.729604493110542762e+00
-1.454086403386052433e-02,-3.569365270672933410e-02,-9.628054268253046999e+00
-2.270239453142654587e-02,-5.277886829552494441e-02,-9.824820503897180757e+00
-7.804457093658732914e-02,3.353901428019299275e-02,-9.833415523117455592e+00
5.667932091763339814e-02,2.986157474796075420e-02,-9.800927007473273278e+00
1.058769592453762814e-01,-3.742544158863093245e-02,-9.727470887534352073e+00
9.348927938787122971e-02,-3.878459640583083873e-02,-9.775494550367017865e+00
4.733285049601839573e-02,3.466054101824982830e-02,-9.843304423800285363e+00
5.895508415684195223e-03,4.919402739714746897e-02,-9.862910484176998338e+00
5.942397005856610986e-02,-2.468758074937282658e-03,-9.857183398938282437e+00
-3.353691434698258950e-02,4.370278880516494796e-03,-9.751078620882150716e+00
-5.400410548699150631e-02,5.674216800940974637e-02,-9.816475430626450560e+00
-2.225489853302622251e-02,-7.281618591188847127e-03,-9.848251879128516961e+00
-1.783867761496492343e-02,2.064551783679900721e-02,-9.797849284720873797e+00
2.565342629892387351e-03,-1.463782593689802111e-02,-9.767890539754040091e+00
3.771387465921506588e-02,-7.865786582719599962e-02,-9.893839493374455785e+00
9.575417408539808883e-03,1.916624728191915900e-02,-9.874431321327055144e+00
-2.138407376886787212e-02,-1.336025466848054545e-02,-9.804453749816616437e+00
-6.905235843959889840e-03,-3.643310072374011249e-02,-9.800894145400224744e+00
5.648077092805849769e-02,-1.684726438322958070e-02,-9.826524312194200306e+00
-7.576397757049299457e-03,-5.541389582255473734e-02,-9.794124598032738049e+00
-5.547640952888086008e-02,-3.421545532216897084e-02,-9.930569743799228632e+00
6.509951592573377799e-02,-4.649031214385691141e-03,-9.712085379277823449e+00
-3.847173889686024417e-02,-4.589276259557398263e-02,-9.830869976968049428e+00
-2.363169174891352128e-02,2.155555038803219983e-02,-9.790860986321007431e+00
-3.458959374429092237e-02,-4.253800755473107625e-02,-9.820677757381050199e+00
-1.223274084234085915e-02,-6.860162020999439891e-02,-9.720691240240611819e+00
2.283225509676923420e-02,2.672072383402588486e-02,-9.767880548979823274e+00
3.653283974659166100e-02,5.865269425685195638e-03,-9.834086686315984593e+00
-1.855430129377123177e-02,-7.123275943508619590e-02,-9.819258645109838923e+00
7.811979590053549916e-02,1.586323930630333806e-02,-9.819865166545362456e+00
3.363481413196037217e-02,-4.691576906581956113e-02,-9.750096417194054510e+00
-2.998417397869284837e-02,6.609723171741005432e-02,-9.812770927608184479e+00
1.090814992744761243e-02,1.735745274052749934e-02,-9.674447504832018652e+00
1.009982039464334957e-01,-2.841414812911179436e-02,-9.808319220792974136e+00
3.861790497623905638e-02,6.053723735291640512e-02,-9.730701858225140555e+00
6.487015652685887814e-05,1.173999721778074381e-03,-9.835029596411381192e+00
-7.059776630920178153e-02,-1.756992622614090074e-02,-9.796966524071782700e+00
-2.552589642229094458e-02,-3.476385055724354883e-02,-9.753844363278014740e+00
-8.041495566588520438e-02,5.170728599586975338e-02,-9.887666338510387121e+00
-3.165546487989090527e-03,1.751314192119048790e-02,-9.807187034562067751e+00
2.004053807703685269e-02,1.588101085203718482e-02,-9.812212386804814557e+00
-1.869950012498058922e-02,-6.519525416407542795e-02,-9.773071380691918719e+00
-3.699229988643623623e-02,-5.096090410874118404e-02,-9.705559404637593701e+00
-1.648717468663471117e-02,4.251739895943426606e-02,-9.753821825744221741e+00
1.569173449724870981e-02,-1.558333499523523874e-02,-9.805822318925040193e+00
6.274522317250506853e-02,-4.151693797083010756e-02,-9.875856733517329289e+00
-2.457580361010601108e-02,3.814480936236664538e-02,-9.754052769963957203e+00
-1.396507553948808308e-02,8.777627753918944287e-02,-9.817223480521834134e+00
4.765036043222072026e-02,-2.333806025423659780e-02,-9.857900988636725259e+00
7.804998736526554126e-02,-1.821897657708109255e-02,-9.806727880608013592e+00
-2.585355970333372971e-02,1.997805760679365397e-02,-9.857876614505435953e+00
1.660064456051837251e-02,-4.918567690600721826e-02,-9.871992005891124577e+00
2.069357231811878514e-02,-1.632839271671031670e-02,-9.786268698587015535e+00
2.188373002435580611e-02,-6.398038571923802577e-03,-9.767901373428943046e+00
-3.468604567447697296e-02,-6.325925345691070512e-02,-9.776847220579902853e+00
6.869568583768531286e-03,2.874663051119893606e-02,-9.678556857077506237e+00
2.807693797241109582e-02,-6.134242657952595004e-03,-9.734213240985498672e+00
-7.145207742862022537e-03,-2.091824938247509574e-03,-9.730464000079566134e+00
-1.082643081638214912e-02,-5.031916432781347211e-03,-9.671306706447063917e+00
3.075459122352241018e-02,-2.994172741401857421e-02,-9.762482968004562167e+00
-3.484001824143924397e-02,3.754454938153305166e-02,-9.907868474605500353e+00
1.536027574086013025e-03,-2.400829336324709906e-02,-9.878658621748126478e+00
-2.364738942657444720e-02,-6.251017917703698135e-02,-9.818118323810391956e+00
-5.023455795945357821e-02,-4.860034276588395818e-02,-9.705042594734095474e+00
-4.998831471645630992e-02,2.902396152385939426e-02,-9.717669616452059955e+00
1.999282338417641969e-02,8.787592924426179675e-02,-9.785330166163005217e+00
1.581989608612025672e-02,-8.688486786853552579e-02,-9.784842952293447027e+00
-7.217790834095967611e-03,-4.955512830745575220e-02,-9.805581444035331273e+00
2.718680683225491168e-02,-3.440163412271393661e-02,-9.755745836062216014e+00
-1.117360381103034983e-01,-1.724210040165065350e-02,-9.677044936532613661e+00
6.187681082680884792e-02,-1.899224541941121024e-03,-9.907835062299172435e+00
-9.426929640853821957e-02,-5.859685474688283713e-02,-9.805887390818533333e+00
2.051325564219445147e-03,-9.818632441564211291e-03,-9.845822670294760215e+00
-1.014649850056213688e-04,1.305628968719825707e-02,-9.815038260624472599e+00
6.997811803186830548e-02,-4.233461602120379419e-02,-9.849979115195720780e+00
-4.324369641152686627e-02,6.241516375798347206e-03,-9.757000123034895722e+00
2.339946766545974999e-02,3.918287858022372235e-03,-9.805447577887298038e+00
-1.797506947572150363e-02,2.587594200876532774e-02,-9.797008450249633071e+00
-2.145803584695034003e-02,-3.206999176680074004e-02,-9.734361477137259300e+00
-1.115093181105787298e-02,-4.742367707875366767e-02,-9.724783945989917910e+00
9.555524252377881750e-03,3.376965862291712167e-02,-9.787353360599007956e+00
-3.633988303277464055e-02,-4.125908221059949865e-02,-9.635636669120414055e+00
-2.849248600099048637e-02,-8.426912569859255214e-03,-9.817912853397205097e+00
-1.721049176553025991e-03,-6.457671683108504555e-03,-9.738362966728962178e+00
-9.104972197955950308e-02,-2.761337756755481709e-02,-9.815444386836158941e+00
3.492069592766514075e-02,-5.061705411412855543e-02,-9.666121417145756567e+00
-1.538777084759839278e-02,2.501458317895652317e-02,-9.727338989761792121e+00
-4.080577514547706341e-02,2.221779912843298635e-02,-9.764625246670465941e+00
-9.109885311090519522e-03,5.288528235322810522e-02,-9.778134573050808243e+00
-1.213350991408160620e-02,-1.301535330082448372e-02,-9.784155392061691714e+00
9.386855850252522407e-03,-4.464721416162413178e-03,-9.885518131641076067e+00
-2.890809859647335694e-02,1.514277696601238656e-02,-9.762488165515030403e+00
-8.187092520856470781e-03,2.183581295221760990e-02,-9.689866116292085607e+00
-1.303528200137506546e-02,3.189934426308925486e-02,-9.814551732877756507e+00
-5.131427280568467975e-02,2.636327513601590192e-02,-9.883514979626301766e+00
3.880528559157803148e-02,-2.467741342702650317e-02,-9.779802197873445735e+00
6.864738767232396455e-02,-1.047378681112138415e-02,-9.766772294013673417e+00
-1.100333899429025916e-02,-9.159806933531461706e-03,-9.826484766788491143e+00
-6.121553161002430202e-03,-1.618367488540011639e-02,-9.726597421531186782e+00
5.328826236358957108e-02,2.693096582346522425e-02,-9.782559320241061229e+00
-3.007988020909842936e-02,-1.399496053218065098e-02,-9.823135511115616225e+00
6.517621512650703663e-02,1.160033057683034809e-02,-9.780114693919289337e+00
-7.362778517762404162e-02,-4.528827943968858488e-02,-9.867388882304318543e+00
-3.986827715714454101e-02,2.842552585286877570e-02,-9.805715243716894847e+00
5.331807032715756706e-02,-1.628184770319776251e-02,-9.776973048997467330e+00
-5.653948949544566893e-03,-3.788960836765781215e-02,-9.755419987210379063e+00
1.669581609467870459e-02,2.826908486867432332e-02,-9.768475208111704333e+00
-8.659353824880698311e-03,-4.533039991427156509e-03,-9.811208741527563504e+00
1.472624873124639237e-02,1.274468576874428737e-02,-9.847884661360883030e+00
-6.739633828368658819e-02,4.568961175505112382e-02,-9.760284202425349775e+00
3.711528400368940134e-02,4.134901970521889097e-02,-9.772814351405100908e+00
-5.981167414305058050e-02,-2.805233076656298008e-02,-9.723669964840023994e+00
8.373379065844172020e-02,2.549404432930546527e-02,-9.738209401956284594e+00
7.600548012507922155e-03,-1.305740860679331823e-02,-9.728551785104411209e+00
2.578702387230110207e-02,-4.912651715867109858e-02,-9.790612923151700286e+00
-1.742781657796561162e-02,2.543348641294290724e-02,-9.841305229730908266e+00
-2.523225698263404856e-02,-9.366496479957468063e-03,-9.841543220214285626e+00
-4.469278067858359349e-02,-1.240468510539464476e-02,-9.795801421695124134e+00
5.930293482333359560e-03,7.942889588818825147e-03,-9.799684339230640973e+00
-9.914645811500345796e-03,-4.817451335754909664e-02,-9.824351308875337807e+00
-1.042641547529660900e-02,1.469091979790900469e-02,-9.782889043192703582e+00
1.141121874256733823e-02,-1.505238528878319500e-02,-9.882875155464740047e+00
-9.269329906528030183e-02,1.747593686391626889e-03,-9.814153008213196472e+00
-6.481704428472712110e-02,1.222826798378506656e-02,-9.785976049966405910e+00
-2.980649198495047628e-02,-4.554278629060572181e-02,-9.875615652825983304e+00
2.580758045440420534e-02,2.623885139712106313e-03,-9.896943037119763531e+00
7.531776075058581321e-02,-4.946060529213402307e-02,-9.787373808987343438e+00
1.411133543385225536e-02,-1.027124859627758131e-02,-9.727127522859426279e+00
4.834314423628655738e-02,-1.932971555151364674e-03,-9.834940449026630560e+00
5.738501775188526582e-02,-8.120909270765735294e-03,-9.791333614438494592e+00
9.686279214556155204e-02,-6.979487112027404905e-02,-9.754912320620709565e+00
-3.425875525666088883e-02,-3.674356545856689860e-02,-9.687182870546024560e+00
-4.215338389078302633e-02,2.218040853969019746e-02,-9.737610792385948955e+00
-9.196982848522298679e-03,-2.740169877018666655e-03,-9.859643838395749427e+00
2.318418174906486384e-02,3.414543715544846036e-02,-9.736058621112322342e+00
4.302643408070241926e-02,7.260999986386055052e-03,-9.849258907537523200e+00
-1.216443069715397078e-03,-3.710161434216604354e-02,-9.755573984870764548e+00
-1.453676671952242039e-02,-1.782265918018543019e-02,-9.695996874765894447e+00
6.103232268548151873e-02,-5.403867666779525389e-03,-9.845231546368285791e+00
3.973031312168841256e-03,4.771085809577696978e-03,-9.668299090734908674e+00
-1.138047426204587438e-02,4.049413693618487270e-02,-9.865203679122878100e+00
-5.985775687133527284e-02,1.171195582325497142e-01,-9.872496827639706041e+00
-4.252058197520378752e-02,-1.919686476375422057e-02,-9.742338865988118712e+00
-4.474895542525707259e-02,1.295877611178030721e-02,-9.734752857268659909e+00
-2.958007008406944582e-02,-3.859583679638012993e-02,-9.777229823821325994e+00
2.974937902409691224e-03,-4.723923846784093897e-03,-9.840156539216518894e+00
-9.174556163126824926e-02,4.257295713520152514e-02,-9.834639486355893467e+00
2.834091575398448720e-02,1.043688325081078110e-02,-9.746149785030398860e+00
2.700689096243801685e-02,-4.243715999936306660e-02,-9.698321344938237942e+00
3.539422131699108270e-02,6.212949805506207124e-02,-9.743807206544543575e+00
-7.893199082052800367e-03,-2.274493483618375902e-02,-9.853774025753700982e+00
4.194421365641739369e-02,-1.435831388282509183e-02,-9.732799406146066090e+00
-5.229434848524827650e-02,2.179419747594625242e-02,-9.986741924125215775e+00
4.087835382151395330e-02,1.136412458415957637e-02,-9.686608942597002780e+00
4.138210981865775295e-02,-2.179228037329690448e-02,-9.835990616503391237e+00
4.167884063789179666e-02,-6.619281846025759641e-02,-9.762125029875992510e+00
3.982862780546155002e-02,-6.622833211353915117e-02,-9.948563663033572979e+00
4.054682144600518789e-02,-1.856800649122895006e-03,-9.730302922153452272e+00
6.423776417283338057e-03,5.452991416752960181e-03,-9.833621790166088061e+00
-4.423776552470111249e-03,4.671280580720271747e-02,-9.903373447540415597e+00
-7.234552772252969555e-02,-8.131173268727498807e-03,-9.839334733925522158e+00
1.918148070398755997e-02,3.447963083691133607e-02,-9.766060183416078289e+00
-1.741651049480370458e-02,-3.440751935981701572e-03,-9.850808482179076009e+00
3.675139256185497999e-02,-4.128161393049910310e-02,-9.718292565270894912e+00
-1.977982137612725039e-02,-7.016736510406296201e-02,-9.755879164717930152e+00
3.585666674475176952e-02,1.002334940194820126e-02,-9.824864722155858487e+00
5.921950012738577164e-03,-1.017136623775095720e-02,-9.709707577100598286e+00
-3.813958582978456413e-02,-4.567021491019758461e-02,-9.844329910436666609e+00
8.703352014951130922e-02,9.964583165352322927e-03,-9.874855635486552430e+00
2.583713796292347667e-02,-1.393783830486309931e-02,-9.783688769771412552e+00
-2.852667110569248772e-03,-2.810467406755757722e-02,-9.804073784632885591e+00
-3.683357521887391239e-02,-1.230904730938128452e-02,-9.843265417498333392e+00
-5.945799932303513086e-02,-5.459572558276643700e-02,-9.725627975818554205e+00
5.014291429393771815e-02,1.260015391936279705e-02,-9.778418900907860589e+00
2.710093160686867855e-02,-2.576837556624988340e-02,-9.810240346430441960e+00
7.986019770120444949e-02,1.429495567399248490e-03,-9.743803797322176052e+00
5.562667925537876680e-03,1.022447134230310313e-02,-9.882030622008480591e+00
4.439384622161427624e-02,8.345262006334330795e-02,-9.759192926050054950e+00
1.796543560795787683e-02,-3.152221637291784812e-02,-9.778637036235082292e+00
-4.031391873074750137e-02,3.873806969393842059e-02,-9.856226970619125893e+00
5.072203948364427959e-05,1.502015227118242910e-02,-9.717928330015707772e+00
3.633574411816491850e-02,4.880174453167039628e-02,-9.843984604051504661e+00
5.679536089166453694e-02,8.826153466468769637e-03,-9.875922743746649246e+00
7.303429947446313242e-02,-3.783712263251998859e-02,-9.870045389865355290e+00
-3.541997528019923125e-02,-2.266030306563301608e-02,-9.824300102540659552e+00
-9.357828403639469050e-02,-5.641019610951888974e-02,-9.735728322215425834e+00
-8.807086941390490642e-02,7.534047104792477093e-03,-9.768032484584569630e+00
-3.160518722345727902e-04,3.331353919345970971e-02,-9.752636819055325645e+00
1.673519788863947824e-02,1.186012252520581706e-02,-9.790377736428906630e+00
-8.663571982845957517e-03,-7.406779525878736878e-03,-9.827433921939986661e+00
-5.508746129199770802e-02,-4.265466929618219952e-03,-9.801339303715044693e+00
-3.810716333462137867e-02,4.609580436741250037e-02,-9.695420488412878512e+00
-1.923610533135803376e-03,3.140667925761668478e-02,-9.748551536850078136e+00
-2.806902948067042242e-02,-1.315038614187726690e-02,-9.795982592116725840e+00
-3.824505721034251321e-02,-1.728745887066849077e-02,-9.828935605700182876e+00
2.555080171240607309e-02,-1.016596795222128591e-02,-9.836695732561580030e+00
-2.088851732592594823e-02,1.528461565893807390e-02,-9.846924824233154183e+00
5.617216415503661214e-02,-1.533808074140935278e-02,-9.834943100138682226e+00
-5.365313036033465821e-02,7.554794545389977023e-02,-9.782721168576346216e+00
-1.978995950390627021e-02,1.139012713129045626e-03,-9.812916114207444807e+00
-4.699801668030709201e-02,-1.565605117763745752e-02,-9.769640610979216433e+00
-3.383995865089488991e-02,-2.038775961727469499e-02,-9.767014224724663407e+00
-6.137374470896384687e-02,9.116760362281872698e-04,-9.719178496745906060e+00
-4.847431507443803606e-02,5.695391183335901317e-03,-9.727646393059158569e+00
1.548625153120914907e-02,2.070570732254543161e-02,-9.723332902354622220e+00
1.008472454738992830e-02,-2.431036833048092274e-02,-9.801037064290630596e+00
-4.800416066330322196e-02,6.851672928594766676e-02,-9.745142449387621753e+00
4.684823875475436356e-02,-6.033672872154290795e-02,-9.871439965046402421e+00
-3.321674029289913010e-02,5.779083214623868814e-02,-9.803290553349601311e+00
3.954712042688109108e-02,-4.687323726699004628e-02,-9.756791739286738263e+00
-2.942672227002480698e-02,1.960254112608052560e-02,-9.723852618220021782e+00
5.371173075244067147e-02,-6.652467907508959055e-02,-9.886178039462842904e+00
-1.758569171071530657e-02,2.696185947925192061e-02,-9.746295179198792624e+00
-5.126685337445684165e-02,8.577351960952793453e-02,-9.763571717635324276e+00
-5.633483776680660304e-02,-2.549160326721487679e-02,-9.846063474199292287e+00
-2.162935506748093085e-03,5.090547150856381681e-02,-9.916725579121070666e+00
-2.887751284208664795e-02,-4.205147532859676573e-02,-9.704884863002256168e+00
-3.316474931414034599e-02,-3.723268658292157307e-02,-9.719410774764835281e+00
5.831722898823379214e-02,1.252653155867970367e-02,-9.812071062903427787e+00
-9.470393392520870535e-02,3.424770671693129487e-02,-9.752970512913782031e+00
-2.023878966017303264e-03,-4.764024347327811687e-02,-9.810660508722563122e+00
7.877556894815623822e-02,5.950703511028283821e-03,-9.881787144555682190e+00
-1.093011770975553347e-02,-8.465622192858649961e-03,-9.805311598264999873e+00
4.452940120648589406e-02,-7.230713009040534711e-02,-9.830941800964515309e+00
1.046432381239928988e-01,2.624968839368601800e-02,-9.879377731204609603e+00
1.262769168682181115e-02,-1.319207516981009062e-02,-9.806554621528475124e+00
2.400318638497736870e-02,-4.419340390081017561e-02,-9.804451682003746171e+00
3.205704699713085083e-04,8.865081898306351529e-03,-9.845699986098756185e+00
9.999939867857051204e-03,-3.409173731299808274e-02,-9.681290841540400649e+00
4.786975627055153198e-02,-6.676413877361419592e-03,-9.858993668436836444e+00
1.508147563103638851e-02,-9.675458638835308933e-03,-9.795164729482262800e+00
-4.082760102663066104e-02,3.730540991180632954e-02,-9.864300935006202309e+00
3.409927363464250981e-03,6.526954186467660846e-02,-9.867879556569006283e+00
-2.387785006630710125e-02,6.885292715989718357e-03,-9.752620514588469902e+00
6.495995273247484603e-02,4.314068926671345283e-02,-9.743794984045196728e+00
7.266154073788384793e-02,3.232160922645008205e-02,-9.826639890188426207e+00
6.695713883374139475e-02,-1.208270800610018909e-02,-9.679054146843204975e+00
-8.914163880963919817e-02,1.751313228932799282e-02,-9.678897224356301621e+00
3.504379416107348405e-02,2.896826610754711998e-02,-9.863666483406358765e+00
-8.878671737697768629e-02,-2.797300018702698898e-02,-9.856307089902527352e+00
-2.062602818329034235e-02,-6.148184419288002522e-02,-9.694938480865586072e+00
-1.403685284742144275e-02,2.832062065365226547e-02,-9.825019418998428122e+00
3.874046626956766364e-03,-1.069397845805272612e-01,-9.848802704959608079e+00
-3.358474145521762183e-02,-1.177118353758646076e-02,-9.730850665172040337e+00
3.158567598122594827e-02,1.867404583687545111e-02,-9.791082657246487742e+00
2.188645924201212435e-03,1.534714199364922878e-02,-9.805108988821853444e+00
4.886387607094742208e-02,-4.484190120112168526e-02,-9.643038056623387533e+00
1.071396207431027196e-02,-2.059766842466798434e-02,-9.822671328942178093e+00
2.871250102829770931e-02,2.358341744231494744e-02,-9.818289448192111024e+00
-3.542933332630170129e-02,1.126451938553330381e-02,-9.820735980384693420e+00
5.611375025446878155e-03,2.576222683863605561e-02,-9.761339648784710832e+00
3.777547408929343015e-02,1.434606803328711613e-02,-9.723926685945064818e+00
1.164340450753372502e-01,4.609520715643171396e-02,-9.630103471374383162e+00
-1.597074894785593599e-02,4.486651173434771239e-03,-9.887818550017053454e+00
-3.831123049216363097e-02,3.092677020435102841e-02,-9.906996853579826734e+00
-6.876681193576296425e-02,-6.174393862452868913e-03,-9.807819113082606677e+00
-1.152668932396975002e-02,-2.671080734004671955e-02,-9.752022047780615210e+00
-7.473249284130120684e-02,-4.771719826209753351e-02,-9.799900697954623041e+00
2.049284474018441687e-02,4.340093307136703993e-02,-9.643629834843977733e+00
-2.511220146594029395e-02,5.158576441726024642e-02,-9.733495352041931170e+00
-2.220734145548119640e-02,-6.305100083099001752e-03,-9.792946238525010116e+00
1.209965672536420650e-02,4.431749122523055001e-02,-9.813432456771364443e+00
-1.817717598858712910e-02,-5.470163949099120931e-02,-9.811366574208257418e+00
1.732043463735442879e-02,-1.389146968008968296e-03,-9.980506374518519408e+00
-5.005141871851691293e-02,-7.395713828573777238e-03,-9.837116272601091893e+00
2.556391838501245739e-02,2.146170236524632888e-02,-9.782043963849437418e+00
7.884468434089709002e-03,1.307580841019982849e-02,-9.796776958362931609e+00
-2.462396980879366648e-02,-2.779201207874469268e-02,-9.753966844377243817e+00
-3.246765260559645455e-02,-1.019366890276304088e-02,-9.799717436139493643e+00
3.495096821282680372e-02,7.188454088254783714e-02,-9.788319969926986275e+00
6.493576645220944243e-02,1.285579037365576216e-01,-9.790921186791905484e+00
5.059591666704629093e-02,1.588325159908421033e-02,-9.844825999340942602e+00
2.195068076854590419e-02,3.816357739252542597e-02,-9.707890956773249869e+00
-2.253118220543400343e-02,5.287602628539245925e-02,-9.728459019750751224e+00
1.072215708252776262e-01,-5.745404831407840973e-02,-9.781385746085209831e+00
-4.431380770948583486e-02,2.842540862333752666e-02,-9.838183989424544862e+00
-1.785936708420279850e-02,-3.488831726430480923e-02,-9.817949971680327792e+00
9.980881691019937926e-03,-5.508173103175070112e-02,-9.868974543397373012e+00
2.057480924511612477e-02,7.215671975126873583e-02,-9.804171542222906766e+00
3.071357469479898614e-02,-6.700950103309591573e-03,-9.786753980995316127e+00
2.054841714638736688e-02,-1.986729800667718510e-02,-9.803931054821354962e+00
5.035860344312864667e-02,-6.408231892485818926e-02,-9.821209291062185542e+00
-2.529669902215634855e-02,4.350163190423522730e-02,-9.784316752260005856e+00
3.989892142849282147e-02,-2.805578760003622427e-02,-9.723196683256444928e+00
-1.729611142413641986e-02,2.793425358916929932e-02,-9.882586239006078799e+00
8.546924047437941263e-02,6.753095206367920600e-02,-9.789448350402089716e+00
4.649000057382547853e-03,-2.311144475032806886e-02,-9.840492581260889438e+00
-3.368983859386210939e-03,-9.927483922660216425e-03,-9.703511037217101176e+00
-1.189628628039142780e-02,1.231630583818494815e-02,-9.739936482218462643e+00
1.576439078529587312e-02,-1.070380572022468224e-02,-9.798266951830754579e+00
1.003113836330025571e-01,-1.508110513980285561e-01,-9.827434943075791907e+00
-1.482209485172104706e-02,2.772067097811539704e-02,-9.776174756874395300e+00
-7.338158664272760590e-02,-2.593451547225335274e-02,-9.853572595750733853e+00
8.454438308811401681e-03,8.461947411397278268e-03,-9.751314399966700464e+00
-1.002196999312508600e-02,1.077194506898853515e-02,-9.752408550158621736e+00
-9.925246212057001194e-02,2.700464366442842032e-02,-9.789684336583022173e+00
1.599807164009310959e-02,-4.316254701436009894e-02,-9.786515989656320968e+00
-5.238503674525029838e-03,1.485964783158523830e-02,-9.875656008783193940e+00
5.184335872063634831e-02,-6.474851177102862454e-02,-9.775713003698516701e+00
9.239668028087569263e-02,-4.329054853710680162e-02,-9.683168838008738177e+00
-7.757585884590843806e-02,1.164419457574020211e-02,-9.759366042692361631e+00
-2.694007319004223730e-02,-1.385072075376696243e-02,-9.764343759195673655e+00
-1.975357290410865649e-02,-5.415367622182737546e-03,-9.798645320930722491e+00
-1.176744754873424240e-02,-3.085798254284767214e-02,-9.839560360235960701e+00
1.702748580031171813e-02,-6.465450710120873579e-02,-9.853002728423330581e+00
-6.744792606317326356e-02,-6.128196463422271034e-02,-9.851349147117046456e+00
-4.680264404565205594e-02,1.127291577696466068e-02,-9.839722692474085264e+00
-5.577107513080926254e-02,-5.003393757893064703e-02,-9.838724547911962048e+00
5.250053984607006702e-02,1.711386834464362697e-02,-9.802705180102599059e+00
-7.609425603153533585e-03,-7.268670266662752288e-03,-9.919552361725923362e+00
-9.472222839969828001e-02,-3.014850901005959941e-02,-9.840761473738048437e+00
-5.337449422004141887e-03,4.204028854256813830e-02,-9.751944404786319964e+00
8.390315866705838621e-02,5.144462978726363662e-03,-9.948350028751219654e+00
-1.588641692239125625e-03,-5.127133858280649020e-02,-9.727173615809979523e+00
3.154608937310138250e-02,-2.649452666697233588e-02,-9.749800918734763400e+00
7.549097451062135311e-02,-1.775114872393726215e-02,-9.846644966337569471e+00
8.382179334748721122e-02,-3.577018862536090332e-02,-9.793247538441685052e+00
3.360023549508354967e-02,4.910962217514119182e-03,-9.765240603446139644e+00
-7.912771214593231073e-03,3.797988459622962665e-02,-9.804517993088536443e+00
-2.976514098917598314e-02,3.921441345735754425e-02,-9.820418448100433295e+00
-7.665947254627086815e-02,8.017919224847817536e-03,-9.707574405340565704e+00
-6.008317388523044117e-02,-6.020724333025251340e-02,-9.723223621539608175e+00
3.534464807645389811e-02,1.626746003934264814e-02,-9.809463034297786876e+00
-2.508688363926338954e-02,-1.732383001566902697e-02,-9.886925275833663207e+00
9.936062289937260816e-01,2.379176356361128748e-03,-9.687412438769126055e+00
1.119623550773890308e+00,-3.379594853405457761e-02,-9.883110883660204848e+00
1.014748777041089456e+00,4.532940379349142263e-02,-9.752828625336798396e+00
9.302833035293338604e-01,1.589875717704188757e-02,-9.894640972986568528e+00
9.760921131894754188e-01,1.841612611736920604e-02,-9.791573576487042629e+00
9.686504080867304189e-01,-1.882856251829622546e-02,-9.837323850257860158e+00
1.022641120956822469e+00,9.648687783876369606e-03,-9.807032212971829921e+00
9.655483813038789886e-01,4.132427385021441094e-03,-9.932045441193826818e+00
9.735198140157786950e-01,-4.280638770189960224e-02,-9.834661259283938861e+00
9.899404651469865257e-01,-5.975643638171824340e-02,-9.769540800132384462e+00
1.096448517562432556e+00,-1.555910552525811494e-02,-9.765165969317386896e+00
1.081625649598907613e+00,-3.594761578397750318e-02,-9.765974321849956397e+00
1.068627391972501117e+00,-1.101748031845459566e-02,-9.913137009585005543e+00
9.894436569631487322e-01,-2.367338175845650622e-03,-9.846452767781268989e+00
1.075439670658649760e+00,-5.202005721331778160e-02,-9.724124783973902453e+00
1.010177741233897031e+00,-2.151470910918532389e-02,-9.840472888143017016e+00
1.074882439286988678e+00,-3.928126369226678932e-02,-9.762551403716875242e+00
1.087310445736646480e+00,1.292354283436732143e-02,-9.802881891451953322e+00
1.047234295238789636e+00,-5.578635833797807725e-02,-9.690384742697641940e+00
1.077931751615859302e+00,-9.225692373580431094e-03,-9.758893734430390765e+00
1.085716095166931128e+00,-9.072300666242635869e-02,-9.942834912903478539e+00
1.156284423088823399e+00,-4.774109775044787368e-02,-9.805555855284994848e+00
1.095787948458593064e+00,-2.188293115448030485e-02,-9.930025789945116088e+00
1.136103698838434095e+00,-4.050660724513110988e-02,-9.748882315124912878e+00
1.072338132416531753e+00,-7.005166194460846207e-02,-9.858559538582792214e+00
1.069103109399695883e+00,-6.757181283587938847e-02,-9.834562163714076988e+00
1.136040376756854098e+00,-1.015840562476337805e-01,-9.840899730850960481e+00
1.072327228775297181e+00,-1.771362468366919490e-02,-9.772013477474112975e+00
1.121494150123627964e+00,-7.460270008463822100e-02,-9.783101695224594607e+00
1.215398670341288900e+00,-8.973863265012060886e-02,-9.901239590393783985e+00
1.166136083219267761e+00,-8.769150637958354755e-02,-9.849388954352091829e+00
1.139782598127967006e+00,-4.985595837262849633e-02,-9.820033430041428701e+00
1.182838721243024693e+00,-1.916114780281206187e-01,-9.917805942401766828e+00
1.214390274351858645e+00,-1.493799313633865644e-01,-9.772900834409300685e+00
1.145943651687309384e+00,-6.496193115318597833e-02,-9.834869611829185843e+00
1.184593071283130072e+00,-7.367168956505340538e-02,-9.784345463729266612e+00
1.211068448244435158e+00,-6.144965155202126994e-02,-9.874722800076311202e+00
1.251054464001753130e+00,-1.242229834142481032e-01,-9.787902201889952636e+00
1.307783867814289458e+00,-1.238946615876339308e-01,-9.649987946573306274e+00
1.164794717704507931e+00,-5.278283037728802307e-02,-9.763856730948576867e+00
1.172939985730202750e+00,-1.321881498028165958e-01,-9.898692828179720848e+00
1.261607317081810953e+00,-1.665075508158740947e-01,-9.712498148895841510e+00
1.291602971813293310e+00,-1.836528698323277864e-01,-9.854244644136713305e+00
1.209938077872927176e+00,-1.218352112754439442e-01,-9.840786281242181133e+00
1.241703019200472768e+00,-1.073999959992926467e-01,-9.881838155880982910e+00
1.298001435371913814e+00,-1.230505688133174680e-01,-9.863310346514127858e+00
1.307588554601628372e+00,-2.233992507018896512e-01,-9.824909022193944352e+00
1.371110839540380821e+00,-6.877246495156301431e-02,-9.835532892396722460e+00
1.238977580001626499e+00,-1.456565894138349138e-01,-9.827864889244384727e+00
1.296737861070979214e+00,-2.012581598635753977e-01,-9.922927209570206131e+00
1.358883353127890770e+00,-1.977609547215066765e-01,-9.780324340604099831e+00
1.266924067330595705e+00,-1.420906026262348798e-01,-9.770786494884811546e+00
1.352262263520578767e+00,-1.646085297891236310e-01,-9.839427241916753886e+00
1.358185086303768774e+00,-1.353013588334678885e-01,-9.794349430621760888e+00
1.434781414204513883e+00,-1.634354132226867873e-01,-9.702160106320363298e+00
1.397377354333479760e+00,-1.550592012162050892e-01,-9.729038683768994389e+00
1.358729002105850237e+00,-1.707976163956024529e-01,-9.775043701537487806e+00
1.444766795491789324e+00,-2.169039812115448329e-01,-9.934673766373968817e+00
1.427542482687416570e+00,-1.746608534471001117e-01,-9.830174820213279929e+00
1.308541870338008950e+00,-1.772625658275684413e-01,-9.800971610688039348e+00
1.358258585981107158e+00,-2.858991929516081498e-01,-9.786634104832423020e+00
1.339933504583611601e+00,-2.182053885462464093e-01,-9.763082166994582423e+00
1.299245497580774122e+00,-2.200500072917421779e-01,-9.788452059669715766e+00
1.395911518951049146e+00,-2.049253224863186729e-01,-9.926918328664317670e+00
1.434025968663699357e+00,-1.382008375206772999e-01,-9.802517492157100776e+00
1.357944403148643620e+00,-2.726787043889343232e-01,-9.837541877577834271e+00
1.456506220495782378e+00,-2.106476907416011402e-01,-9.854675295354885733e+00
1.430434807261730112e+00,-2.349545687012575546e-01,-9.790329930710527151e+00
1.501901943348013413e+00,-2.109089674921497681e-01,-9.857487486295619661e+00
1.470819217193759076e+00,-2.130228958955903418e-01,-9.855931812083417398e+00
1.453065764712282881e+00,-2.110897645682108248e-01,-9.929124542110278284e+00
1.467621409617935413e+00,-2.525669430826591455e-01,-9.814487095157090835e+00
1.502241162393267215e+00,-2.562485757980241252e-01,-9.810162208053874622e+00
1.445457509327569889e+00,-2.920518713784634457e-01,-9.858838301885587185e+00
1.475356324314630374e+00,-2.768980260042150920e-01,-9.821415110235305335e+00
1.542820037194124749e+00,-3.593296426640096297e-01,-9.781208595696677222e+00
1.601689278946508255e+00,-2.233976256058489429e-01,-9.865390708864575586e+00
1.445407199661147279e+00,-2.381698259064542744e-01,-9.919915041433139180e+00
1.532796535337096255e+00,-2.747278969092291079e-01,-9.834708405626120253e+00
1.455699607178026156e+00,-2.127055816505573071e-01,-9.938484333379618008e+00
1.470465487153966855e+00,-3.233759603486008882e-01,-9.762004086878276254e+00
1.587132141896736348e+00,-2.619888891326296321e-01,-9.784932926886343196e+00
1.576412169220345216e+00,-2.792678355964544057e-01,-9.830764901311866311e+00
1.494652416000004314e+00,-3.361327657982874917e-01,-9.838523356151231525e+00
1.514687651386254164e+00,-2.203086391488983387e-01,-9.839368584249493566e+00
1.499850261253833805e+00,-2.454276879234416064e-01,-9.821738324863243719e+00
1.538836614283251913e+00,-2.243110035225999166e-01,-9.756321940285758387e+00
1.521500102759779649e+00,-3.331766105831476255e-01,-9.792161489348627512e+00
1.587298731285744724e+00,-2.086178199698379698e-01,-9.826564261363607500e+00
1.595187592039239988e+00,-3.152628858442130810e-01,-9.983934937128559284e+00
1.572043289262022636e+00,-3.562042652133372567e-01,-9.822887358800452162e+00
1.552962759929426895e+00,-3.258577697865403522e-01,-9.849619575542932992e+00
1.592978640042116645e+00,-2.730462022807355615e-01,-9.791380857864881548e+00
1.525777891756955551e+00,-3.151611978030472994e-01,-9.777071290825563921e+00
1.649182331384585698e+00,-3.561824009416842962e-01,-9.721420342305759021e+00
1.650502923036206271e+00,-3.309738530293792613e-01,-9.813045299202173055e+00
1.646472691664907062e+00,-2.895425024982774542e-01,-9.788653752692786369e+00
1.640988717703733224e+00,-3.042418660502511085e-01,-9.777685387188677524e+00
1.670433825792452254e+00,-2.786080497970236936e-01,-9.884837550174005116e+00
1.656491434840856813e+00,-3.435094083706861645e-01,-9.817987004141491170e+00
1.644310813815142547e+00,-3.144574018943550042e-01,-9.873849495960003608e+00
1.607270776105849786e+00,-3.152750690638526088e-01,-9.741897277928607934e+00
1.657933836571798381e+00,-3.610305538842286111e-01,-9.780189047393577084e+00
1.667980572124862171e+00,-3.356889900943834104e-01,-9.854833061727733323e+00
1.655416089569023974e+00,-3.011479814898013196e-01,-9.793976858493362414e+00
1.616071063498166094e+00,-4.146759139277653716e-01,-9.910629134264485884e+00
1.596680150723832625e+00,-3.719800488156874696e-01,-9.912665936231372044e+00
1.687857390328054930e+00,-2.515756269290680969e-01,-9.802269451839366710e+00
1.690819420902650805e+00,-3.385547159988954724e-01,-9.718164556517610464e+00
1.610034046927108164e+00,-3.184170205132543785e-01,-9.706354158784799679e+00
1.639532491886127819e+00,-2.953497042401150297e-01,-9.760246710620920751e+00
1.634973404032281863e+00,-3.948074513065952251e-01,-9.980064617060625309e+00
1.691587523842180696e+00,-3.599679323694545685e-01,-9.776898189928092009e+00
1.737808312093197305e+00,-3.185761041491420587e-01,-9.833098512139272884e+00
1.776381209601045619e+00,-3.573039956089892333e-01,-9.831214717726487251e+00
1.728362219951869561e+00,-4.218485879488980683e-01,-9.802292707521203852e+00
1.742762587471731406e+00,-4.310670851586401731e-01,-9.761135745266647845e+00
1.719458752343133723e+00,-3.558459064101665015e-01,-9.763884449022725676e+00
1.757651720435158715e+00,-3.340314357442284443e-01,-9.786917474007777784e+00
1.850425333946067230e+00,-3.624942687281289544e-01,-9.746322439571956764e+00
1.739871351808215616e+00,-3.110643531358982528e-01,-9.889107273794927266e+00
1.659212882149405655e+00,-3.790760149887057451e-01,-9.765472048120582116e+00
1.762479175590250913e+00,-3.925363192235006293e-01,-9.869422968465110912e+00
1.759698313700295058e+00,-3.317014340494001123e-01,-9.834252431999988886e+00
1.726885608798887750e+00,-3.317803531327346844e-01,-9.754411237375395061e+00
1.715122295967797195e+00,-4.154616986751005214e-01,-9.915020497245635056e+00
1.837381085852694440e+00,-4.706798137308944585e-01,-9.840202113584922472e+00
1.795383625962083896e+00,-3.082867400705995298e-01,-9.854960541468441804e+00
1.783827120715744119e+00,-4.173421280947829937e-01,-9.736219205504582419e+00
1.855138587048233312e+00,-4.203852915757497200e-01,-9.819904949697011887e+00
1.833924167000460903e+00,-3.822428237210759305e-01,-9.814258383215431536e+00
1.828354942627411939e+00,-3.993798037032396664e-01,-9.873091572477033395e+00
1.780362938771786085e+00,-4.546888791917895190e-01,-9.875448962332621150e+00
1.800276620589886134e+00,-3.348825675160412851e-01,-9.856892437863377765e+00
1.873335034306104152e+00,-3.985592597016310856e-01,-9.807766775445717400e+00
1.787093229672465089e+00,-4.373571902140834800e-01,-9.818620816783306893e+00
1.798570020903183853e+00,-4.197250022152266280e-01,-9.816510832084251348e+00
1.821251553279500168e+00,-4.770846679818079861e-01,-9.700107001353378777e+00
1.825667914050558505e+00,-4.051224750659609408e-01,-9.829942032874509295e+00
1.827410059362119643e+00,-4.864906690941073197e-01,-9.852806065755300935e+00
1.793073366583654016e+00,-4.156268080551891453e-01,-9.758298998739659780e+00
1.942030790790745920e+00,-4.010103342288855455e-01,-9.813406658044396380e+00
1.797227560365162846e+00,-4.522679569175774850e-01,-9.692496895959159531e+00
1.851862739136452163e+00,-4.641772643245336560e-01,-9.775319063408268505e+00
1.866322618589941085e+00,-4.275291947946112669e-01,-9.615730508501970419e+00
1.820741826522567219e+00,-4.377531744279558601e-01,-9.822500711602881296e+00
1.868378557056582734e+00,-5.005017859781509815e-01,-9.879558252332234503e+00
1.918292422148109466e+00,-4.305799613405342785e-01,-9.799406368070615159e+00
1.812256475092800301e+00,-5.019450189291673192e-01,-9.837804932845946482e+00
1.836336623563278092e+00,-4.002287665852951037e-01,-9.838748761339864757e+00
1.918727163574937888e+00,-4.097954771532330565e-01,-9.839424024794020340e+00
1.874049971547050664e+00,-5.332559412213857541e-01,-9.754668562262033049e+00
1.848463766441914791e+00,-4.266204569140457092e-01,-9.703021310879991645e+00
1.879350948385320352e+00,-4.956973615731846694e-01,-9.818720114344637651e+00
1.839277835801742977e+00,-4.445045543577433311e-01,-9.794568381514793032e+00
1.817975050930339398e+00,-4.699562297607054462e-01,-9.858976253589817773e+00
1.910444989036988117e+00,-5.002719701483009374e-01,-9.803400030048559088e+00
1.865125979737034312e+00,-4.654445758973378422e-01,-9.761782556028835600e+00
1.938097234280200309e+00,-4.262667545390675383e-01,-9.980310859167774495e+00
1.967958355749926724e+00,-4.718464272132108506e-01,-9.849804147266281618e+00
1.887304322753956098e+00,-4.794266824645377345e-01,-9.770966310389644249e+00
1.964715987379399786e+00,-4.743309597651740317e-01,-9.857714163205784530e+00
1.994065568021465396e+00,-5.095105006034921225e-01,-9.692846769734254408e+00
1.965155797855036690e+00,-5.117972802352627193e-01,-9.821180057358278148e+00
1.909155834837497068e+00,-4.313426609393741784e-01,-9.851889268755622098e+00
2.003500212360329158e+00,-4.274053832669545416e-01,-9.802262550092100568e+00
1.926673232417108084e+00,-4.790570112655641588e-01,-9.896599576052667047e+00
1.972165018039310214e+00,-5.266165715081907450e-01,-9.733207198771991031e+00
1.973988097523425855e+00,-4.515785777926718536e-01,-9.717855379017937167e+00
1.932144731108719649e+00,-5.133310538258606393e-01,-9.807670905199760369e+00
1.977374691440190624e+00,-4.814783314398636827e-01,-9.901770609760291109e+00
1.939856512735469884e+00,-4.970730060368289682e-01,-9.736177965676972690e+00
1.984350420047164665e+00,-5.431561318098949709e-01,-9.806315821328917437e+00
1.993313041983395095e+00,-4.738010269095222493e-01,-9.736915401415341620e+00
2.009655778110996494e+00,-4.554840547020916897e-01,-1.001519767519996051e+01
2.025421459152799919e+00,-5.783108574624503673e-01,-9.721847098706902557e+00
1.969700450632718036e+00,-3.874812254487475793e-01,-9.770789459651240350e+00
2.006667047063190878e+00,-4.905130035760483787e-01,-9.917960508869755998e+00
1.998674243623707270e+00,-4.776829846804909740e-01,-9.771390739361448752e+00
1.983786417647519951e+00,-5.327763393709817885e-01,-9.663369896841729201e+00
2.044676413150089189e+00,-4.616173292857439492e-01,-9.825948484565870444e+00
1.970770840182317629e+00,-5.160631240803853492e-01,-9.752350570789642958e+00
2.057235560915966044e+00,-5.207357742384287613e-01,-9.731639037738091247e+00
1.978275487143677625e+00,-5.182361035922287140e-01,-9.822381083479832853e+00
2.045477707200115347e+00,-5.640093490854328762e-01,-9.834771117785320982e+00
1.975270236378263489e+00,-4.890247954923570006e-01,-9.662684659602966519e+00
2.039628441966352845e+00,-4.870598153438753242e-01,-9.857935991148336186e+00
2.074362635219808570e+00,-5.166340302543782625e-01,-9.860002667352883776e+00
2.021549209244772438e+00,-5.314669307184954894e-01,-9.799147278688728591e+00
1.948114812093554082e+00,-5.418951874576485306e-01,-9.770654427972260692e+00
1.945533959872457253e+00,-5.746707844261453868e-01,-9.811488216776689697e+00
2.060184562758634375e+00,-5.054137442414678993e-01,-9.773379975323912561e+00
2.045633806466965687e+00,-4.925297330003270968e-01,-9.725296667037929055e+00
2.049646956275593901e+00,-5.488423878406859524e-01,-9.840649131723768761e+00
2.058064268833975419e+00,-5.701842073061426097e-01,-9.818472595977283390e+00
2.087145408455621354e+00,-5.299243705605278798e-01,-9.800216519024271378e+00
2.031041706172455719e+00,-5.469011431505983456e-01,-9.918257620723903045e+00
2.108316339442150689e+00,-5.121378982548179248e-01,-9.713703979134541200e+00
1.987630560272805047e+00,-4.978476409503768130e-01,-9.786346081782609119e+00
2.085658905510971106e+00,-5.236790194138580823e-01,-9.813845647390929017e+00
2.026122413777799114e+00,-5.219606245231155350e-01,-9.727055660344211319e+00
2.058273959798369912e+00,-5.628804711452150000e-01,-9.830331063151115600e+00
2.005386557451538820e+00,-5.167012677064697357e-01,-9.865573831228838131e+00
2.085912606494743748e+00,-5.524739007225377696e-01,-9.745507150504263194e+00
2.099065576520050325e+00,-5.187555300214731213e-01,-9.698050093036659547e+00
2.126471177825851377e+00,-4.862409638822064450e-01,-9.714203344008549124e+00
2.068975743251646460e+00,-6.129736532542814365e-01,-9.734989617359525838e+00
2.030836515476795778e+00,-5.568898484033634189e-01,-9.690113315686499362e+00
2.159759443801330558e+00,-5.408821967631504135e-01,-9.737844012729008014e+00
2.086228586614469638e+00,-6.675926540919566721e-01,-9.726340918504423172e+00
2.135453980775231297e+00,-5.209283563117478311e-01,-9.842042261020964133e+00
2.195621014931193216e+00,-5.801720905113458837e-01,-9.736729169282648755e+00
2.094945080476621424e+00,-6.172846082883928220e-01,-9.819506434932280925e+00
2.091112274781445457e+00,-5.516989962925533675e-01,-9.799383772835136952e+00
2.124766847245102674e+00,-5.490822195867987032e-01,-9.776430727029778112e+00
2.104135773094971906e+00,-5.569148890495647652e-01,-9.813829583872317741e+00
2.064057882470844429e+00,-5.910174094337548034e-01,-9.804963662909340627e+00
2.150641292724156717e+00,-5.719946573492317166e-01,-9.850788104676395207e+00
2.173515408642511471e+00,-5.898460336305323404e-01,-9.777628660574119834e+00
2.054979450315052247e+00,-6.514652835395235986e-01,-9.801617895701561167e+00
2.085820128523194317e+00,-5.461765601176148399e-01,-9.840687671691089378e+00
2.125004439347740526e+00,-5.937084741553912970e-01,-9.887844765468084773e+00
2.138167292122115981e+00,-5.345901180657912644e-01,-9.659393656102945869e+00
2.140647987933605112e+00,-5.620229424221889758e-01,-9.745467975459968457e+00
2.146080877117699792e+00,-5.204363749398298600e-01,-9.632051012439951876e+00
2.123576875318697876e+00,-5.221890084738559645e-01,-9.868929414601028682e+00
2.196573554447299959e+00,-5.697787056594205701e-01,-9.778778724592513072e+00
2.170471460250736229e+00,-5.639071198735456925e-01,-9.762144434393258408e+00
2.154717276975340656e+00,-5.876371188401251500e-01,-9.892267024522183760e+00
2.165362066079771886e+00,-5.202651560267851361e-01,-9.758514099834659561e+00
2.181197207299564678e+00,-5.334063141305203093e-01,-9.710968288432468398e+00
2.207778150128853145e+00,-5.863754508555036882e-01,-9.738744253787125160e+00
2.162296223379501559e+00,-6.011728672476889246e-01,-9.765354445628547708e+00
2.171443215156806161e+00,-4.778240200705820562e-01,-9.801625292960141067e+00
2.236878703879534136e+00,-5.810135225987197449e-01,-9.851529096978074662e+00
2.226752234726845803e+00,-6.135607533487056342e-01,-9.902166965182908953e+00
2.112414042265644110e+00,-6.068316777452553712e-01,-9.783496443498304274e+00
2.213263015553192936e+00,-6.063452225782431926e-01,-9.884557883011348522e+00
2.143771923768461374e+00,-5.384924540883270216e-01,-9.714931654027529007e+00
2.188430914626136925e+00,-6.247459472558203331e-01,-9.674041957247013102e+00
2.245092737884823553e+00,-6.290376358546130309e-01,-9.943358938751746479e+00
2.151514146229515312e+00,-5.402792804607359223e-01,-9.704520842451334062e+00
2.144453003314763961e+00,-6.234366505755589705e-01,-9.792941906547222075e+00
2.180989274420856994e+00,-5.766944460263361272e-01,-9.844115129813726384e+00
2.158481026907399070e+00,-6.280196487168573372e-01,-9.692867641220363595e+00
2.187292116456210689e+00,-6.225529743065443267e-01,-9.767610444275193871e+00
2.198391529178891357e+00,-6.044985274317788981e-01,-9.836891402217201374e+00
2.228889668143378966e+00,-6.297909148887017583e-01,-9.678266830064970350e+00
2.119760340838984458e+00,-5.652618011490810890e-01,-9.707815819335793961e+00
2.212759958038578390e+00,-5.747963567390770301e-01,-9.739548981081703971e+00
2.163232819580197308e+00,-7.057068293420033500e-01,-9.673594165462242600e+00
2.218234126197141887e+00,-6.154620325727930830e-01,-9.768242596644538978e+00
2.131909253919477720e+00,-5.825994099488539524e-01,-9.820100245053565047e+00
2.183368832865372422e+00,-5.941811237152849756e-01,-9.799730203117782423e+00
2.182729854099499267e+00,-5.832186162884893665e-01,-9.717885852157781557e+00
2.242559622684953791e+00,-5.196707440478793849e-01,-9.752942482471812724e+00
2.245209252449535953e+00,-6.010080035358996708e-01,-9.738765852360488751e+00
2.222369493504073201e+00,-6.072272212024621973e-01,-9.784431177307604699e+00
2.339875507376544483e+00,-6.664691589134169591e-01,-9.635716852148597411e+00
2.198421308071243807e+00,-6.550548996656085921e-01,-9.730148156776019519e+00
2.283764779313042226e+00,-6.983517855906016258e-01,-9.829391371151615431e+00
2.265500401817165610e+00,-6.109196017179270299e-01,-9.787576313923837645e+00
2.295892182546920957e+00,-6.445850822475571729e-01,-9.766492973984790993e+00
2.238980538843380330e+00,-7.041651753034935401e-01,-9.689190841508612095e+00
2.262352297966658377e+00,-6.355262505569201359e-01,-9.768569413940793922e+00
2.183955101658285436e+00,-6.747378933654842870e-01,-9.703573198709520398e+00
2.273019662664661045e+00,-6.192064328862877387e-01,-9.808475462221945662e+00
2.287182457988615525e+00,-6.417804032638787515e-01,-9.871764688012317990e+00
2.241564119810169675e+00,-6.456272537653654497e-01,-9.689114240267469924e+00
2.256933658123568609e+00,-6.449424976242695839e-01,-9.735629176854631694e+00
2.190255334186786751e+00,-5.888594458932134845e-01,-9.679731006693314654e+00
2.233704452920262540e+00,-6.102499792970890180e-01,-9.755160577870400473e+00
2.239689204514095255e+00,-6.412723677520829613e-01,-9.770489273033474475e+00
2.206480859930811000e+00,-5.911874076042374915e-01,-9.768952690579979503e+00
2.357924474085653976e+00,-6.851373627575758629e-01,-9.758208165899855402e+00
2.289950247481983503e+00,-6.221241231980021436e-01,-9.710941011873281070e+00
2.357068428540451954e+00,-6.708855796930721649e-01,-9.736123665028438623e+00
2.246048723355974275e+00,-5.856343276251759766e-01,-9.733042551908146933e+00
2.285356849528676904e+00,-6.303617009426395468e-01,-9.738068167768556549e+00
2.230675449926545539e+00,-6.177813519847766832e-01,-9.679342836790691962e+00
2.264589636161916886e+00,-6.232512435636876624e-01,-9.964930457079482551e+00
2.295896605313420658e+00,-6.841864110041359082e-01,-9.739535893860608695e+00
2.187280067426371488e+00,-6.715586971097765590e-01,-9.765651602809288789e+00
2.295435933793597005e+00,-6.070678860350855466e-01,-9.716195109388316098e+00
2.332586320136428970e+00,-6.615440363817950420e-01,-9.800256986707255535e+00
2.264841142487028947e+00,-6.736739300260925489e-01,-9.637609168329895226e+00
2.292491259641703305e+00,-6.664921117806499318e-01,-9.740427899506830300e+00
2.255589544437948124e+00,-5.673130884152591813e-01,-9.689100033628159636e+00
2.272624712189876384e+00,-6.862524318985150362e-01,-9.705814898335264118e+00
2.266241616221665645e+00,-7.297701767206419277e-01,-9.709344280839060204e+00
2.320957097282734249e+00,-7.073708688058409910e-01,-9.834165443971867759e+00
2.352716604173362036e+00,-6.830336045088197805e-01,-9.789335774029368054e+00
2.359791882305517952e+00,-5.724415754694240910e-01,-9.725539351845089442e+00
2.380393420906637747e+00,-6.853206979005540544e-01,-9.685242329879633516e+00
2.302209155190165113e+00,-6.501352271943774408e-01,-9.714710860463025455e+00
2.331097661483562344e+00,-6.123725744190361420e-01,-9.714997545248898803e+00
2.316745025621217646e+00,-6.854904024586406797e-01,-9.597631294573746530e+00
2.307479972509737909e+00,-6.574523490547958815e-01,-9.757790107698379956e+00
2.365113692704809978e+00,-6.658061260426699768e-01,-9.772114930450053194e+00
2.310550553862162459e+00,-7.434679079620714059e-01,-9.707444484784053529e+00
2.401133733372424750e+00,-6.246711076005274643e-01,-9.731205776703802712e+00
2.288228398334313241e+00,-6.556027754105510086e-01,-9.795696477681122616e+00
2.280758704055362518e+00,-6.309415974010319506e-01,-9.865524737093815943e+00
2.287200645497468265e+00,-6.473822560633003542e-01,-9.812238306643726204e+00
2.280028900295195449e+00,-6.605432232046829499e-01,-9.702657197484040097e+00
2.246140906082985111e+00,-6.007733689739855887e-01,-9.740402784297533145e+00
2.376630740903745043e+00,-6.515022187867030024e-01,-9.720623432033239197e+00
2.332047083248534936e+00,-6.208074446957123627e-01,-9.656495144844265965e+00
2.411210637284892044e+00,-5.815334827532477879e-01,-9.727594161060228117e+00
2.266677386925854965e+00,-7.538399819885812647e-01,-9.675229537801373070e+00
2.360641050504120209e+00,-5.522502989823815378e-01,-9.788612875497905819e+00
2.356885719628261988e+00,-7.286768711572130242e-01,-9.663323954269277039e+00
2.277378554508699082e+00,-6.515476828471876702e-01,-9.703723869780841227e+00
2.366355697869314323e+00,-6.687458825725451916e-01,-9.645041879603583723e+00
2.345080073287695299e+00,-6.740373609793673948e-01,-9.728117843319143532e+00
2.282327052305372916e+00,-7.663708002986865386e-01,-9.840570542105336216e+00
2.332362071443010887e+00,-6.454621993135142288e-01,-9.645768161982584132e+00
2.393653460558772039e+00,-7.252271103758131110e-01,-9.643668558583646799e+00
2.399739446509667751e+00,-6.756542792104793804e-01,-9.703856482744326328e+00
2.318557789600456776e+00,-6.427279349155907706e-01,-9.760395284363317714e+00
2.385118683800769190e+00,-7.236590845588886101e-01,-9.688983582273568373e+00
2.428463182952655508e+00,-7.272588391858537671e-01,-9.796181469506917594e+00
2.379015633163828358e+00,-7.127655586641730157e-01,-9.606348954820679964e+00
2.505304070532845540e+00,-6.530896278717298609e-01,-9.725457789885528115e+00
2.408867699443677513e+00,-7.367970031847206336e-01,-9.765378206413913631e+00
2.343850384187321279e+00,-6.930296829414821502e-01,-9.659663817844432288e+00
2.331794027788518076e+00,-6.396152520565800970e-01,-9.744729931933644451e+00
2.340123964268471912e+00,-6.692258065192935312e-01,-9.674629657600524624e+00
2.447167975942436069e+00,-7.530270227602814392e-01,-9.804557498473963406e+00
2.348509458097003400e+00,-6.721349479986711284e-01,-9.659631584439164698e+00
2.328491342803833852e+00,-7.227861908594080953e-01,-9.800020844485214155e+00
2.400643558666911037e+00,-6.609225358620502977e-01,-9.778998149334578116e+00
2.347713433664639471e+00,-7.300190292318124996e-01,-9.761114042634053689e+00
2.452165227051948726e+00,-6.954679610323052374e-01,-9.810584635916747231e+00
2.384249155671952725e+00,-6.676031405470121971e-01,-9.638248079573466853e+00
2.342298507030465160e+00,-6.951029877897676457e-01,-9.724725080126047416e+00
2.451871855528961142e+00,-7.271997700394124964e-01,-9.695800420614075321e+00
2.395988465438544601e+00,-6.931733726847317811e-01,-9.763724317023426025e+00
2.402323452685056981e+00,-6.556288905018861080e-01,-9.743783855386498161e+00
2.409138771665974676e+00,-6.545747705753097723e-01,-9.611134999934547452e+00
2.453860958188406105e+00,-7.012885515939389913e-01,-9.659056997715364190e+00
2.437133226724358170e+00,-6.697866157307480472e-01,-9.732580258934079964e+00
2.454261101300874159e+00,-7.519342661806239780e-01,-9.752855764607929245e+00
2.403122971130067675e+00,-7.291930745218343501e-01,-9.720688176139406167e+00
2.345944021412328606e+00,-6.324275492226610895e-01,-9.701078421373408034e+00
2.380591386608024163e+00,-6.914340778680393429e-01,-9.678952364253895269e+00
2.406834026901557344e+00,-7.310589552304440630e-01,-9.803662481999968037e+00
2.387252540493314257e+00,-7.614777816829811918e-01,-9.698798001249066658e+00
2.417457915824280157e+00,-7.224985553169960273e-01,-9.798307427424200355e+00
2.397714379269077156e+00,-7.167030951582521459e-01,-9.662769644300146510e+00
2.387630044533208373e+00,-6.281053016887759854e-01,-9.648121201684665138e+00
2.399005340402551312e+00,-6.862494613894752904e-01,-9.701653379030240387e+00
2.385501535020631891e+00,-7.616527350287531917e-01,-9.648319596212457938e+00
2.369898244942317156e+00,-6.727282682573757500e-01,-9.790259103375666072e+00
2.482850893273552906e+00,-7.690928542199511053e-01,-9.675179113904263772e+00
2.336310094050340513e+00,-7.494870579795365195e-01,-9.640297304052429794e+00
2.498937173673645873e+00,-6.594635928834683414e-01,-9.717931339658349543e+00
2.417801830680434083e+00,-6.950862584305231850e-01,-9.751452718649286311e+00
2.447714287627902330e+00,-6.661853733139312395e-01,-9.653470477263143223e+00
2.496218822897311451e+00,-7.039635120414793334e-01,-9.755289848476413894e+00
2.416904790902958400e+00,-6.587200182318523334e-01,-9.803219185858800699e+00
2.411667995650939034e+00,-7.918080654532205775e-01,-9.703851366153580571e+00
2.349294677680193733e+00,-6.088550646199109018e-01,-9.755324728284636038e+00
2.471583833546326936e+00,-7.024162298467166998e-01,-9.731861357202509666e+00
2.488815841146639674e+00,-6.964567846431669595e-01,-9.763548332004896579e+00
2.500497044418185766e+00,-7.166793931801593853e-01,-9.741483187585432191e+00
2.354768295232921194e+00,-6.758018394425669984e-01,-9.740378901119967736e+00
2.450366676426307233e+00,-7.214329431775041712e-01,-9.678521902491564077e+00
2.479911637880614972e+00,-7.551494435976435771e-01,-9.695480051170209279e+00
2.426387617518436013e+00,-7.204783406161773263e-01,-9.791738989870006904e+00
2.403991307311438508e+00,-7.782631023691253258e-01,-9.721497893454486672e+00
2.417922386978681004e+00,-6.989023661693365419e-01,-9.704758448324652065e+00
2.433371193483806927e+00,-8.133211947273675246e-01,-9.634625501563652605e+00
2.428815360801361400e+00,-7.053887013125780259e-01,-9.813860221450568133e+00
2.439871102336707231e+00,-7.212189297304101299e-01,-9.650274033715325217e+00
2.481225741234696525e+00,-7.601532866776314901e-01,-9.737288899484777716e+00
2.462948188539725525e+00,-7.032187315944328221e-01,-9.580691563220211648e+00
2.426586925301153386e+00,-7.392985643992677769e-01,-9.758646646575646955e+00
2.457180005946163259e+00,-7.020252533641246906e-01,-9.708634680304617959e+00
2.441778684105915698e+00,-7.041417086238344059e-01,-9.802651943733447837e+00
2.462120322520602311e+00,-7.606296498767783909e-01,-9.617911914346676028e+00
2.516266748159075473e+00,-6.704536386288281191e-01,-9.730554394866638646e+00
2.460327842211975646e+00,-6.356813129294471842e-01,-9.678592471488132176e+00
2.459099888222040953e+00,-7.386485744633851658e-01,-9.646311043786969464e+00
2.486732914166573050e+00,-7.903439774594701595e-01,-9.636067012568714674e+00
2.445589745805941462e+00,-7.250662827712200942e-01,-9.746703016334972602e+00
2.469661525428788806e+00,-7.323385796909765988e-01,-9.666346244851593994e+00
2.512681088568596621e+00,-6.977825676183223580e-01,-9.580698218030637037e+00
2.414181915053565497e+00,-6.157270651930801808e-01,-9.656521120715643391e+00
2.463902908645194234e+00,-6.996740123744953355e-01,-9.662937619143958656e+00
2.529266020504712387e+00,-6.808284458043455389e-01,-9.763292151694990650e+00
2.438485210997265451e+00,-7.419281604234804206e-01,-9.721299064464643536e+00
2.455138196230219449e+00,-7.898798020915146489e-01,-9.687889348773030207e+00
2.501940376782644915e+00,-7.266026978867283770e-01,-9.695676137299344077e+00
2.547588973009400792e+00,-7.374221278327889317e-01,-9.701213142740074957e+00
2.436211598406602175e+00,-7.254783477109112422e-01,-9.610619076603290623e+00
2.536356293525533712e+00,-7.609931982453603805e-01,-9.675416687612498734e+00
2.461908297754836106e+00,-7.444335025737921496e-01,-9.583471803170430903e+00
2.461517448217310555e+00,-7.616826094769598710e-01,-9.755145831924950883e+00
2.520563705015146372e+00,-7.417425758064511987e-01,-9.729931949877540731e+00
2.521928152084831343e+00,-7.713241997120783289e-01,-9.671995006428932840e+00
2.481185751512492210e+00,-7.740045035370269888e-01,-9.676641406859806338e+00
2.496128029723490016e+00,-7.578463743427974464e-01,-9.794110504307006693e+00
2.428149320439666248e+00,-8.028747777708806765e-01,-9.671528276003240165e+00
2.471910619397987396e+00,-7.563338171192643955e-01,-9.674563436791931537e+00
2.543541557578325563e+00,-7.167933365339276275e-01,-9.760240692937445672e+00
2.499599354279586017e+00,-8.148148541509149245e-01,-9.651735026097233217e+00
2.486569001687283897e+00,-6.911251420074224772e-01,-9.663154214189091817e+00
2.535783449745744988e+00,-7.771148071127770285e-01,-9.593309578030451590e+00
2.424999439218647357e+00,-6.787693592522806574e-01,-9.640627266627033620e+00
2.423514210574363226e+00,-7.108862739595661617e-01,-9.665090921075247365e+00
2.555479199603083007e+00,-7.622818472789888444e-01,-9.691347774436213314e+00
2.529040814248177504e+00,-7.318052322865378212e-01,-9.628691797978401468e+00
2.489804659620888039e+00,-7.585828984631913796e-01,-9.640988648510225190e+00
2.503745622870236165e+00,-7.904394876200675490e-01,-9.691643846305449728e+00
2.564940131256792100e+00,-6.989433035205006028e-01,-9.758463496162059769e+00
2.476787778114848848e+00,-8.251262353492863078e-01,-9.825187906751239098e+00
2.500435849588129145e+00,-7.664128574766657653e-01,-9.645344970451493083e+00
2.537723800083882431e+00,-7.786448774615584156e-01,-9.747863864303395687e+00
2.554524223471995370e+00,-7.207903068236756194e-01,-9.690123171858777695e+00
2.459008331099231448e+00,-8.232548961118278941e-01,-9.633060615301278773e+00
2.545069816666324591e+00,-7.156833848101888940e-01,-9.715698777506661443e+00
2.467019418262524688e+00,-7.114517256715067184e-01,-9.771060967325990276e+00
2.554617080143322116e+00,-7.699049813660824304e-01,-9.665284461272094063e+00
2.534636213267625671e+00,-7.791115285583499750e-01,-9.692232023021253084e+00
2.532433076073031142e+00,-8.341386782483558582e-01,-9.775132239560498704e+00
2.512534636302082180e+00,-7.735621212696615068e-01,-9.600825160561926808e+00
2.455709714205696503e+00,-8.043846177380438167e-01,-9.784851300151521158e+00
2.446500144878414496e+00,-8.133360178386539463e-01,-9.812332934906079274e+00
2.546557387300415254e+00,-7.748747566498470629e-01,-9.653256511269232121e+00
2.445818859440535675e+00,-7.454745830803842788e-01,-9.599757100647778429e+00
2.523997172984672410e+00,-7.674678653418016694e-01,-9.743898026927242384e+00
2.508714131817902704e+00,-7.424143575978604526e-01,-9.632004527477782574e+00
2.402995733172951454e+00,-7.302913590341654215e-01,-9.543444469486241033e+00
2.516406310726818418e+00,-7.030602540148951363e-01,-9.660560089395614725e+00
2.499371337072435306e+00,-7.765946445231332040e-01,-9.604172630322416637e+00
2.469722641242109162e+00,-7.529197941236607239e-01,-9.620692250725785044e+00
2.540033204880943973e+00,-7.400494938429948988e-01,-9.685665823220741544e+00
2.483002644644905388e+00,-7.680089384650051754e-01,-9.686665053270584025e+00
2.471671572410850892e+00,-8.367277831912792729e-01,-9.713094792401179234e+00
2.547704944481886002e+00,-7.386381406073569966e-01,-9.652427628909325819e+00
2.526096444222683424e+00,-7.734202981967912560e-01,-9.660492636311269976e+00
2.501236332893101988e+00,-7.574071908426517341e-01,-9.708668649823597008e+00
2.518644649804723912e+00,-7.583858560768891310e-01,-9.794692706258627979e+00
2.487260187140265977e+00,-8.332590524413486799e-01,-9.797980297953744255e+00
2.515610608550660654e+00,-7.407667809767120026e-01,-9.759443926833993643e+00
2.562159301074499407e+00,-6.758583492934958636e-01,-9.727175325067797473e+00
2.459916856542699648e+00,-7.485579562609768756e-01,-9.655425133990107156e+00
2.509868231646419368e+00,-8.121247082263736150e-01,-9.823912792763570323e+00
2.521480668581532303e+00,-8.233562041951293375e-01,-9.634957261843094756e+00
2.496025678228447564e+00,-7.193368582895126595e-01,-9.698291344258871405e+00
2.500931245272179027e+00,-8.306577738514496767e-01,-9.752058019048607918e+00
2.546802307152213007e+00,-7.622378210445610591e-01,-9.623891608809190146e+00
2.596602767714343951e+00,-8.575182701612550362e-01,-9.594882981325193683e+00
2.596836422580793169e+00,-7.803409748430263360e-01,-9.772782056335501011e+00
2.564580867741528714e+00,-7.615468764503703358e-01,-9.664589758307386091e+00
2.520495612080318359e+00,-7.390246766546845203e-01,-9.640725665185389204e+00
2.554686571488733016e+00,-7.584455117720113604e-01,-9.684975291364837702e+00
2.529690366193447559e+00,-8.253047287571166901e-01,-9.795980736253730115e+00
2.553347896660430827e+00,-7.464810692645056367e-01,-9.787181508610144576e+00
2.609861466247344719e+00,-7.804543589531033332e-01,-9.677724344513782384e+00
2.496917019151388750e+00,-7.941529950835616303e-01,-9.551598249782657035e+00
2.613687668716673240e+00,-7.525708922216528540e-01,-9.741405745445071318e+00
2.552760748336273977e+00,-7.163630681819077584e-01,-9.544423181001702616e+00
2.529079026830256982e+00,-7.313390404779853693e-01,-9.655412981294336561e+00
2.544654063019397672e+00,-7.207533354309602069e-01,-9.641208127323269039e+00
2.475871636920454311e+00,-7.822335377511957510e-01,-9.668138525528615190e+00
2.541358543279356397e+00,-8.117812874846122018e-01,-9.673305393069590252e+00
2.550612619596063002e+00,-6.809423014568087851e-01,-9.609398076588577808e+00
2.540870446978403585e+00,-7.442890681383496077e-01,-9.639213612239084128e+00
2.568739208670864471e+00,-7.977718760050045432e-01,-9.647821830499509588e+00
2.549076316090328476e+00,-7.534468914769574255e-01,-9.660481023929481381e+00
2.613586651317629350e+00,-7.117394036523588818e-01,-9.650431467568077792e+00
2.552235356511805886e+00,-7.475042679639316567e-01,-9.604137391858452943e+00
2.576109096239064478e+00,-7.855224202536666978e-01,-9.784331088635314089e+00
2.547799539287801451e+00,-7.884645821846115732e-01,-9.582480007657562027e+00
2.507219665562040234e+00,-7.837456238581022028e-01,-9.733918859622948005e+00
2.575235459285190043e+00,-8.126882687015378748e-01,-9.683245810796957898e+00
2.534152310638229544e+00,-8.052213332150168767e-01,-9.627470494390157896e+00
2.603115587506077855e+00,-8.251821479533507642e-01,-9.740647965902457628e+00
2.499177951267192110e+00,-7.689671830017646981e-01,-9.653155592606800894e+00
2.536039163061964086e+00,-7.875682229398311973e-01,-9.682367342891264883e+00
2.603253004423226713e+00,-7.996297500802318492e-01,-9.617580757781700740e+00
2.648610310110895316e+00,-7.901463762111964328e-01,-9.669614332206505125e+00
2.579806780287025703e+00,-7.555210293901457597e-01,-9.679688956527069621e+00
2.494664892042194992e+00,-8.126125149186429475e-01,-9.737182461757159402e+00
2.491982086408103925e+00,-7.890792782669523442e-01,-9.690520241483763897e+00
2.512879453991759604e+00,-7.656727704708333748e-01,-9.600174367626832961e+00
2.579272223538279007e+00,-8.196848351418807299e-01,-9.718375133302048496e+00
2.484871180718436712e+00,-7.801449790339549661e-01,-9.680936759708091088e+00
2.628007485266468990e+00,-7.670575119357776472e-01,-9.736288242011223559e+00
2.582557142380462967e+00,-7.451525361914516088e-01,-9.671537860884654947e+00
2.535350047683422758e+00,-7.913702982868466851e-01,-9.560374893954538322e+00
2.644200969461994344e+00,-7.891511420338174210e-01,-9.735707110844399992e+00
2.582861025111593545e+00,-8.359903156446067962e-01,-9.612027326774304825e+00
2.530553885282775362e+00,-7.903866905736137705e-01,-9.587159100919111054e+00
2.630869569720780898e+00,-7.702463262212704276e-01,-9.674030769543989550e+00
2.607346936902185774e+00,-7.622995616658967410e-01,-9.609444526673772913e+00
2.526339405170250352e+00,-7.723526376894599421e-01,-9.708254732317412206e+00
2.575455376809026475e+00,-7.670345049082166744e-01,-9.696171190977018739e+00
2.527604708678264256e+00,-7.780505775996298112e-01,-9.605921399006605910e+00
2.559435689637830524e+00,-8.403369077151907618e-01,-9.663429153200025823e+00
2.552378904569931439e+00,-7.388562026576129815e-01,-9.713092904976504016e+00
2.563792474876561034e+00,-8.284730939952664741e-01,-9.645858482626094244e+00
2.538539637001362426e+00,-7.614675673651847276e-01,-9.574481630588438819e+00
2.592353214473175793e+00,-7.782459102998816602e-01,-9.742320833083914167e+00
2.559934965431842624e+00,-7.732577635144698425e-01,-9.571253947438320253e+00
2.560465721552902973e+00,-8.349098924220316187e-01,-9.742024038081387616e+00
2.536597694608071052e+00,-7.651323424721482303e-01,-9.764926713183758267e+00
2.477113404713215061e+00,-7.418397658346177481e-01,-9.622755878718750822e+00
2.588683385488689037e+00,-8.341723312182356409e-01,-9.692107127279784962e+00
2.541936181703849051e+00,-7.976996703919488896e-01,-9.647545127794163733e+00
2.612892379407870447e+00,-7.241162261457616545e-01,-9.626661222746744073e+00
2.619720140747124226e+00,-7.955880666391578204e-01,-9.566632987627057716e+00
2.588511323744302040e+00,-8.053406080884378815e-01,-9.775511669622707345e+00
2.587335606715873038e+00,-7.942022700569806304e-01,-9.601008205839756116e+00
2.552035045436426675e+00,-7.903533754875454731e-01,-9.598244859657583561e+00
2.648151082639413456e+00,-7.885056868572783983e-01,-9.658733586410940930e+00
2.637140090307446449e+00,-7.841933172147298459e-01,-9.649473911157160799e+00
2.585306260376670551e+00,-7.589868712142749940e-01,-9.724090786350194193e+00
2.537211608820460818e+00,-7.850902808416393430e-01,-9.760789969956523038e+00
2.580545204126540870e+00,-8.619265378438792924e-01,-9.722965629001748766e+00
2.616540448153361176e+00,-7.259499454246493011e-01,-9.585412528928189957e+00
2.537528551008258582e+00,-8.138355690609052617e-01,-9.639660424421670371e+00
2.587101005774341989e+00,-8.723459799240946833e-01,-9.676132320030363942e+00
2.624512607423898469e+00,-8.018440745319813656e-01,-9.604400564491557546e+00
2.565399526090252902e+00,-8.394084127650032201e-01,-9.736536927293713006e+00
2.593066600966937862e+00,-8.589228023464924311e-01,-9.669117053362873193e+00
2.590152053979918545e+00,-8.449220779998565245e-01,-9.637523864751539548e+00
2.594020367663823823e+00,-7.525026759777874164e-01,-9.665041169448468139e+00
2.668384094519427041e+00,-8.581281098207427238e-01,-9.668602588246580254e+00
2.553481066758799489e+00,-8.197591620442524762e-01,-9.636226378569714868e+00
2.537257264251197686e+00,-8.676628285924234962e-01,-9.668886099313429128e+00
2.606031736181600333e+00,-8.109047049727109435e-01,-9.638117209125470097e+00
2.524186163845937081e+00,-8.376588040887343878e-01,-9.642825447154438123e+00
2.569150386731691604e+00,-8.481642531580687594e-01,-9.658807822519461794e+00
2.617595711902387379e+00,-7.459863484665474331e-01,-9.700850297903693686e+00
2.579551430596265238e+00,-8.061762058181750623e-01,-9.688651464255286783e+00
2.623038706283749910e+00,-8.196109876356884039e-01,-9.765536545953239056e+00
2.612656343958900784e+00,-7.391732979420138072e-01,-9.666445131660658774e+00
2.591425080214901033e+00,-7.887901478511186726e-01,-9.787056146382717259e+00
2.665629353566944637e+00,-8.001350467231103103e-01,-9.633274664852924829e+00
2.580530311112765762e+00,-8.201914391757894052e-01,-9.611383934902944404e+00
2.645473000186444601e+00,-8.122708356863533874e-01,-9.666381993098676517e+00
2.594378270007774212e+00,-7.696482304421560228e-01,-9.639391420818864020e+00
2.591205948438390916e+00,-8.430811158260835825e-01,-9.709891555174060329e+00
2.620055766037062916e+00,-7.949522990057845684e-01,-9.508656493203842430e+00
2.550078731557730904e+00,-7.706011640596505119e-01,-9.592865510571442655e+00
2.555470831286997146e+00,-7.455594171081697530e-01,-9.706766559796324856e+00
2.578938918546276771e+00,-7.996671414914923171e-01,-9.740739583669512314e+00
2.601199170361728097e+00,-8.315010338704649229e-01,-9.601571643987961480e+00
2.574790922952689076e+00,-7.263607834920153827e-01,-9.652876236797752085e+00
2.565375388160707981e+00,-8.008347372275944620e-01,-9.700374223713335908e+00
2.614001235448603744e+00,-7.478656609771749952e-01,-9.655687078760148978e+00
2.668548440300996472e+00,-7.799263403432941111e-01,-9.670934441693876948e+00
2.554227870733489780e+00,-8.573102724153256471e-01,-9.733262418440382646e+00
2.606130000552326464e+00,-7.440295685315798657e-01,-9.660694776676459483e+00
2.558951771666829966e+00,-8.183705286206923724e-01,-9.713910840688567916e+00
2.651408042211528482e+00,-8.236645922411520715e-01,-9.626811512238615975e+00
2.554560742590421540e+00,-8.045804814858323883e-01,-9.701563545059524785e+00
2.593882680913875749e+00,-7.454988583483224129e-01,-9.625549668211961674e+00
2.589188405229478462e+00,-7.363440017860912734e-01,-9.630355461143118134e+00
2.557298111731784562e+00,-7.151138144850677225e-01,-9.582147581502242772e+00
2.615050097326323097e+00,-7.863758211490877725e-01,-9.760936116049178324e+00
2.584907269452842993e+00,-7.670017315916823897e-01,-9.661553054979421518e+00
2.582878958066518571e+00,-8.245330149022693789e-01,-9.660735888872727273e+00
2.582007018491352390e+00,-8.254531686927979450e-01,-9.646756979832284529e+00
2.550184587446999274e+00,-7.686983543069385583e-01,-9.644105656830790352e+00
2.579011701765377307e+00,-7.440663256831517858e-01,-9.649956413351620910e+00
2.646016991851423583e+00,-8.283059797072037655e-01,-9.691502308793927156e+00
2.632838975190710862e+00,-7.624855242346739725e-01,-9.601584507435983795e+00
2.670227084387667205e+00,-8.091841246862324644e-01,-9.595394151992948650e+00
2.644871490394336888e+00,-7.457106824485369989e-01,-9.607474505487800798e+00
2.659009791064916861e+00,-7.003289751302379518e-01,-9.620464866401581716e+00
2.637863939790696222e+00,-7.456301109061472809e-01,-9.706740426253864129e+00
2.603868297203736137e+00,-7.970829723128377564e-01,-9.728515332182949393e+00
2.652505943897821350e+00,-8.611353639192881326e-01,-9.702072644537290458e+00
2.581428996276157406e+00,-8.070701842058783937e-01,-9.668179369105191157e+00
2.621280292688036972e+00,-8.065974473982224779e-01,-9.604960995109701472e+00
2.645619823176145413e+00,-7.286322780174966374e-01,-9.645057327665529812e+00
2.584938804671552237e+00,-7.964432943783202878e-01,-9.756066267644742496e+00
2.574888466252392316e+00,-7.641468146878157564e-01,-9.634188489172482051e+00
2.613759208487269614e+00,-7.506663118755294573e-01,-9.650825845827512239e+00
2.612783173135136749e+00,-7.433880313708201015e-01,-9.558224620549795603e+00
2.668142104947662574e+00,-8.250619007652552073e-01,-9.781515930167129724e+00
2.622325671684568871e+00,-7.712695068913576479e-01,-9.624710346326732946e+00
2.628307149278302557e+00,-7.531817518826903202e-01,-9.630138748544768035e+00
2.572168660262419859e+00,-8.530210355096866648e-01,-9.716504836610081242e+00
2.673673086294278356e+00,-8.267475022135748475e-01,-9.671642474605770090e+00
2.618174634770492837e+00,-8.148921287212799180e-01,-9.657714776907930343e+00
2.583832582965901459e+00,-8.085384973690075139e-01,-9.708112170856816547e+00
2.556661641514163641e+00,-7.473341944746590970e-01,-9.616056847374705896e+00
2.663856773633059394e+00,-8.387356071829102921e-01,-9.769786555815937135e+00
2.634890661824244251e+00,-8.254240125904986902e-01,-9.621545892181869064e+00
2.652198583616891980e+00,-7.925990174068747729e-01,-9.572304639171290930e+00
2.628107287470158315e+00,-8.390964034062505794e-01,-9.628755179955422960e+00
2.695673121620196788e+00,-7.874251584642258939e-01,-9.620558560466115239e+00
2.600424906123084412e+00,-7.879795217063881863e-01,-9.642315557414919525e+00
2.582119650996794746e+00,-8.026258362257140400e-01,-9.663385928904963507e+00
2.587048792692385746e+00,-8.097419601339290729e-01,-9.580317542959399191e+00
2.648278147178560804e+00,-8.128099580133427704e-01,-9.616965654284653553e+00
2.696041417488335146e+00,-8.461924616908267360e-01,-9.604955356240589381e+00
2.609289995757344105e+00,-8.158491401737609783e-01,-9.572765162522975046e+00
2.607136689418375397e+00,-8.129245069140822455e-01,-9.563772467678745670e+00
2.668903995645185656e+00,-7.644446487092100284e-01,-9.686160821101372775e+00
2.643577294672128986e+00,-7.445559781496368101e-01,-9.632302665477386228e+00
2.615342012543415251e+00,-8.169863073565265532e-01,-9.729341411487050451e+00
2.675350340383642056e+00,-8.489193705927777778e-01,-9.715944519035964788e+00
2.701829780524252822e+00,-8.444134077945142369e-01,-9.658065998636306659e+00
2.631163237803179733e+00,-8.093867573239500457e-01,-9.616436925580257977e+00
2.652385554862208394e+00,-7.978639190491838562e-01,-9.571040851407698113e+00
2.570037481238187649e+00,-8.233479145813703548e-01,-9.592195396487610992e+00
2.609412865629033629e+00,-8.152856131344606849e-01,-9.603352216546511499e+00
2.633992415835465284e+00,-8.352812058142404794e-01,-9.601848841875737506e+00
2.637534324623377557e+00,-8.693461020825633545e-01,-9.612510969537002126e+00
2.679429434651381392e+00,-8.005872164069612884e-01,-9.670652685296790452e+00
2.651549416302074302e+00,-8.560074663187664523e-01,-9.578395780278542659e+00
2.645031709418713017e+00,-8.177991121679524245e-01,-9.598308785208995886e+00
2.597727718675112651e+00,-7.776905707513481758e-01,-9.706559540962667043e+00
2.655456398279153696e+00,-7.880201589988995448e-01,-9.656843018159749548e+00
2.634093502661542630e+00,-7.737550656590489462e-01,-9.663406962723543714e+00
2.626313049760643281e+00,-7.886853099594680616e-01,-9.623237274652126416e+00
2.570782071389767331e+00,-7.833846539445542545e-01,-9.585264666605647577e+00
2.664389603060226097e+00,-7.641005168510800472e-01,-9.812237385127097866e+00
2.629568542969717537e+00,-7.979689848162700994e-01,-9.545950607890572925e+00
2.693172667747508964e+00,-8.562520558123861703e-01,-9.701601741333336193e+00
2.545811167949169285e+00,-7.885986514583710472e-01,-9.655559310946138396e+00
2.552783289185637017e+00,-7.596938168525806390e-01,-9.498905124857008886e+00
2.648383402334558934e+00,-8.193541625283908836e-01,-9.679929217357077675e+00
2.686367878465787840e+00,-7.489723744790472981e-01,-9.678599794617946728e+00
2.579602225221839351e+00,-7.471442618114433332e-01,-9.639432213055787457e+00
2.630082924721913962e+00,-8.283140937453163932e-01,-9.630445807655993562e+00
2.673984608950344288e+00,-8.304644724607455064e-01,-9.631672653951142138e+00
2.638839325712876160e+00,-7.497988456321696971e-01,-9.613979788291825201e+00
2.586135914463685292e+00,-7.861719942054692378e-01,-9.797780614999785698e+00
2.700390418246383373e+00,-8.667785148677515927e-01,-9.561976455639078054e+00
2.680480470806604565e+00,-7.964050894285271687e-01,-9.732436677633428346e+00
2.599697192634791598e+00,-7.901785097389015800e-01,-9.582945430748674553e+00
2.663268879291395219e+00,-7.206155745089787290e-01,-9.729380473742743618e+00
2.685736189250785166e+00,-9.041098771965009329e-01,-9.625787438464753265e+00
2.707193918718017400e+00,-9.178760421934821778e-01,-9.658559425538014054e+00
2.596299007283383808e+00,-7.878161193059856071e-01,-9.628169855874009642e+00
2.640378392592313439e+00,-7.854331996508240321e-01,-9.736530738019817832e+00
2.723908888413216989e+00,-8.735807607002230579e-01,-9.652668216310674509e+00
2.627247993275056093e+00,-8.098372894199848959e-01,-9.710027261731418946e+00
2.731912852953688908e+00,-8.508605371155362196e-01,-9.542221233304374550e+00
2.653340992170440504e+00,-8.193216807659542411e-01,-9.709197029198092466e+00
2.610122397300485453e+00,-8.525406632461988155e-01,-9.669330586903187807e+00
2.648907849820948179e+00,-7.799849295834873075e-01,-9.560716551592406631e+00
2.634954063285852577e+00,-8.226077816394444797e-01,-9.690184959822776278e+00
2.699128809410889840e+00,-7.874283739423941775e-01,-9.592208288059566712e+00
2.649823250473255953e+00,-8.413237552272303521e-01,-9.648131961409516677e+00
2.723100338545868304e+00,-7.512496497373950533e-01,-9.677517733675459866e+00
2.634681688677394273e+00,-8.345863478645992872e-01,-9.604821283590657899e+00
2.619268548067178237e+00,-7.799684963712657515e-01,-9.635442322384751179e+00
2.585569451264830398e+00,-7.972484905352590356e-01,-9.635136631922087247e+00
2.609352516923636234e+00,-8.032041851704194713e-01,-9.546337823332422090e+00
2.614746402411434634e+00,-7.902974788987190413e-01,-9.669073512422830419e+00
2.670522015622266654e+00,-8.702853741349712013e-01,-9.721603878300486556e+00
2.647109634826760871e+00,-7.381976745185320210e-01,-9.513896386955861928e+00
2.660160041997020830e+00,-7.296772261881580013e-01,-9.586019458699349016e+00
2.566936924161179245e+00,-8.325398502135573642e-01,-9.586272695494617579e+00
2.623710963171719257e+00,-6.890011722488446066e-01,-9.694557496742291391e+00
2.696509613328973209e+00,-8.032745793016686786e-01,-9.782991444259016234e+00
2.613123651258020708e+00,-8.204259860278587668e-01,-9.603275127543341227e+00
2.625272422324045785e+00,-8.517551861233820798e-01,-9.665767415867634327e+00
2.573909073197234942e+00,-7.336731708122810058e-01,-9.629255391720795032e+00
2.668343764395974205e+00,-9.215515341749732636e-01,-9.641374053390599386e+00
2.634133350055311684e+00,-8.531253087098505938e-01,-9.704338123559290707e+00
2.642112165007907354e+00,-8.218680119102607096e-01,-9.641888871424056262e+00
2.696877367038758244e+00,-7.836354562978327110e-01,-9.712017910390077446e+00
2.675883732670378379e+00,-8.198597183357350104e-01,-9.565455333630836776e+00
2.655254561821320358e+00,-8.005947943747245832e-01,-9.745088451696144460e+00
2.663084893163350397e+00,-8.160455737751318717e-01,-9.640307978587800974e+00
2.649500852641117898e+00,-7.907097847994630779e-01,-9.585003866478036372e+00
2.668297928127340235e+00,-8.413685203366543242e-01,-9.599542349731731150e+00
2.667066022576977780e+00,-8.656515412419210076e-01,-9.684365579140454372e+00
2.579800777575409487e+00,-8.831824931565721570e-01,-9.623027306747095722e+00
2.624551235281625594e+00,-8.232793032294819513e-01,-9.716477750891604259e+00
2.682606758309030504e+00,-8.477249069635524048e-01,-9.609568739512775792e+00
2.587568282232734163e+00,-8.513527552597528469e-01,-9.612864608458178139e+00
2.695003074870816917e+00,-7.587706092012058701e-01,-9.579729269488337806e+00
2.631537228132773354e+00,-8.235784251154316671e-01,-9.644955585820671473e+00
2.640830545572440347e+00,-8.498817522297822391e-01,-9.659189703551527728e+00
2.664478282055254610e+00,-8.646863246266281999e-01,-9.654754533829057905e+00
2.663562726774160172e+00,-8.358558311308633693e-01,-9.632529530330762313e+00
2.646260871176095097e+00,-8.018471299504256189e-01,-9.740705440144122207e+00
2.671589983122983014e+00,-8.180393576787661214e-01,-9.673380825742974309e+00
2.607151261324320846e+00,-8.084533427283944196e-01,-9.600763717192730695e+00
2.557677082680438474e+00,-8.572069290830047761e-01,-9.632488308355448225e+00
2.680572216984817402e+00,-8.327970068526227010e-01,-9.656774290898720636e+00
2.647878944993675709e+00,-8.105196167106141214e-01,-9.688595519968341563e+00
2.708564836292098654e+00,-8.017376273090091043e-01,-9.669991395950974677e+00
2.604581409718136786e+00,-7.999258448964798873e-01,-9.584240064040942642e+00
2.647239446004403085e+00,-8.133935088219884646e-01,-9.721729132644647109e+00
2.639866022835859471e+00,-8.159524107140926352e-01,-9.663500726269269592e+00
2.692668874538782120e+00,-8.402457290762143094e-01,-9.674475407294274021e+00
2.655741983946246609e+00,-7.660816842724662568e-01,-9.565305324216135219e+00
2.690410956947928423e+00,-7.780055483876865408e-01,-9.649098960484167264e+00
2.655006024966739986e+00,-8.957756534903957846e-01,-9.580183774825703935e+00
2.675217713598230240e+00,-7.594833784302301716e-01,-9.641130196206361802e+00
2.603075284050133220e+00,-8.417868228271254694e-01,-9.611738545815365242e+00
2.726121077137175330e+00,-8.591368026013710413e-01,-9.623677742654953349e+00
2.760361137766781603e+00,-8.530866253150251044e-01,-9.700163706952421805e+00
2.583435506073427312e+00,-8.058740180211958481e-01,-9.713801591380454070e+00
2.726446034543382968e+00,-8.851181445283519134e-01,-9.646690297518601298e+00
2.628292374095543060e+00,-8.195309555380577704e-01,-9.659183515029958755e+00
2.698426126073029341e+00,-7.665304663417088493e-01,-9.631185194226901558e+00
2.676647236643160621e+00,-8.747451780448228797e-01,-9.673139052342829558e+00
2.664559487987314679e+00,-8.460126201027089454e-01,-9.553559006419966693e+00
2.688265173916275064e+00,-7.924892797834612868e-01,-9.570766377211944231e+00
2.650523600483517761e+00,-8.513879841444385033e-01,-9.723784938295725766e+00
2.661647794638200448e+00,-8.097484300691766279e-01,-9.593098277881733082e+00
2.720054895134246919e+00,-8.342807388190175422e-01,-9.613931584915462736e+00
2.662399249311579563e+00,-7.392116539065793912e-01,-9.659522319544818103e+00
2.655289510218527660e+00,-7.724460980736335136e-01,-9.714578613325095091e+00
2.748316131884206204e+00,-7.460032209477636123e-01,-9.689649026545749777e+00
2.677881265764113117e+00,-8.472615524309370372e-01,-9.591733823952111493e+00
2.641229395620448006e+00,-8.715210971808653451e-01,-9.729215494838424405e+00
2.674444125381246984e+00,-7.771781912558597405e-01,-9.646705215250998222e+00
2.638627273397844863e+00,-7.526963219035450736e-01,-9.651353280763133924e+00
2.686124032162565900e+00,-8.239582206269511211e-01,-9.784035870789695721e+00
2.636052942005661759e+00,-8.448125247683310191e-01,-9.589501731158522446e+00
2.678720040010045267e+00,-8.704600420561108276e-01,-9.602401986615861418e+00
2.665094339422044989e+00,-8.844369229117771125e-01,-9.595712893698587820e+00
2.672169504711841004e+00,-8.273390017181501133e-01,-9.673326768095204642e+00
2.690242004333606829e+00,-7.309197236112947582e-01,-9.528792491530211350e+00
2.700411192834541119e+00,-8.514074020789783592e-01,-9.685605050439432873e+00
2.684871050490879707e+00,-8.662749299243271972e-01,-9.543126873566501800e+00
2.656255854995910770e+00,-8.307277413850575609e-01,-9.618464280597697424e+00
2.682279043261801554e+00,-8.435117813773093109e-01,-9.544522071049366119e+00
2.684897025394258563e+00,-8.000172302018052628e-01,-9.671595492616239298e+00
2.686960476435461764e+00,-8.845618861705213387e-01,-9.468765475147080224e+00
2.664706411495586735e+00,-7.800712902401120141e-01,-9.714956164056637533e+00
2.646803309014469807e+00,-8.451699808562102012e-01,-9.705222156330092886e+00
2.655254355113051634e+00,-8.335042416114626374e-01,-9.727063788575243564e+00
2.680505503959249580e+00,-8.120856329208359092e-01,-9.788004793918540614e+00
2.730209677556155068e+00,-7.812166793182465652e-01,-9.724777703240196303e+00
2.670775430990152799e+00,-8.186692626310564380e-01,-9.597148876797515271e+00
2.679007141842151274e+00,-8.824290234369698283e-01,-9.711480354852259467e+00
2.677934587269946931e+00,-8.342397314011913423e-01,-9.418946640344550758e+00
2.621062111213513734e+00,-8.135795497509258345e-01,-9.651968612047642893e+00
2.646837761213661988e+00,-8.432401400520531665e-01,-9.659253903030720068e+00
2.649023353445529416e+00,-8.084705486816007314e-01,-9.667716018167444858e+00
2.645543903133344976e+00,-8.511810704457335452e-01,-9.655578243167514785e+00
2.725380820113058711e+00,-8.996074037525423339e-01,-9.652293366113925188e+00
2.697443910504857545e+00,-7.895299994733578908e-01,-9.583666353779223712e+00
2.722684616166780369e+00,-7.968446239471508319e-01,-9.520263768411764360e+00
2.652485815102373135e+00,-8.101717340637731857e-01,-9.621407019934490989e+00
2.746558596782207928e+00,-7.574902662643667739e-01,-9.616188314014703309e+00
2.672972290383615501e+00,-8.852851930379899148e-01,-9.634737212344804291e+00
2.645427901544529004e+00,-8.112292399479802407e-01,-9.621394367255794222e+00
2.680172910791235097e+00,-8.484365107208841073e-01,-9.641758866560222074e+00
2.693933380940690459e+00,-8.873774463606993734e-01,-9.599269099409690753e+00
2.703730330542433613e+00,-8.567695041368799114e-01,-9.637306059842575934e+00
2.660450699943523567e+00,-8.564095436578285092e-01,-9.674297801469595726e+00
2.664316052934291967e+00,-7.832786289796381807e-01,-9.585539959605455351e+00
2.670740421118334318e+00,-8.090353299208842275e-01,-9.551107260199518834e+00
2.647912749517727260e+00,-8.230366864942402216e-01,-9.588688660087610671e+00
2.655110221434764384e+00,-8.014266705153841874e-01,-9.663108252968187983e+00
2.688128146852671652e+00,-8.480791647752793372e-01,-9.696021435052772475e+00
2.645297885743214561e+00,-7.870501920577839261e-01,-9.667950623187405057e+00
2.716699684289477279e+00,-8.456076978336799499e-01,-9.765136572600066955e+00
2.704221368911511103e+00,-8.628651487341586490e-01,-9.596138288212797463e+00
2.656817872009836989e+00,-8.156742324730756888e-01,-9.488089408766267496e+00
2.677939993491221582e+00,-8.719279878323059618e-01,-9.561860123414353652e+00
2.647469576991319240e+00,-8.430678805371972784e-01,-9.566590412332311999e+00
2.645420287186351693e+00,-7.912912313748613480e-01,-9.699301620982478056e+00
2.679178194128046364e+00,-8.153620848650721120e-01,-9.605393693484650441e+00
2.679456335377227827e+00,-8.650233657857058223e-01,-9.502681832603565582e+00
2.690844751195887952e+00,-7.626570919270961868e-01,-9.675616430419047731e+00
2.622675437449991875e+00,-8.524447671453588837e-01,-9.578286984864087472e+00
2.656837041113285114e+00,-8.331803034857494517e-01,-9.675555237315657919e+00
2.647522888255097850e+00,-8.010319820114483180e-01,-9.641156288468931024e+00
2.676280142171323817e+00,-8.092557364558627953e-01,-9.675453244755635396e+00
2.719804695720933641e+00,-7.806034279036123680e-01,-9.561235916737148344e+00
2.709672535212543032e+00,-8.255751178697220416e-01,-9.612916738445917986e+00
2.636899304861955784e+00,-8.117958084046092981e-01,-9.723488511566156234e+00
2.615972608324567350e+00,-8.330872251988039601e-01,-9.688701328584926387e+00
2.649269355468760523e+00,-8.699376673651568748e-01,-9.490584893159642377e+00
2.637236911151954910e+00,-8.521757069417518204e-01,-9.631393141771360078e+00
2.652728604341616947e+00,-7.750892898677417264e-01,-9.666972170113751872e+00
2.695652502032631848e+00,-8.380100816387029417e-01,-9.610522721368015553e+00
2.664330652426411650e+00,-8.948126358102944655e-01,-9.737354035961855558e+00
2.636160486380313195e+00,-8.086797135432117756e-01,-9.711942915672704402e+00
2.632940370424116772e+00,-8.044749786897982258e-01,-9.647930591872189154e+00
2.687302325876106845e+00,-8.035591921595838238e-01,-9.645425952492194810e+00
2.624472380244089464e+00,-8.653654143785733943e-01,-9.672250160169458155e+00
2.657144397122992441e+00,-9.330147503082948379e-01,-9.620447952622798837e+00
2.676040240147141702e+00,-8.786441053785181143e-01,-9.626036835736579533e+00
2.716871284862083957e+00,-8.726889218478260934e-01,-9.704645520769879852e+00
2.680005593927886842e+00,-7.990810038422963002e-01,-9.584880978978027599e+00
2.640529813266600190e+00,-8.599122659833977611e-01,-9.640884022274507359e+00
2.702648895261478668e+00,-7.949715522091518327e-01,-9.657745378528600710e+00
2.721024675842800278e+00,-7.404063851628341908e-01,-9.567147784751110606e+00
2.677528427803591349e+00,-7.989284676097456739e-01,-9.644520606499403570e+00
2.687084130968229179e+00,-8.454869963232697350e-01,-9.611781413961365317e+00
2.685481731570222852e+00,-9.190828796614871621e-01,-9.494057764065672700e+00
2.712133998636269805e+00,-8.816410183402021428e-01,-9.530915218757002094e+00
2.717863782244913651e+00,-7.933870261732337559e-01,-9.600140879657399040e+00
2.718192745495266127e+00,2.902190329479558129e-01,-8.530343807324490157e+00
2.635123175870416112e+00,2.683293511288040722e-01,-8.673632488555941933e+00
2.642713952268928246e+00,2.881239190929590355e-01,-8.773723378787527949e+00
2.628498952039513892e+00,3.694600098034996893e-01,-8.815161613003102303e+00
2.696152727203117827e+00,3.497862015074448827e-01,-8.796253730744632904e+00
2.748875712831408524e+00,4.454402971927175492e-01,-8.573369892646283574e+00
2.669371195013311659e+00,4.123280774575365792e-01,-8.767729361439352331e+00
2.661082429820538664e+00,5.040986832784961624e-01,-8.903382145825444738e+00
2.690763397485314457e+00,5.112536534141348676e-01,-8.926794434072109041e+00
2.700479230155774957e+00,5.212202331526368804e-01,-8.988256122678400573e+00
2.704380345782589679e+00,6.262583815142266364e-01,-8.948828966943574770e+00
2.764027605040787705e+00,6.687914097886540343e-01,-8.952703301760601917e+00
2.695925864102334923e+00,6.852551204183116029e-01,-8.940096994831536747e+00
2.712641095398677038e+00,6.946603848833240447e-01,-9.022278669436193610e+00
2.673920065620964071e+00,9.073955809196642130e-01,-9.066900915341193468e+00
2.699198437045636556e+00,9.219035610314330054e-01,-9.046044499623301149e+00
2.663005896045723020e+00,9.679223760073438765e-01,-9.042270023840568882e+00
2.678180053357641643e+00,9.823542528733989476e-01,-9.005989883478989100e+00
2.707563159008845144e+00,1.001863209848419700e+00,-9.032021107975522156e+00
2.743709549632153077e+00,1.035270336448140371e+00,-8.928814764882503141e+00
2.694910331367609935e+00,1.104285129518979947e+00,-9.025038130288022487e+00
2.724930173754370522e+00,1.164650181411672314e+00,-9.106067629607903058e+00
2.655984707190340632e+00,1.245293296120645321e+00,-9.013418969224490596e+00
2.711475207809487475e+00,1.269744302300716221e+00,-8.959652584551548671e+00
2.705700834097091168e+00,1.305648655590050167e+00,-9.140737967860337321e+00
2.690017273749700788e+00,1.399063600166576160e+00,-9.114840219932895948e+00
2.712356796871802089e+00,1.456128851237412869e+00,-9.046462211954279908e+00
2.764608803678373139e+00,1.544440539838822790e+00,-9.110418629884410535e+00
2.781426685366880314e+00,1.575240678637764180e+00,-9.186002655493851421e+00
2.797118423331431902e+00,1.561663254404593193e+00,-8.966985559897377556e+00
2.661795278277310217e+00,1.636077618199234252e+00,-9.045850209407969800e+00
2.803145382074055281e+00,1.688071161935330133e+00,-9.049952635310647864e+00
2.810154051131037445e+00,1.814397408471299267e+00,-8.971512509131015278e+00
2.724706163266755965e+00,1.766265185793491455e+00,-8.996667061775635688e+00
2.762882898947866650e+00,1.806474562312347931e+00,-9.103854570169806593e+00
2.739788403114533200e+00,1.928256421396268960e+00,-9.073327340658781992e+00
2.701774294897117734e+00,2.094483047072401405e+00,-9.147048110214823780e+00
2.773944949640392288e+00,2.002545098437784166e+00,-9.050354622674104732e+00
2.756349205535828073e+00,2.147386202974500780e+00,-9.056395674953712671e+00
2.664898204542465621e+00,2.100454505111730708e+00,-9.041486172866564530e+00
2.692941048346618516e+00,2.170549251187379625e+00,-9.063411023646104070e+00
2.767903658299001091e+00,2.257777904253391643e+00,-9.088989158260744716e+00
2.729285493636984583e+00,2.302798208960214144e+00,-9.106898376150418528e+00
2.672200951561101601e+00,2.347413323299394783e+00,-9.130320571947098784e+00
2.768516096262653381e+00,2.457896354900444003e+00,-9.230258506760707249e+00
2.715589194256772032e+00,2.420914249716548561e+00,-9.083132016380114138e+00
2.747927131619160690e+00,2.585777946502648916e+00,-9.209751275218168942e+00
2.743754750696461020e+00,2.674457913785711405e+00,-9.129816316993144554e+00
2.868190921819843808e+00,2.651116242294076386e+00,-9.130980713178121988e+00
2.734269258177980610e+00,2.741945082202171147e+00,-9.144142969836654089e+00
2.668417480349560389e+00,2.793998126888138422e+00,-9.070970105603425537e+00
2.677931976392712077e+00,2.816095578825678292e+00,-9.187104394806121732e+00
2.784232385880094807e+00,2.906308258286067314e+00,-9.267816131011471725e+00
2.752060585493795841e+00,2.916114290641899309e+00,-9.087341562492973424e+00
2.740418815118196516e+00,2.989796050221844581e+00,-9.130404244278240711e+00
2.734093623136324869e+00,3.073594924582637056e+00,-9.046839929534698399e+00
2.737443320096405674e+00,3.070794034033893283e+00,-9.113486723351019947e+00
2.726742523910534288e+00,3.229906936825148289e+00,-9.164870379463961214e+00
2.694128702641227502e+00,3.240375739646982556e+00,-9.219221183947057696e+00
2.757829442548836330e+00,3.261026311805415911e+00,-9.208334133340651206e+00
2.742923672225103360e+00,3.380562130344763716e+00,-9.045046887830986648e+00
2.779616489509811217e+00,3.406792917024849654e+00,-9.116449128048772721e+00
2.653484247404214180e+00,3.497124445445667806e+00,-9.153281114772894966e+00
2.667188560724491175e+00,3.532233962909009151e+00,-9.156464986907755232e+00
2.761227630051420689e+00,3.558147685093585366e+00,-9.169829278758076185e+00
2.644814040498462138e+00,3.537818084334364510e+00,-9.169211451402771829e+00
2.639603397351253378e+00,3.560655854880439453e+00,-9.135727563560415376e+00
2.728908990181798444e+00,3.605328214140238519e+00,-9.139198676977656532e+00
2.688755221373409388e+00,3.674596024266059580e+00,-8.929807450047013262e+00
2.705295431048795773e+00,3.671369326102167818e+00,-9.046108051123331606e+00
2.689329102533613902e+00,3.657909664054295185e+00,-9.127132101862095226e+00
2.763665240089523856e+00,3.683465585879621695e+00,-8.976023703396210252e+00
2.663751911645317438e+00,3.750874378514658769e+00,-9.174394883930164113e+00
2.664620754041173267e+00,3.750378502889434529e+00,-9.075304054851065061e+00
2.673239430691245477e+00,3.793054660426027347e+00,-9.038123254517451244e+00
2.663781300451737888e+00,3.744372491950209714e+00,-9.089906210736160119e+00
2.671968123982195298e+00,3.764959875865101502e+00,-9.095085370056965601e+00
2.682168678169245535e+00,3.766729248119444762e+00,-9.156130533750557632e+00
2.735376351898415770e+00,3.760908489382187359e+00,-9.057874356006687222e+00
2.651417771486990649e+00,3.724150019072590023e+00,-9.113596997439717740e+00
2.708500610674839937e+00,3.795937906921659444e+00,-8.956244226460981395e+00
2.709266939879601654e+00,3.789395269012865164e+00,-9.011481320487249036e+00
2.686362841149379399e+00,3.752637363541068360e+00,-9.192189149192801167e+00
2.679136358155924658e+00,3.795724650489222807e+00,-8.945051480380103115e+00
2.718723523450602197e+00,3.794939718987173638e+00,-8.977334774037544207e+00
2.687485199271983038e+00,3.749968248125103543e+00,-9.019066565342390263e+00
2.731462291326785419e+00,3.827122209769832750e+00,-8.947545691896246822e+00
2.746007995338272334e+00,3.840928606503325682e+00,-8.913082333753166608e+00
2.750372910357546274e+00,3.892828710239908396e+00,-9.035726085738646773e+00
2.688258396107399140e+00,3.826948083715989934e+00,-8.973758940691606512e+00
2.670129871878676564e+00,3.863321988584413003e+00,-8.994202178284146143e+00
2.731541449372872687e+00,3.856249749920186876e+00,-9.018041043841080295e+00
2.708317637581932225e+00,3.802889972613550107e+00,-9.046526907386452265e+00
2.740116073228804350e+00,3.933458375816770047e+00,-8.869587796149430048e+00
2.727380157398365146e+00,3.860298139850059762e+00,-9.063479534399331072e+00
2.727878288486310421e+00,3.879400072343119454e+00,-8.905070288408259316e+00
2.666146702174607253e+00,3.834059902338304404e+00,-8.885164941267268190e+00
2.777534881261163768e+00,3.797012185075832047e+00,-9.021396169178098390e+00
2.772361308853184436e+00,3.835730250987599010e+00,-8.944089469799752834e+00
2.715328390220533628e+00,3.814366519346310103e+00,-9.102844700515261067e+00
2.700906806736243837e+00,3.867224215916252206e+00,-8.957396260194903093e+00
2.769566032046304915e+00,3.827243604690633738e+00,-8.958307653773692536e+00
2.771752289836515892e+00,3.835911753114083833e+00,-8.861726158690812483e+00
2.713024897676262093e+00,3.819319750600759900e+00,-8.975794742567870799e+00
2.694853757868235444e+00,3.823992031816179527e+00,-9.000513980973384065e+00
2.782851756274353772e+00,3.790487518531941991e+00,-8.928873610432832564e+00
2.717511292065997619e+00,3.763775430136942379e+00,-8.952530981342231797e+00
2.759341001452262798e+00,3.840703059961191101e+00,-8.913893684606669865e+00
2.718092723515770803e+00,3.809265874441015054e+00,-9.029435194487071215e+00
2.776967470159446005e+00,3.869495587033410899e+00,-8.888267454517805533e+00
2.792030833523976074e+00,3.880619203782686988e+00,-9.072434308875138242e+00
2.703786058768252953e+00,3.873912091223862486e+00,-8.994169953402307627e+00
2.854515147561146549e+00,3.878182784708129383e+00,-8.892724246359135165e+00
2.741950508321380653e+00,3.929488713340995254e+00,-9.003965039229155920e+00
2.724168750120313121e+00,3.822678330210765640e+00,-8.911259262541120663e+00
2.728232536251935514e+00,3.881493285251987668e+00,-8.947785727990948956e+00
2.679394275877347020e+00,3.813736681764096303e+00,-8.994341884474419402e+00
2.685945855646428182e+00,3.799240373501189261e+00,-8.923138769474327603e+00
2.830740006597324054e+00,3.858503847944285692e+00,-8.965883945708212011e+00
2.781028104007005730e+00,3.839291887223798216e+00,-8.932693083430493175e+00
2.742651871143828579e+00,3.853311426176718957e+00,-8.968262119815616273e+00
2.759904903541123833e+00,3.829073508579293517e+00,-8.931209361264855318e+00
2.740990980781872643e+00,3.805290750286393742e+00,-8.892856856590794834e+00
2.727328891757884399e+00,3.820774675423382671e+00,-8.975304893061057498e+00
2.737150353565041883e+00,3.779390444660137849e+00,-8.965463969180468951e+00
2.723655867743477454e+00,3.797136260461917434e+00,-8.920258183839633759e+00
2.847615873772749495e+00,3.793448832180373209e+00,-8.850193203182067592e+00
2.723845074020111667e+00,3.785630991555382074e+00,-8.812152737972649419e+00
2.809745041926853037e+00,3.741700524302424835e+00,-8.831489522422501182e+00
2.816409225686510087e+00,3.779961670349494263e+00,-8.937723404050545994e+00
2.758456311361313418e+00,3.702362077135300300e+00,-8.994443081262158302e+00
2.786558587328079817e+00,3.775672661632782479e+00,-8.909584657519575401e+00
2.821834966121747001e+00,3.839851325569596519e+00,-8.821004811786696820e+00
2.819673616743993971e+00,3.793251896626221420e+00,-8.809289573357784064e+00
2.791195180333495784e+00,3.804188674515553537e+00,-8.933533567930899366e+00
2.858429533227711428e+00,3.748058459439981949e+00,-8.855708352204880285e+00
2.776161073385551958e+00,3.796750545400057408e+00,-8.903761532735611439e+00
2.750787584273355790e+00,3.726194965880627041e+00,-8.939903809776728494e+00
2.792799665130215381e+00,3.783542829708314681e+00,-8.922900428794003247e+00
2.854011922241030064e+00,3.774069683421704458e+00,-8.836755461063722450e+00
2.812407420006698633e+00,3.818876880831875376e+00,-8.760367672162098884e+00
2.833434092334242038e+00,3.765639009747058008e+00,-8.834511661694035567e+00
2.823125954392514014e+00,3.774260782628840794e+00,-8.850058959627787658e+00
2.767487784042436783e+00,3.756709446049561141e+00,-8.845057397420127643e+00
2.757666336624637449e+00,3.730460415346162240e+00,-8.895612050291715533e+00
2.778389034094979948e+00,3.736821207385882637e+00,-8.857244655512023002e+00
2.726120769410737665e+00,3.700949923879017778e+00,-8.920092554019074527e+00
2.816839917133392657e+00,3.731078783620083605e+00,-8.904370936856834007e+00
2.882136966623413787e+00,3.722698652035850930e+00,-8.929823843138628092e+00
2.834770694581362882e+00,3.738976482443267635e+00,-8.877937864339706664e+00
2.706069813704676807e+00,3.782743890129585118e+00,-8.829417402188264319e+00
2.855302275745699170e+00,3.654332321130706607e+00,-8.822726959006583769e+00
2.721491419652173338e+00,3.767434965211059250e+00,-8.945647057890811382e+00
2.887431300525580724e+00,3.706646706025314320e+00,-8.708920698523144210e+00
2.801301367361285433e+00,3.748434301886927944e+00,-8.788644103816826814e+00
2.789373657406517992e+00,3.761044335616500423e+00,-8.826854977378669531e+00
2.798638663422325035e+00,3.794619034717973349e+00,-8.889216216133940307e+00
2.771665169128068040e+00,3.801739991732766555e+00,-8.873738601192014741e+00
2.769147652488740619e+00,3.725543688957679844e+00,-8.850242437320984479e+00
2.803928502828936686e+00,3.785208306444673987e+00,-8.795632975882153204e+00
2.825535819478367738e+00,3.725760424024771922e+00,-8.760734377170159348e+00
2.826053494713849368e+00,3.763162546960979515e+00,-8.792111352140421943e+00
2.776487411458131049e+00,3.705368179964179998e+00,-8.845570388252411931e+00
2.795813450993277716e+00,3.750145542138801691e+00,-8.852572191001348401e+00
2.906703509975081978e+00,3.701416697488590035e+00,-8.887913591152608817e+00
2.890835807726125584e+00,3.754073077744579212e+00,-8.836733718677804106e+00
2.786653523995833215e+00,3.740992454765121877e+00,-8.754693021207874182e+00
2.791398026491842987e+00,3.757365465348561084e+00,-8.771612970608194004e+00
2.757909871393889656e+00,3.722049326155342452e+00,-8.887959551334175146e+00
2.903352132966529275e+00,3.654512629031438475e+00,-8.792129669921665780e+00
2.836403728300877169e+00,3.732822551672715150e+00,-8.764152372552031167e+00
2.882775442397444543e+00,3.719710400949286733e+00,-8.839787217197089930e+00
2.864268411289398131e+00,3.678244688316057331e+00,-8.806914623523713459e+00
2.860857892021969384e+00,3.697694795132487666e+00,-8.732611527508082006e+00
2.814233814709399262e+00,3.659072444992756967e+00,-8.923398292985449842e+00
2.875690762481302176e+00,3.746753152904382489e+00,-8.758655511672252203e+00
2.822954093305706014e+00,3.664383683333177100e+00,-8.753888371379783706e+00
2.855494677394724068e+00,3.659971478494394859e+00,-8.670636732985007811e+00
2.879032270445986974e+00,3.658020419069097251e+00,-8.784903534383360579e+00
2.809844551808494018e+00,3.705264395855942805e+00,-8.863314991551986211e+00
2.864694999307471512e+00,3.665412637759563719e+00,-8.882991399430590462e+00
2.891092095092248293e+00,3.620707753343338720e+00,-8.834934762647677076e+00
2.877850552098959902e+00,3.635793019835131812e+00,-8.874025230197652547e+00
2.860062411656013381e+00,3.692836188270306241e+00,-8.785146985663095265e+00
2.842616742979497957e+00,3.675931917889680989e+00,-8.890515046489758433e+00
2.884284275630651262e+00,3.613515052767142244e+00,-8.810047826486943734e+00
2.867678068071438435e+00,3.674600075178207081e+00,-8.940879782530814168e+00
2.880642319663456519e+00,3.681654234012701199e+00,-8.687107636125016796e+00
2.878327151798541372e+00,3.688698601181073844e+00,-8.772355384833232961e+00
2.872309974997494741e+00,3.690829189625473461e+00,-8.727339489278117313e+00
2.876627198144599440e+00,3.671095589845466467e+00,-8.771439369392719954e+00
2.843333895151730406e+00,3.657051067865514593e+00,-8.749946987892727179e+00
2.872680420857702810e+00,3.706048604108530764e+00,-8.649622384907454276e+00
2.892477985634145821e+00,3.672074465119357534e+00,-8.768279780366519560e+00
2.906776011893370093e+00,3.591947145624680537e+00,-8.778968795891969989e+00
2.848615808056883303e+00,3.655292564150150803e+00,-8.714303528691479173e+00
2.895414028289946984e+00,3.628029008930718557e+00,-8.763498887022226569e+00
2.891999982588013385e+00,3.615365534727294605e+00,-8.652330495012458655e+00
2.903295671895099073e+00,3.552745897943511810e+00,-8.743802199431208066e+00
2.872522396578424342e+00,3.602415558420529962e+00,-8.857770258555778042e+00
2.848024441842518240e+00,3.614905899123660227e+00,-9.765150147040582596e+00
2.937378252530839617e+00,3.633789669401971789e+00,-9.814963780452277575e+00
2.978042969374794069e+00,3.661567005929091234e+00,-9.749645154444010586e+00
2.901486759482297728e+00,3.599072043038123780e+00,-9.736985513079696730e+00
2.867849668299865762e+00,3.549110652270267341e+00,-9.912238611656171372e+00
2.876990444601764452e+00,3.633654978027906157e+00,-9.719149496123547394e+00
2.906336631740169540e+00,3.628243619034035028e+00,-9.702644919333900830e+00
2.887327967809724338e+00,3.619773375134374138e+00,-9.722459867836636960e+00
2.888851788841366286e+00,3.616831457212083212e+00,-9.815072961180648647e+00
2.901258503260404353e+00,3.590962105607211186e+00,-9.708642962884686867e+00
2.856080239340084592e+00,3.583594891407662963e+00,-9.754122342490003206e+00
2.890556179494220945e+00,3.623503270866883508e+00,-9.740926284191397500e+00
2.930035564780713031e+00,3.590272584155746127e+00,-9.787482798643008408e+00
2.879209304944851944e+00,3.585884310218635740e+00,-9.707633810208081471e+00
2.977655058005081568e+00,3.602232714135686464e+00,-9.715608885591940691e+00
2.909834810697319529e+00,3.676367855872939128e+00,-9.850575698560641413e+00
2.988432857881771820e+00,3.582739466264998285e+00,-9.705221102897091612e+00
2.868371840864149203e+00,3.493095563180165897e+00,-9.712857162601029160e+00
2.888299837237465528e+00,3.535136861776276174e+00,-9.690422000895981824e+00
2.915010949878901858e+00,3.575197204696614950e+00,-9.660940389865269040e+00
2.913457105490752319e+00,3.522521563626704655e+00,-9.690768419220949781e+00
2.888690500989105736e+00,3.534482835959015912e+00,-9.614537995977062934e+00
2.866098334413461401e+00,3.572516381232408555e+00,-9.748406617630605453e+00
2.912433073478111201e+00,3.557735470375437359e+00,-9.733890283495686191e+00
2.924604895041898800e+00,3.527122506447126771e+00,-9.636413572437493968e+00
2.938679988715160896e+00,3.550446446011283896e+00,-9.682678440516600205e+00
2.915657128073398940e+00,3.531582238975618182e+00,-9.698767169474542982e+00
2.932531589718061937e+00,3.504035535893824882e+00,-9.622251830468311340e+00
2.919111719870506771e+00,3.548761149783081326e+00,-9.707774596968755887e+00
2.969051074810578061e+00,3.498814598944850029e+00,-9.761278849304963146e+00
2.947156896832995532e+00,3.477747154021734843e+00,-9.828532791803773705e+00
2.945724617576324089e+00,3.450066917392889287e+00,-9.639554907360384561e+00
2.863898531337933484e+00,3.487296967539474046e+00,-9.684055841210074789e+00
2.833988090125662662e+00,3.535555797828460634e+00,-9.759964392434797631e+00
2.991759833991480377e+00,3.548572894038371839e+00,-9.712827055855004943e+00
2.927138042332125600e+00,3.507393703532268869e+00,-9.533009861842582922e+00
2.974824237546423333e+00,3.503963599443655319e+00,-9.569658354347982510e+00
2.926588079383789509e+00,3.541656185558845316e+00,-9.643685292537087506e+00
2.924117906538240330e+00,3.510453571980405751e+00,-9.718522944787013174e+00
2.939770835877569155e+00,3.500661376149559967e+00,-9.723018108852258479e+00
2.946151608479309569e+00,3.605453567613662980e+00,-9.774570220722340608e+00
2.916012163603770802e+00,3.435767341304602152e+00,-9.706161999975133625e+00
2.893512879396340054e+00,3.455462288433165607e+00,-9.636559106743414205e+00
2.897541176402437024e+00,3.433324616382099403e+00,-9.625662338392382722e+00
2.995968480590341709e+00,3.493762098221176338e+00,-9.669622181433817687e+00
2.966448831273731379e+00,3.547748745624016653e+00,-9.603724085765996676e+00
2.945919158698810492e+00,3.475600555488212784e+00,-9.686480074501369941e+00
3.011733466962905670e+00,3.512313018435766931e+00,-9.635445174764559084e+00
2.926603070448539956e+00,3.509192895634341891e+00,-9.619119431522696217e+00
2.997452663766828174e+00,3.476674802528456176e+00,-9.734090834566945460e+00
2.886508346343692910e+00,3.502544788708746193e+00,-9.565112459106074994e+00
2.992409886185300572e+00,3.502737613041579046e+00,-9.623428220813751821e+00
2.969388212178210029e+00,3.499566721355768628e+00,-9.485213816611629767e+00
2.991629173988112456e+00,3.468111061336898171e+00,-9.537775358508547185e+00
2.981247509269276286e+00,3.506398192165957273e+00,-9.759482890127054944e+00
2.970848627709923750e+00,3.475339227167292488e+00,-9.551186445765118549e+00
2.972453807721585850e+00,3.417575703272100363e+00,-9.666619406859796371e+00
2.927308985793853235e+00,3.432785852382755021e+00,-9.688876835394278686e+00
2.951039220650657491e+00,3.409487514874538050e+00,-9.554244859641610077e+00
2.936913214065608457e+00,3.386788273142951500e+00,-9.686218999293460641e+00
