gyro_x (deg/s),gyro_y (deg/s),gyro_z (deg/s)
-1.103127385233651364e-01,-5.204141103687908165e-01,2.663277558320150118e-01
4.928764400697630554e-01,-3.925498684310654851e-01,2.129885267916565572e-01
1.547266896285736104e-01,1.126673894516646013e-01,-4.656855214974361390e-01
-5.930445446163034040e-01,2.179715612563988825e-01,-1.966730968449412753e-01
6.509621778531817782e-01,1.755465206678188672e-01,2.513980449203961562e-02
-8.281142313436700153e-01,4.253688935643790830e-02,1.102370223769460061e-01
1.917971904794529836e-01,4.595344543736882281e-01,-6.780219376466792292e-02
-5.846783435223452674e-01,2.449612578668990126e-01,-7.471022075584167199e-01
-2.604264865799219009e-01,-2.065808072057243594e-01,1.972567096443086088e-01
-6.029865843247288471e-01,7.431937957311827991e-02,-6.880171811346987853e-01
1.774156041614842125e-02,-5.239230499986519130e-01,5.652826034787120091e-02
5.561658294921907331e-01,-2.043950255371332347e-01,-6.229849175304704723e-01
-2.768060665155158695e-01,1.655931092974334898e-02,3.445369236441521155e-01
1.020420289196411062e-01,-2.031257296548116126e-02,-8.383470456157988693e-01
4.387619779342870063e-01,4.592866820056177302e-01,-5.226567370822605696e-01
5.093873087719164895e-04,2.569439987794210345e-01,4.769224518127699874e-01
-5.961053485594900447e-01,-2.348615703981176417e-01,9.439742146788725197e-02
-4.055428188669224498e-01,-4.987757787550127220e-01,-7.311419767474214293e-01
-2.629320650339520560e-01,7.455867493440957450e-01,-1.095869310268749341e+00
4.739485268482843822e-02,-2.273974660341373522e-01,2.621571755028931361e-01
-2.787568678122182564e-01,4.580074231680444363e-01,4.618174073080115183e-01
4.425697430626526208e-01,-2.061627567998497168e-01,1.732783887639016973e-01
6.120747432422891238e-02,8.947955112301498870e-01,-2.220756025084262286e-01
-6.602099555961454813e-01,1.964001962127602807e-01,2.282074152518901167e-01
1.282367471824129024e-01,-4.130711760034917468e-01,-8.199744536154275620e-02
3.118727637013208320e-01,3.862762951856663629e-01,-7.586185015655576569e-01
-3.345990600267771953e-01,1.461804007729048671e-01,7.762782798858495203e-01
-2.239873788695203871e-01,3.265797888738960486e-01,-8.365350070192852927e-01
-3.702895719784381479e-01,-1.359900358399542541e-01,1.237860564666066893e-01
-3.783044038510297025e-01,-5.705952488771486308e-01,9.073555754068783619e-03
5.324378163298084665e-01,1.440049287555420277e+00,3.199218618557246874e-01
-1.796221732058951026e-01,-1.272936110723477121e+00,-2.637097277495966674e-01
-5.295107626486407204e-01,1.907616538935419728e-02,2.448974197027372068e-01
1.016466841794327891e+00,-2.348641240258549923e-01,6.197557048314812356e-01
7.371393437923844383e-01,-4.129118541179434970e-02,6.176829016351504942e-01
3.535194334359187951e-01,3.145806343584265363e-01,-6.159504022871355872e-02
7.469044145461820605e-01,1.731746039708486617e-01,2.930940209232217319e-01
-1.014883191405281937e-01,7.577561382561232017e-01,2.637492658868413886e-01
-7.514750755666464721e-02,-4.082507675668329283e-01,-5.051840856187309603e-01
3.148196195010558585e-01,4.890956405810080176e-01,1.750646567448540802e-01
-5.042473038084416270e-02,-3.653642905399489549e-01,-3.511896217969263101e-01
3.634359500714830493e-01,3.819846197208725536e-01,4.185506824838553658e-02
1.872264906425556430e-01,-1.447646801860789922e-01,-2.194009583019233267e-01
-6.010129826862736779e-01,2.155285229446098679e-03,1.070737939339634126e+00
1.180453767011770648e-03,5.550379899152388941e-01,-1.787235013075861856e-01
1.903977855057112645e-01,7.183629216654613403e-02,4.040054043020926966e-01
-3.226008264775325762e-01,4.756502535745526367e-02,1.163731443737615390e+00
-1.833315584222230607e-02,-9.048550948651137849e-02,1.032254491078823389e-01
9.361766948327883420e-02,-3.049278585064532088e-01,1.088230775448318033e+00
-2.791066445154179454e-01,-2.709927226799556128e-03,1.296210620071480135e-01
1.425999405132183651e-01,8.230937488421161685e-01,-3.921948630606431618e-01
-5.695456805130478806e-01,1.543890620736939612e-01,-2.283591441276611525e-02
1.296039041812436232e-01,-1.102385211122644398e-01,5.802560223272116291e-01
-1.217920923034085945e-01,2.857700637127825183e-01,-2.994843618773769256e-01
-1.427062510311086496e-01,1.014473063820647392e+00,6.144931919130586229e-01
1.256463743806053024e-01,-9.231285399397558267e-02,3.334008262976342896e-02
3.251416807764485606e-01,5.189094099226149170e-01,-6.832882519695414603e-01
5.229595187674983270e-02,-2.823074414531762111e-01,7.231856704149774995e-01
6.273151771479709149e-01,2.696945311774170406e-01,-1.866258959960557517e-01
-4.640957956817907959e-02,-1.131807898302671228e-01,-4.315955555031891211e-01
-5.097297962464522048e-01,-6.686768674018525593e-02,-3.528709134180210705e-01
-3.293974594205898998e-01,2.759553049844004624e-01,-3.212155935339313095e-01
3.365865433923444922e-02,2.319479690516563497e-01,-2.070296211918805640e-01
-2.080226485097393940e-01,8.504547603409449985e-02,5.427108414436601080e-01
8.078134811245795133e-01,-5.416767022120037023e-01,7.009202324827887853e-01
-4.232223699072278911e-01,5.541736453919441363e-01,2.557257948078222043e-01
1.003635278640445383e-01,2.518575622501513789e-01,7.030387870187256860e-01
-3.033354048428658079e-01,3.696541547382077297e-01,-4.338340138681329172e-01
-2.740350716227913930e-01,-3.224627918710942232e-01,-1.011512567800342044e+00
3.255907335693635773e-01,5.087113188907562700e-01,-2.415762285725220893e-01
2.493317782426158688e-02,-1.623932913923173404e-01,-1.174449766352694935e+00
5.604031570095439375e-03,-5.944295061662596691e-02,-2.878058783596657011e-01
-2.387916194764618805e-01,5.170562094562169975e-01,2.426250662966657479e-01
6.071311911002004180e-01,-1.461148128745068664e-01,2.962319550879047303e-01
-3.116014036870016768e-01,4.090054360571094769e-03,-7.450251357329016333e-01
-7.072159828539743842e-02,6.448677061460732218e-02,-2.945603503788594701e-01
-2.574257089117632513e-01,8.548288192112264705e-02,-1.218926204087246584e-01
5.695964417979653138e-01,-4.303581514212444920e-02,-3.533086195351426428e-01
-3.083902185262094586e-01,3.355084042029605196e-01,4.825954834263264659e-01
-9.926574330114110167e-02,-1.532205140820701306e-01,-3.621409883119468542e-01
-7.633887821070847179e-01,-8.300666958515335869e-01,1.754165680572788433e-01
2.078341566382870542e-01,-1.855478172828265715e-01,-8.048871897663818498e-01
7.398584549502873475e-01,3.954858869654025444e-01,5.780521824847096868e-01
3.401526173246368079e-01,1.484672025369841164e-01,-1.280718641656506673e-01
-3.378682831840558731e-01,-8.461757745791789187e-01,-2.383039903372968088e-02
9.146757067989069734e-02,4.019064551551722042e-01,-9.857666141825785489e-02
-1.100793122744721936e-01,3.007858703598416117e-01,-6.271118991806318155e-02
-1.179052560308271741e-01,-5.381520815271564340e-01,8.850747665688632471e-02
1.570758337647751024e-01,1.022063172560186306e+00,-2.330754193383842710e-01
1.270924862449324677e-01,5.720586782996883030e-02,1.005832491648853244e+00
-4.625870943426468873e-01,-1.371885808327020229e-01,-5.229964371876566487e-02
6.422678045321422724e-01,6.391491700827777178e-01,-2.515331364131944691e-01
4.863022831201290197e-01,-7.916703962435345590e-03,-1.254775967313283558e-01
-5.646421474877331148e-01,-1.531945143267464948e-01,3.169208612844640616e-01
-1.885590000818440082e-01,-1.000465897435800278e+00,-2.490505422218020903e-01
1.133153493162167622e-04,3.442555444692020350e-01,-2.612564173026282743e-01
-6.633244552330087862e-02,-2.303932233069561075e-02,-6.284473896420746941e-01
9.259655585424741986e-03,-3.271829566884545959e-01,-4.318297414594779449e-02
-2.980791055065367678e-01,-2.446874678590031105e-01,2.328560160644097821e-01
-3.614473167032753453e-01,-3.098683587178956422e-01,-2.366657521506471407e-01
6.999199219499932512e-02,1.068063660455682434e-01,6.069790440543521015e-01
4.686187131515096027e-02,2.306659285265647286e-01,-1.177950157486085531e-01
-4.639105091789781921e-01,2.818459632590610275e-01,-4.489058364196298889e-01
-1.147054559634672344e-01,5.735129558207322509e-01,1.817410962922468010e-01
3.116998116705308464e-01,-4.519769132978977005e-02,5.330440361028743884e-02
-1.014667749561782184e+00,4.432350440639941380e-02,-5.839027187587214965e-03
4.981781181731460006e-01,-6.886877231223259566e-02,-7.967102808099234545e-01
-3.678964123751679582e-01,-2.056501660732324710e-01,-3.391903043742128809e-01
3.200326537868192212e-02,-3.318059799139797539e-01,-9.847177599366808975e-02
8.105281717116789020e-01,4.944226259480630215e-02,-3.678795989840539793e-01
-2.716674154807147135e-01,2.053444719166249988e-01,2.864979841248843639e-01
-9.721892901200305248e-01,-3.172497966244550160e-01,-2.524425948898872396e-01
-8.968317859940741488e-02,-3.605175218749887001e-01,-6.271803378829065023e-01
-4.361609453547152793e-01,-2.925014602102322114e-01,8.457653592613646396e-03
-7.249237790817552041e-01,-1.579196548196754313e-01,2.710526529521247729e-01
-8.614695271437077251e-01,5.051480142118571770e-01,-5.269011920241070124e-01
-5.325470276949418880e-01,5.704826684325585706e-01,-1.637063142837904550e-01
2.252641196981212124e-01,9.127242542143313431e-01,1.306599175624411080e-01
7.241749315123197084e-01,-5.082104155851450145e-01,7.794865628464541230e-01
4.915136006832568349e-01,1.015847367249004402e-01,6.377085134877399919e-02
-6.891564031159524983e-01,7.249180370238765825e-01,5.403866533127024141e-01
-5.235497953347680727e-02,-2.298955986182928124e-01,-5.011239082528793493e-02
4.504726674945747078e-01,-3.450883514926114670e-01,6.924772380720592979e-01
-2.223357331921345104e-01,6.412707972732939465e-01,-2.041709208853184077e-01
-6.252122275755596092e-01,-2.428350633538688130e-01,-5.436477892496563991e-01
5.094259129742169101e-01,2.183170293301787135e-01,-6.222646642838629560e-01
8.310515319815509061e-02,-4.084170679257306119e-02,-2.963677760898471569e-01
-1.254156906383672443e-01,-1.236099855199334907e-01,6.159756994116635104e-02
-3.586000701959228820e-01,5.971010090184302177e-01,-2.947865189480324832e-01
6.604106340774916761e-01,-2.844838476740128574e-01,2.082253645316281265e-01
-3.347891287552491324e-01,2.400591365576798530e-01,4.908381679601178105e-01
4.112816240171378035e-01,1.028960421202785414e+00,-2.777604622379862762e-02
7.983262831921178471e-02,4.967472496807580629e-01,-1.304439324276437939e-01
7.615032393511397268e-01,7.883830932819950454e-02,1.720675922751198073e-01
1.042037897608655062e+00,-2.032175714604891100e-03,-4.556834976337925669e-01
6.159269754153153670e-02,6.420923263331274056e-01,8.173233132779783583e-01
2.916085637359563387e-01,-3.233884538983309853e-01,6.617860814121028223e-01
7.774735780090965553e-01,-1.331428194678478671e-01,4.067770931206178830e-01
2.753617692151649060e-02,-2.005431053794326512e-01,-3.233619472724801325e-01
9.970007628533451571e-01,-3.862268399238540928e-01,2.260159362041522235e-01
-1.995772833533546176e-02,1.818332734083668023e-01,3.452972422698101229e-01
3.466601415110608930e-01,-3.269937314585627530e-01,5.841783446545242287e-01
2.450273466630156771e-02,-5.923071648353582519e-02,-1.711122498444938023e-01
4.156769311608441986e-01,5.460794258200166729e-01,9.900611416076300353e-01
-1.161718807426297823e-02,-3.825848692838221266e-01,1.570441221522959341e-01
-5.633026222819930151e-01,-2.731098809294336266e-02,1.347738526080671517e-01
-3.443282387899666008e-01,4.870745431045603313e-01,-1.328959402053236094e-01
5.788828993940999673e-02,5.733148671944764130e-02,-2.879453643134664564e-01
-2.763777127664466815e-01,-2.911709247622288332e-01,3.520885830462854860e-01
-2.819852054668287034e-01,4.988201400720676526e-01,-1.398421830748353134e-01
3.319291253235263639e-01,1.418738333274773278e-01,-4.621567107256580598e-01
-4.922926779996310565e-01,-2.066412882799644260e-02,-3.383975057334624448e-01
-1.355840547474799207e-01,4.376159529175964458e-02,-3.617776710263762574e-01
-2.540053024995834186e-01,2.838343512320511963e-01,-1.050238433488091400e-01
7.005675091225458881e-03,-3.698920991706029088e-02,3.315648372915134257e-01
4.351508175814302049e-01,-3.032417265008880980e-01,4.277310104134650626e-01
5.704702754621989585e-02,1.861702477127316069e-01,-1.744176764145234648e-01
1.013556403603316364e-01,2.477892550669747729e-01,8.280155056890858845e-02
1.504479932751743854e-01,2.696523402996872099e-01,-6.402847190872165140e-01
-2.001604430583657501e-01,3.572986511394277143e-02,-1.296340841490695450e-01
-1.457732915352353831e-01,2.666499763215253171e-01,9.515890021802839160e-02
4.304209700120184556e-01,4.093698772797562668e-01,-1.053065325426904703e-01
7.203701375013040753e-01,-1.241478442439477720e-01,1.225073203461227944e+00
-2.529688281098809166e-01,7.991889783093061861e-02,3.276350358412708497e-01
-7.777725552815735188e-01,1.025196455705631005e+00,3.087939709537852462e-01
1.597719395197052805e-01,8.427606976005417305e-01,9.523066638143963258e-01
6.326716355739232522e-01,1.399386092295301642e-01,3.424554033859542046e-02
6.656467446237575025e-01,1.593901188423519077e-01,-2.716362195895571235e-02
1.193177474212293344e-02,6.372628118443766088e-01,-7.495441104902881291e-01
-5.951189910435429331e-01,3.893493432580594771e-01,3.143024341795891408e-01
-1.748206146449094445e-01,2.641948256040840826e-01,-1.004181192608445822e-01
-2.585322778591839787e-01,-3.311902155473328002e-01,-1.130021292719634099e-02
6.330060536968099560e-01,4.166283147208542093e-01,-1.797619858746374588e-01
-8.166411385445799809e-01,-3.793800868148844985e-01,6.021923582596712121e-01
-1.782623695850408529e-01,-4.293997169110101708e-02,1.094908578342962575e-02
3.819699140403360338e-01,3.333160001935018268e-01,1.429287142356374940e-01
2.375863627020900204e-01,2.162183837307972770e-02,4.917986951899921411e-01
8.057111638782789020e-01,-5.677512520346476160e-02,7.862508674003954035e-02
5.502761112186080848e-03,1.147934297969517153e-01,-4.577519238455129286e-03
4.325197762930691608e-02,-1.574554624837795347e-01,7.847843143795031617e-02
-2.154315832093285643e-01,-1.714937564953140370e-01,-3.845133123356179738e-01
1.923500036781500000e-01,1.961872034617087313e-01,-9.748999156905765670e-03
-4.596275388199136391e-01,-4.591713873804603024e-02,-1.461687986691383723e-01
9.675555675252371646e-02,2.662619125905442696e-01,3.976634399551812193e-01
-4.737444800611548962e-02,1.799075880381469927e-01,-4.127190024629862619e-01
3.482232332172076616e-01,1.901027631357956604e-01,-1.186447416044951811e-02
-5.763280730332732693e-01,9.004572531531994384e-02,-4.024019358870394025e-02
9.779718062832581937e-01,-7.653624164098321581e-01,4.366554170692894532e-01
1.482126969953794227e-01,5.510092106810448032e-01,8.214041242382920105e-01
8.655748301866214023e-01,1.549052889394613719e-01,3.330825837991489569e-01
-1.972742546399827157e-01,6.290374459059766554e-01,-2.783216536857225920e-01
9.172274881013264825e-02,-3.442943820301769819e-01,8.219547351114266792e-03
-2.777413510880566427e-01,-2.807781471468011603e-01,2.045200275268388157e-01
2.155657695291892384e-01,9.998886562555141244e-02,8.099799521070454311e-01
7.282194452184479472e-01,-5.415533294828136501e-01,9.940505805942344286e-02
8.843687316935240350e-01,7.516625612345048668e-02,2.738247751584532153e-01
-1.019555415383176372e-01,-3.485586887381779131e-01,-4.134681854630925524e-01
3.901715331760272076e-02,7.471049817324523223e-01,8.229630118450743936e-02
1.531101672182160200e-01,1.578869006246002016e-01,1.719105693029434612e-01
9.873878318232388873e-02,-1.024745552082136357e-01,-7.877531440615455349e-02
-7.725572286915652342e-02,-3.483201849793202687e-01,-7.018265689600939883e-01
1.661264295767483357e-01,-5.812149681871007223e-01,-6.007630787427912233e-01
-2.772977575230553549e-01,-5.435705043903539257e-01,3.627325215224371652e-02
2.960901610021646202e-01,3.779409088545837014e-01,-2.349486819526618031e-01
-4.065332347110064415e-01,3.701219734867293443e-02,-1.717871448480242647e-01
2.702865624366146968e-01,-7.949759151558388748e-02,1.960830974441434282e-01
-2.670607575924558441e-01,6.465583585455736415e-01,4.517727335558663349e-01
4.510235156532525075e-02,3.211162036936225928e-01,1.690101778992330606e-01
7.012957927435886640e-02,3.955181914376428021e-02,1.994429771987853428e-01
-1.493729347542909203e-01,-2.123215708528355949e-01,8.995279190885066556e-03
7.066483999722875664e-01,-3.931058248525787224e-02,-6.881111539031152802e-01
-1.447384379595569037e-01,7.092963704644504874e-01,1.553390263096684487e-01
-3.237898521624856807e-01,-4.777450385154269341e-01,-3.858885606743470698e-01
-1.498338595824540709e-01,3.688752235374708199e-01,5.864619484423370249e-02
9.988189705949228336e-02,1.090873552741909308e-01,8.039713349848223167e-01
-7.426706495573706102e-01,-4.061865132242462040e-01,2.899052392581395465e-01
1.387308928740583092e+00,-9.160657283921100347e-02,7.853142780279681601e-03
-9.354374606867325859e-02,-7.860756674588201820e-01,-2.121596080531213957e-01
4.077869789071542767e-02,1.257432766545837632e-01,-2.411567017431269777e-01
-4.249675018578789598e-01,8.067564691794075482e-02,-2.563440391876238289e-01
2.312892500738641388e-01,-1.236058033056756988e+00,-1.079080194323498720e-01
-7.705256145123203781e-01,5.376875505373157615e-01,5.527180031279312900e-01
-2.576638848375005786e-01,-8.024549278350159853e-02,-7.297792835716019333e-01
-6.478834784989886408e-01,1.016244226846246157e+00,-9.750512942363000202e-02
-9.074382722903674425e-01,1.303930256321193526e-01,-3.964506857959718689e-01
2.435742560702618686e-01,1.610884944276755604e-01,-6.651519971894072347e-02
8.531654286371219420e-02,-1.247181848403115280e-02,4.013868980327323088e-01
3.494321442821679002e-01,-5.902467292227105977e-01,-1.302452786595042489e-01
6.196634646197754503e-02,3.520484269391765952e-01,2.175091039996951414e-01
-4.714878276678516333e-01,2.779798444618164499e-01,4.952521715468691244e-01
-7.917369649639699469e-01,2.543075975086799279e-01,-2.559276045220759688e-01
1.803447801073098933e-01,-3.245590447407677437e-01,-2.706464401572595824e-01
-6.156718128706007570e-02,6.761901323557963916e-01,-6.720892856572961982e-01
-3.448666108609994008e-01,6.260822999695908608e-01,4.156084469250308742e-03
-7.549525505499070366e-02,6.747740989476813667e-01,2.181611414132202109e-01
-3.005479714447906181e-01,3.250141380718079565e-01,-2.176421949831287839e-01
3.847029565649121019e-01,-5.864651447350049951e-02,3.530752736576594497e-01
-1.127506883653280889e-01,1.932751947592765696e-01,3.335008948011087826e-01
-1.290637425439465358e-01,-5.191885380095597746e-01,-5.740763362833042338e-01
3.263794370860390592e-01,-2.905621758892730222e-01,4.270118564196619393e-01
-3.517235993449987497e-01,-1.086511277659796548e-01,5.006169871135811994e-02
4.762909797765328968e-01,-3.251456389180142903e-01,-4.622055038402702043e-01
1.071921024386385778e-02,-7.833814654691124701e-01,1.239709022157192394e-03
2.131422542345579596e-01,7.269772659383687552e-01,8.617273366525516343e-01
4.494546311908758501e-02,-2.311310375158104058e-01,1.796537140593294779e-01
-7.477864272296697035e-01,-6.317065492594088616e-02,5.894863243496345495e-02
-1.149749466137615361e-01,-1.232233774339226706e-01,-3.358381172301278528e-01
-9.267942041027124045e-01,2.133874655467755677e-01,5.209795145278746098e-01
-3.855046821234144327e-01,9.909025370132631405e-01,-1.694924857513762095e-01
-4.557250634267968614e-01,-6.899773541243723329e-01,-2.665897399963481629e-01
7.146545901207099760e-01,-7.127097499465633312e-01,7.637017907441479014e-01
-8.392135894782302152e-01,2.559430888821088712e-01,6.360662957998358680e-01
4.846252564065423041e-01,-4.661828940563705892e-01,-2.137880447758475633e-01
2.000461412861360977e-01,-1.439010170543567613e-01,1.389372094950251935e-01
-3.100200982746902922e-01,-9.818949443095296992e-02,-8.340481896884686108e-01
5.287907290411434369e-01,4.216738385093523056e-01,2.296825947661604306e-01
3.608395437605448897e-01,5.499816722443678918e-01,3.172989263788217884e-01
4.374161660861460021e-02,-4.306611489849644370e-01,6.000891053826049593e-01
-1.429886629155222022e-02,1.035481599015216914e-01,2.536679611337683271e-01
4.161014253314515576e-02,1.414421772248898868e-01,1.463393300621649573e-01
-8.250482973075184967e-02,-3.828817575891856340e-01,-2.840713983173747681e-01
-3.790733800605067261e-01,3.517230001239807780e-01,-3.148240027196790303e-01
1.043734051625876180e+00,2.480654569664376974e-01,2.101701552733452605e-01
6.670288993673724187e-01,3.935896781807049494e-02,6.200153654124572478e-02
9.765979861045899491e-02,1.381603459624366204e-01,1.211105636442388195e-01
1.042380884902628820e-02,-4.185904250827769402e-01,-7.991964895519827472e-01
-2.984024496887110467e-01,9.942270421587735829e-02,1.869708915679532679e-01
5.870434254896080700e-03,-6.995756179287266896e-01,3.794700430530730806e-01
9.304886848774603925e-01,2.599523277421565415e-01,-5.551493296533849264e-01
6.045272803293083586e-01,1.542960437181581101e-01,6.122762197314416234e-04
2.084201815722085682e-01,-7.165717962253194129e-01,5.091713356211018393e-01
-4.552969266053789599e-01,2.107392405000901026e-01,7.053229789215940126e-01
-1.851737292326903206e-01,5.766180158919189669e-01,-1.371700618152792983e-01
-2.919709325886091222e-01,5.905671762514602685e-01,-3.914084755550250594e-01
-8.142992345499480700e-02,3.626014253648791597e-01,4.985252454863297461e-02
-1.947688312445078618e-01,7.166009212989737920e-02,4.462016084448418574e-01
-4.253748468301268154e-02,-6.155255301400744394e-02,1.641953913670135268e-01
1.031921402204005522e+00,-7.019418791877155561e-01,-2.125791987777732872e-01
-5.784225714284120523e-02,-2.500803545258603600e-01,-8.552485913987083188e-02
-8.958265991852507049e-02,-3.281486968270476701e-01,-3.130910255192932978e-01
4.553011050339437760e-01,-1.055969663277324777e+00,-3.935389340780348633e-01
-1.130709026187201732e-01,4.584372442519707991e-01,-5.340362097602738833e-01
-5.082960335592617840e-01,-7.385095667716788659e-02,-3.847219835445185865e-01
-3.335602319977722940e-01,1.621734418695149005e+00,-2.583148122936900215e-01
-9.357650698699954139e-02,-3.873530158622306985e-01,-3.421695378579331370e-01
-4.893455565899249016e-02,4.791404862956067379e-01,-5.522102022344245187e-01
-1.263106990740221758e-01,1.682879212371208577e-01,-2.247700491957209668e-01
4.669482719539492233e-01,2.715045397244414405e-01,1.789471943567292334e-01
3.502609408509662625e-01,2.427817110662644773e-01,-1.446999657671435013e-01
8.203416391011421060e-01,-2.007415813825989825e-01,4.021448340046004932e-01
-5.750841381318232831e-02,-1.516445389679617617e-01,-5.661307827575330631e-02
-2.020320101796366230e-01,4.521645015822507996e-01,-1.907003468878036567e-01
-5.372940385376038380e-02,6.413854912069787417e-01,3.728184336141530664e-01
9.962966834836656238e-02,-1.848215291219389989e-01,-3.547231257776140567e-01
-2.603848854706039551e-02,5.541754727377689038e-01,-6.489203781821307748e-01
1.932957690178141452e-01,-8.849345683817265440e-02,3.423905562916572665e-01
6.645378015206304667e-02,-3.096860589647810191e-01,7.311209739881452396e-01
9.872935155200003587e-02,-7.845668688092788390e-02,-3.724885327700376281e-01
-2.605473492386839451e-01,1.258083979801567220e-01,1.271172342430428426e+00
-4.678920661583924057e-01,-6.189897050512200433e-02,-7.704804605937676243e-02
1.588621696248515569e-01,7.006553712663224909e-01,6.806420585289074676e-02
3.553800750266902786e-01,-4.741236994464321786e-01,1.059921743640129393e-01
-4.735836656759374041e-01,-2.393830711000464184e-01,3.459043826457731674e-01
5.701806500898520813e-01,1.129615432111517014e-02,-1.763465037078517372e-01
-4.054018305126861899e-01,-2.357582421745950119e-01,3.724165174215234853e-01
-2.909319575831184057e-01,-4.331959345334009948e-01,3.503873252949593065e-01
-2.406878633873144602e-01,1.023099048624015600e-01,-3.475155919019961570e-01
-6.262688018496782860e-02,3.006844999752568137e-01,-6.417197907981697647e-02
2.152574645370445017e-01,-1.095147814957942584e-01,-1.117381263395325952e+00
2.804563847969184787e-01,-4.999061314681136348e-01,-5.642648618643382186e-01
-2.429050988602071970e-01,7.335978491559538676e-03,-3.620176258271203817e-01
-2.333114037946711905e-01,-2.248610956290604534e-01,2.775866730586138975e-01
2.305887277895671550e-01,2.438964842996605986e-01,9.016067638970601261e-02
3.474173094765329317e-01,-1.022855037604828654e+00,-3.316092904753593085e-01
-9.653769957845586003e-01,3.069698703015216745e-01,-4.056511431892275699e-01
1.401277927174043869e-01,3.174967810770819576e-01,3.894028670539379511e-01
3.805812345718327661e-02,3.969400138264967959e-01,-4.523221270334407684e-01
-2.638669794704271987e-01,3.283630631522510002e-01,1.362183020597383491e-02
-6.775380436113073168e-01,-3.238338442224744096e-01,-3.481573307700069342e-01
-7.766523699437931638e-01,-4.360277737840763113e-01,6.657402327019608379e-02
-3.072284329692817617e-01,-1.606418963975982384e-01,3.094999528475715356e-01
-2.578222801862001951e-03,3.331839692500768169e-01,-1.534847046702335349e-01
-5.431155107628645728e-01,-3.423213533432079014e-02,-2.305899418164389370e-01
5.281968683350473093e-01,-1.056566710083577831e+00,7.944960559648438225e-02
-2.862268705960162030e-01,-1.866505693772730068e-01,1.192064463140068531e+00
-5.215534008428165391e-01,5.481524938211207454e-02,1.194460633109853953e-01
1.030893728099015333e-01,4.571963147116826498e-01,-5.638202395954537982e-01
2.135090568710228121e-01,1.586977817381542977e-01,8.372103462006398322e-01
5.867791598619096632e-02,-3.446157167541106792e-01,1.685219564682806093e-01
-1.109740997590764611e-01,9.875671110366419925e-02,2.881288583860899810e-01
6.441528951807722336e-01,4.400808986554937685e-01,-5.851004275381297415e-01
5.021111914916305263e-01,-4.596014501281157072e-01,4.592740646130060722e-01
-5.961837235854110933e-02,-1.017153757910423284e+00,1.136377314210199052e-01
3.988611395260590609e-01,6.327611167520658109e-01,4.287880207238711772e-01
-2.739060074991129246e-01,2.065818707285984879e-01,-7.450892990260093995e-02
1.470000701756458139e-01,-8.569068120661257892e-02,2.046680751278561194e-01
9.003784280389106609e-01,-5.635180571494282642e-01,8.506560736454538141e-02
-1.853115257667881932e-01,2.667386981276871905e-01,2.308393421293297443e-01
-1.405328422338875949e-01,4.410052056159198819e-01,5.700265354371925053e-02
6.377045945461502496e-01,-6.834953101009360044e-01,-2.820118854910399001e-02
-5.984111436648912319e-01,2.806407418832216893e-01,-7.061644281847736515e-01
2.799100957642930432e-01,1.806816285935164967e-01,3.169849387884323133e-01
3.249865792843261714e-01,1.895911347682499026e-01,-4.161843496107215934e-01
1.570196445010436093e-01,7.471589065012087527e-01,-2.813704956735942897e-01
1.063280626427263488e-02,-4.640360395931787396e-01,-2.870797746265373318e-01
-3.735642774525493870e-01,3.900405156497422920e-01,5.295481516101070429e-01
1.949371327206015359e-01,4.015372699011913182e-01,4.327920644502384340e-01
-5.724017260982458000e-01,2.784329042603310156e-01,-3.547698122656358644e-01
3.050609502151558350e-01,-5.882728265906917997e-01,-1.070476971553572465e+00
-2.302081133662897128e-01,-3.013843111427957355e-01,-1.761813367431653565e-01
7.309111608938079208e-02,-9.014702726796486321e-02,6.816810305106308920e-01
-8.186593908087606009e-01,6.440214201525797932e-01,4.733148850588600465e-01
2.086721435767682209e-01,2.110791885064386697e-01,-3.385548428002785326e-02
1.872460089608136702e-01,-3.479669102552915838e-01,3.553230893892743714e-01
1.825820914258526884e-01,-5.747611533149387109e-01,-2.635894391732280795e-01
5.795605214154884166e-01,4.276739018015593974e-01,-8.623787192117996492e-01
3.531430572772130128e-01,-5.441565581482462610e-01,-1.591719794734312576e-01
1.157413631504640023e-01,8.590655437693459628e-01,-1.084952841706745275e-01
-3.341071904468553289e-01,2.736586840982545010e-01,-8.363644905725495238e-02
7.140635053218086226e-02,6.546004075713039994e-01,-4.873363260496723637e-01
-2.385878079738693036e-01,5.468279340996535787e-01,3.224218293187347539e-01
-2.521480721197282282e-01,-4.104613153946167631e-02,1.347572968180823783e-01
-3.514719227939191448e-01,-1.138450093927721035e-01,3.883393196365802352e-02
8.642589532866086499e-02,-5.311360860360038461e-02,-2.377604021953332591e-01
3.645549790752034003e-01,-6.678679572503695150e-01,1.147532760889116987e-01
-3.610781673707982864e-01,3.739734818707055042e-01,-1.583300276602437884e-01
-3.851850788305528073e-01,4.749230135821793652e-01,-5.400263854424131038e-01
6.183529379133856363e-01,-2.602604940412943657e-01,5.207091840428111906e-01
5.751396153678812739e-01,2.405600795227092869e-03,-4.370638579413217428e-01
-1.076402842861362008e-01,3.247509548342331076e-01,5.356733785540218618e-01
-2.972727603591184820e-01,-2.497575246676395078e-02,-3.299830506142414910e-01
1.561617926275247759e-01,5.359875451161099091e-01,-7.434749753047723564e-01
5.441274773184433533e-01,-2.974701642063147244e-01,1.215470717803499301e-01
9.218153283434211975e-02,4.081266961266116766e-02,5.032147224864704643e-02
1.418769578171671375e-01,-1.672879082969389308e-01,1.503440474693048534e-01
7.130176026831330782e-01,-1.954670533671625243e-01,1.106473985026925344e-01
6.704364386622531091e-01,-2.641170487222818108e-01,4.364648269993635643e-01
-1.279715144664786142e-01,3.736841580990571954e-01,-8.207822383081088136e-01
9.849960601446802744e-02,9.180250818078171393e-02,-3.828651221895754686e-01
6.821248937589354799e-01,2.036417797974824362e-01,-3.714671974850897729e-01
4.973876656352160808e-01,3.030401440968640003e-02,2.863866638882281990e-01
-5.785482054413474545e-02,7.386003676762562531e-01,4.984449280602166743e-01
1.491566894096628924e-03,-1.111691646239692938e-01,-6.613709794536275499e-01
3.279249180363829064e-01,6.392079129141691185e-01,-1.071784123633126029e-01
-6.849610054522883296e-01,1.855145654444536885e-01,1.392040063027874530e-01
8.300946757394328523e-02,-1.655922669231732203e-01,6.796647365641088623e-01
-7.318293968985044307e-02,-9.064631125473043838e-02,-1.933769203776361800e-01
-3.044460148274323943e-02,5.271300255868267559e-01,-4.995508515103870284e-01
4.722653931399544563e-02,-8.908123349751867481e-01,-2.681684474797837447e-01
-3.221139609419208516e-01,5.699976049349568807e-01,-3.960779079376138823e-01
-8.689193861556229748e-02,5.654720878592314204e-01,-1.361571500853329120e-01
-6.764393951093489177e-02,-6.329744719751595472e-01,-5.912516068507874811e-01
1.419968155548920370e-02,1.621353037436526756e-01,-3.282801120878314771e-01
3.740782749988961764e-01,6.327612690874858670e-01,1.514069647598723090e-02
2.161380694260078492e-02,2.562913402737347912e-01,-6.541776857186225591e-01
9.924794026924588231e-02,1.448250665614611021e-01,1.051671072576613186e-01
9.945624683601345106e-02,-5.982623523660109133e-02,-2.508617124647104513e-01
5.291459324698658540e-01,1.946985534683075003e-01,2.782513725687305083e-04
5.703851390695723333e-01,-2.233379628760392421e-01,-2.439084297505791088e-01
4.636367532995625679e-02,-8.400642307591547897e-02,2.647067011696554450e-01
-4.737944315200210976e-01,-4.563832791072169326e-01,3.528695769757774769e-01
-3.608579657987263239e-02,8.315067397296070639e-02,3.444313530161607906e-02
8.113073357739556402e-01,-1.891541349740644418e-01,-3.702885003059456226e-01
4.410799827064917356e-01,-5.544708594730108908e-01,2.667732861624952378e-01
-8.124382135872499910e-01,7.513136244108807871e-01,-3.003572847704321092e-01
-2.828881443460378731e-01,-4.071260920103335068e-01,7.735651479090333883e-03
6.122763007410174652e-01,-1.629623394688555632e-02,-2.136677789307722120e-01
2.541697149469903105e-01,6.311253985496805274e-01,3.415901331529397345e-01
3.876464657292896243e-01,2.268644079524004958e-02,-7.596019871034099813e-01
1.248403924786249120e-01,-8.352987217183855950e-01,-2.962036534805065902e-01
5.900767517084223313e-01,1.794752086874045749e-01,1.050452449160916624e+00
4.633609157203018580e-01,1.790951607852676597e-01,7.095260929320902354e-01
-2.575488775341722714e-01,4.090097714308137400e-01,-1.157588352031676121e-01
-7.198451094049435062e-01,-1.766887732570822933e-01,-4.699697873074276111e-01
4.985823752756783911e-01,-3.012954190998925474e-01,-3.874980116626573490e-01
4.922198610108850514e-01,-4.854874200131624289e-03,4.808448388389270634e-02
-5.088633200622416641e-01,-3.174440919432775510e-01,4.287627315968703390e-01
-1.815765618121879255e-01,-8.857695566663191522e-02,6.855624935005799614e-01
5.724607815419676671e-01,-5.935221270375610203e-01,7.015504832991249495e-01
-2.662349306471244459e-01,4.007089258330893689e-01,-4.653626180735709883e-01
-5.034726966324122310e-01,-3.189636348332547944e-01,6.588032513513956134e-01
-1.913515046572620282e-01,-3.340709887589118909e-02,5.368729777726732877e-01
-3.280208701817730055e-01,-5.213609648785431754e-03,-3.267919607961384809e-01
8.778715609923920526e-01,-2.434679461782998378e-01,-1.031095155594107665e-01
-1.730630188555645210e-01,1.313508578256944226e+00,-7.349803776291968793e-01
3.990828551986917994e-01,4.749640145970892569e-01,1.909431420219066255e-01
3.685561542492765130e-01,-4.469788041259524225e-01,-1.907399902969627858e-01
6.125979040127523673e-02,-4.022716343216308776e-01,1.435074192855465836e-01
-4.661121317628762473e-01,2.356627836439286749e-01,-7.086420737336471265e-02
-5.248502838383611868e-02,-7.025703508928288210e-01,4.074270894991272041e-01
1.272431082591065632e-01,6.783798814345333161e-01,4.315622674093873012e-01
-8.897121176298710132e-01,-1.648430285062892353e-01,-3.128362276379514362e-01
-6.879706557809918133e-01,-1.125750070818047344e-01,3.851379506943397035e-01
9.061079664395876865e-01,-1.410083514654330572e-01,8.120862599544123039e-01
5.606708381763293725e-02,-1.360208175054676838e-01,1.031299706361141322e+00
3.611409706204135595e-01,-5.180422783735944003e-01,-3.295277001148796958e-01
3.350085615659124105e-01,1.254898292296651729e-01,-3.089134928270089175e-01
2.391809317554766945e-01,4.502044563216590078e-01,-8.343115158249244656e-01
1.821818315305381575e-01,-1.856687667239980133e-01,1.124845200484917013e-01
1.804595596249443379e-01,2.849154005316045790e-01,-1.168236783142083679e-01
3.152297297878893234e-01,5.277410873985134421e-01,7.337760887480997418e-01
3.000040195835652901e-02,2.883644732493155227e-01,-6.743805751619086353e-02
-7.110012730678723879e-03,4.536545107596286486e-01,1.863262544044896052e-01
7.772444406384568238e-02,4.329801841555407926e-01,-2.249504555983825038e-01
-8.708253715867162459e-01,-8.682962824251070355e-01,2.955716331468611346e-01
8.699876657305579686e-01,8.671881971702836145e-01,3.232097195620267649e-01
-3.425949673765047842e-03,4.902475447876784020e-01,-2.452869127405741811e-01
4.507213564979614118e-01,6.211527066568020006e-01,4.556155445696088990e-01
6.286222702622027425e-01,-1.017132323529718191e-01,-4.008996883715708059e-01
2.787215513396185118e-01,-4.597622913448220494e-01,4.813213598533042092e-01
-1.386049495626611727e-01,5.152376560295897079e-01,-6.814584035811379614e-01
-1.015162705823133837e-01,-5.654019850714019357e-01,-2.645000401125026102e-01
-1.302451144750449985e-01,-2.666917276449795038e-01,-1.444491213660738238e-01
3.546997242496957581e-01,-6.626389214202543787e-01,2.283962929767251737e-01
-1.499297797668377730e-01,-7.306739651677583991e-01,7.298213881457365007e-03
2.036237104383150365e-01,2.264652693042318657e-02,-2.521756221346952431e-01
3.562826208020320462e-01,-2.407151937053423618e-01,-1.535799054384515416e-01
-9.728821410594007402e-01,-5.744816790218478658e-02,3.514805391050515038e-01
4.289293644815934253e-02,1.691533883417851991e-01,-1.051857943275335550e-01
-5.675382351301161421e-01,2.007722829838490264e-01,-2.854542398200624054e-02
7.979161027634744385e-02,-1.527929191500647099e-01,1.226478544984428570e-01
-2.649893042546428990e-01,-2.420420103814754087e-01,-3.847518408465306905e-01
7.668489670843117167e-01,-2.006313426222363916e-01,2.737834565814316612e-01
-5.279930849930780656e-02,1.997701226790971063e-01,9.510068797890994241e-02
-2.698054677379773669e-01,2.738286650521568055e-01,2.832855216542414789e-01
-8.356620214797069179e-01,7.814258546111059189e-01,4.610899484633312340e-01
1.042170112508913893e-01,-4.169164877231577582e-01,-1.111523654016510071e-02
6.955715198448307879e-01,6.805232711797119111e-03,1.373285719280362971e-01
2.683032013912427516e-01,6.017382653466173126e-02,-2.642764523568467971e-02
-4.017571989850198255e-01,-1.983746964494887965e-01,-2.864275610838512478e-03
2.343116765144202807e-02,2.211054964863366085e-02,-2.028923507491132150e-01
-4.586692262827993805e-01,-3.525220661764434382e-01,4.564235702882443180e-01
7.061611426704651473e-01,-1.902030032228302636e-01,2.523415493950691424e-01
-2.321234260703632923e-01,-1.671923375835574488e-01,-5.790549250962928260e-03
-1.847097312822712223e-01,-2.757936166959104041e-01,1.611861571912477642e-01
-4.506172896775040293e-01,2.760346526355845209e-01,-1.952566473452105600e-01
5.685318435531226955e-01,-4.359200157539084852e-01,4.274099864915451019e-01
5.201055648626435879e-01,-2.587790761321938082e-01,2.421974558656109500e-01
-2.617664157539676406e-01,4.489086246669426322e-02,-1.914699450326585728e-01
2.796629420918585462e-01,4.397196545046517802e-01,2.978351008355535900e-01
-1.757094486616996368e-02,-4.701540583134164453e-01,-1.154957441999996809e-01
3.285103883420054660e-01,7.979602977800672736e-01,7.819756169860222483e-01
6.062052185362839518e-01,2.804802840198785674e-01,3.843703754298409270e-01
6.289543812719969318e-02,2.955626030531816051e-03,-1.032904881694812760e-01
5.131924124323267861e-02,3.314834441723597536e-01,-8.846635427426523257e-03
3.764248228653218065e-01,1.165992733285378391e-01,2.709635500396517099e-02
-4.830273872379434175e-01,6.267952438896361445e-01,-2.969128320117772613e-01
-5.969921250719638639e-01,7.399596708653677357e-01,-2.379643946445622604e-01
-1.397480555279155545e-01,-4.178727328782188243e-03,-5.118418193285734219e-01
1.226733023475367473e-01,5.122137410449550954e-01,-7.528074228863269601e-01
-1.854350785790747635e-01,9.850355556279621894e-01,-3.767476787445862008e-01
-2.695875170828957446e-01,4.180409577257787092e-03,-3.266257743621380771e-01
1.986890425099321900e-01,-1.095517429066396320e-01,4.956762987528750553e-01
-7.252419978437035786e-02,7.031050571774652980e-01,-3.469610706202916894e-01
8.818549968066146522e-03,2.581840043854303768e-01,-3.011153173177177900e-01
-3.989145352186034832e-01,5.780919327527949125e-01,-4.520239484741190861e-01
-4.426642051606113903e-01,-2.002675748439770864e-01,2.852136200945585287e-01
5.656570091524133481e-01,5.063851105244457917e-01,-2.668969190187391316e-01
2.906688258713156503e-01,-4.580011291957631347e-01,-5.386350342997755503e-01
-5.763506136967446736e-01,-4.014213482030806746e-01,-1.062890824061233364e-01
-4.748715834449175888e-01,-2.950851704809634435e-01,-2.911876456230970134e-01
4.809908335863050666e-01,1.169908001384463159e+00,-3.120852596547347702e-01
1.027363437689199799e+00,8.133429282032081931e-01,2.196096644603853787e-01
1.337665459175025884e+00,1.987406767748129133e-01,1.294833695895603043e+00
1.246819775042678158e+00,1.629287691476194455e+00,7.527283029002836967e-01
1.581768698309009347e+00,1.168978271110218570e+00,-1.540913233045254072e-01
1.278119214550333060e+00,1.719000620800143375e+00,-1.317805677551855958e-01
1.870123148100390820e+00,1.843126385054171257e+00,6.786020881978047647e-01
2.116370142653913433e+00,2.513627160082530398e+00,-5.095294726919148420e-01
1.228849371706459026e+00,2.504359541312916715e+00,-2.331832514791815913e-01
2.235372964930575801e+00,3.151186363950628344e+00,-4.213385259497605118e-01
2.183320425201972448e+00,2.844053050564160579e+00,-2.987740589418848569e-01
1.690261315969759925e+00,3.333357917426962302e+00,2.656531780682080401e-01
1.986738407418677577e+00,3.498071967277682770e+00,-9.980090862253368500e-02
2.571473271183740916e+00,3.016909992287636122e+00,8.830782796083920250e-01
1.845813904051894827e+00,3.728318644256226388e+00,4.910803734862461689e-01
2.105932926592875898e+00,4.236819655872036350e+00,-1.413070781788744457e-01
1.653028737332173481e+00,3.938846965947419232e+00,-4.537481498925608481e-01
2.946692104919861777e+00,4.137387845049577351e+00,3.622556591106505797e-02
2.396679135925192217e+00,4.411152827090337070e+00,3.171430817150929643e-02
2.500443990817672546e+00,4.444578449429840816e+00,-4.568579456677993034e-01
2.580602966268555232e+00,4.053526779573679129e+00,-3.477522610002157788e-01
1.930751587548914738e+00,4.215960401042062600e+00,4.245743345274882175e-01
2.386457759822688818e+00,4.710118473038422238e+00,1.794890186621679595e-01
2.189101280599497379e+00,3.851143636677670123e+00,-3.877967147009166449e-01
2.155822974012149285e+00,4.352759031680892399e+00,-5.077282991967737580e-01
1.882106855987547567e+00,4.358145743692816154e+00,7.485805098940803703e-02
2.228166380982154138e+00,4.592849804407674874e+00,-8.390198921443282609e-01
2.669070080774534670e+00,4.079796632816685253e+00,4.521502462933375821e-03
2.196320479342288134e+00,4.089488551113214854e+00,1.949579401256116007e-01
1.960158588486085263e+00,4.064414713489086672e+00,-4.644888874022943259e-01
1.851982660785607804e+00,5.167444867514594975e+00,-7.961539195541966762e-02
2.523075794793981697e+00,4.611518194512918889e+00,-5.901325843917939462e-01
1.959081641424591069e+00,4.794321053967831148e+00,-6.229303537174564198e-01
2.515404950720798727e+00,3.419240294151344006e+00,4.281999126342817541e-01
2.666822991260868303e+00,4.062425751462376056e+00,-5.736472933742464697e-01
2.307472842083895248e+00,4.341399682256758652e+00,-1.815712681454814126e-01
1.408793319896434859e+00,3.478798372067601896e+00,-1.952529092405613231e-01
2.188754749767743313e+00,4.920177411189938788e+00,-7.469980195797841782e-01
1.891312471178148602e+00,5.295371764574687390e+00,2.186642001873324581e-01
2.059749040193434411e+00,4.562416867429794465e+00,-1.943806763203540233e-01
2.342338625258958640e+00,4.539732324045734124e+00,3.690422149118809114e-02
2.449049295125315329e+00,4.397120528858599720e+00,-3.803915506643772426e-01
1.654586438884576571e+00,4.006517056250193498e+00,-4.313882680021035032e-01
2.704311527985779673e+00,4.083736221163989377e+00,1.734216765451842557e-01
2.170969528891730782e+00,4.417111657026397076e+00,-4.561881838798507727e-01
1.841849804216476372e+00,4.333016585604728910e+00,-7.264796368746273547e-01
1.835562725444808141e+00,4.516659995369781910e+00,-3.371329023081603427e-01
2.784557522077990122e+00,4.771790027598976636e+00,1.931047290996851518e-01
2.248116639223194380e+00,4.159555133187051723e+00,-4.065070445356834816e-01
2.533418448227320763e+00,3.646539051106105322e+00,6.568258282760042199e-01
1.599502355469361703e+00,3.812038844773727231e+00,-3.081503828092742037e-01
2.953032873460376795e+00,4.636429182036516217e+00,4.782357076088444847e-01
2.060179003427486943e+00,3.280169242993542955e+00,2.059539299097115084e-01
1.976562459769883429e+00,3.779672286699418127e+00,1.551085931029978493e-01
1.616219638195020236e+00,3.938686337247707669e+00,-7.683890175346613782e-01
1.880653011861272983e+00,4.141383825657020346e+00,-1.744844884257362380e-02
1.717371471454957499e+00,3.122604909460983347e+00,6.314208725115516563e-01
1.842860766998971167e+00,4.265656785653190397e+00,2.831612008391869995e-01
1.931789661829477645e+00,3.258157986114889493e+00,3.736476745436567715e-01
2.038944425492294599e+00,4.184465152701350554e+00,4.758303196914064892e-01
2.470903767199622791e+00,3.999709530883855724e+00,-2.785989509584371748e-01
1.759232410237281830e+00,3.489270265707704155e+00,-1.385647201735714429e+00
2.723025850969286399e+00,4.603882328120509904e+00,-4.721724592745694671e-01
2.226651789398568226e+00,3.635716035071987040e+00,-2.569113960749945247e-01
2.693824394319039417e+00,3.492859587362211915e+00,-1.946301740339697883e-01
1.787145352266914289e+00,4.684417986355489560e+00,-4.084649838509242792e-01
1.553748683344349901e+00,4.280795653355958130e+00,-1.368159724354726103e-01
1.892650407701861104e+00,3.020935169164614464e+00,-1.054203871206731868e+00
2.015791365124909085e+00,3.492769056298078656e+00,-5.318163776503894713e-01
7.181985993618538178e-01,3.497434512565709142e+00,-1.014847571347803346e-01
1.705489058789691592e+00,4.939700504404509473e+00,6.589456382982082916e-01
2.338384662285950544e+00,3.951728629385391045e+00,-5.631227289129740743e-02
2.398620378995211411e+00,4.196655708924318162e+00,-7.146441558648904957e-01
2.047739768873181987e+00,3.450910250103880195e+00,4.666478409344285705e-01
2.004065392679731605e+00,3.086374116925405531e+00,1.077039051731673060e-02
2.028685975645866613e+00,4.198027881541162465e+00,-2.265344368119841245e-01
1.668189847067597764e+00,3.882398973008869270e+00,1.961360365116262272e-01
2.349812529782650206e+00,3.777385227316134575e+00,4.874371336595800241e-01
1.739781359469638966e+00,3.715025119070537674e+00,-6.048568991097003078e-01
1.689429190679482939e+00,3.179875935451613067e+00,-3.475615584749657816e-01
1.916330905580637012e+00,3.298273041949147277e+00,2.542551818253096507e-01
1.452797992422776518e+00,3.782224689033838239e+00,-2.199258278850222403e-01
1.335763943360587458e+00,3.907211477677582145e+00,-9.509693246053386728e-01
1.922317186848856663e+00,3.101542022530743736e+00,-5.551161441364727694e-02
6.813472719401295619e-01,3.530705351962896366e+00,6.065324367079487633e-01
1.388248759728467618e+00,3.905788507230198103e+00,-3.400925504699212065e-01
2.264374525416068984e+00,3.319296256473083240e+00,2.268795454376623943e-01
1.524327388384088211e+00,3.320391627868555684e+00,2.210921944161097497e-01
1.917905180844875268e+00,3.482791886688722194e+00,-6.715421339835170311e-02
1.182093716056273891e+00,3.263174558887540044e+00,-6.662345837556853390e-01
1.923485498474034161e+00,3.495855990597275476e+00,-2.572547221814512897e-01
1.482128686389030836e+00,3.531193501364743526e+00,4.230691729936176815e-01
1.000235164814455402e+00,3.915057011983152702e+00,-5.122526539226670561e-01
9.889808282083462077e-01,3.544442178363276685e+00,-2.269914482685996548e-01
1.558956056933734846e+00,3.351787135602529499e+00,1.788124249907594721e-01
9.860378509618275000e-01,4.577929674130001736e+00,2.471080140056674257e-01
2.056949776394220386e+00,2.721379975853606581e+00,-3.788578281995012564e-01
1.404165941732846701e+00,3.626775683211954426e+00,-6.200759341606219138e-02
1.965852846683262767e+00,2.907712731497173131e+00,-7.762146659534375770e-01
1.065748362408971639e+00,4.073471880586825300e+00,-8.882255509363357060e-01
2.160492938965809628e+00,3.590518870784067840e+00,-2.013159532615836356e-01
1.404299302455981557e+00,2.706335211781037309e+00,2.700791915030914536e-02
2.550918179818999931e+00,2.473075945361218331e+00,-4.861723921417083760e-01
1.812749927066712452e+00,2.653228611509348855e+00,-1.475976825505921283e-02
1.696671985746097455e+00,2.856414523962738539e+00,-2.646545304834648990e-02
1.703759812458674361e+00,3.933799403525069405e+00,-8.787523974125251991e-01
1.211013055770342906e+00,2.805423392922907766e+00,9.236362312690364895e-01
1.764287545975333549e+00,3.156187848167706367e+00,4.618491315388132956e-01
1.899889119717889541e+00,3.653311424875735458e+00,3.031189033979362723e-04
1.094506616572633595e+00,3.376727004653762965e+00,-6.764229409985652586e-01
9.764551100710175957e-01,4.373978516463940203e+00,2.095721166999752610e-02
1.788802997813311757e+00,2.943995360330223576e+00,1.164056577991902236e-01
6.915460610838721767e-01,3.253040136732439969e+00,-2.452479992413919008e-01
1.777953543756270793e+00,3.341756863826261803e+00,2.425980084272822412e-01
1.186282192218515608e+00,3.574427011520616482e+00,-5.509802039013641517e-01
8.568490558636404630e-01,3.336387811851797114e+00,-4.716219960574313252e-01
1.970317740021924502e+00,2.868554131720845390e+00,2.179668919915735970e-01
1.276030786374875436e+00,2.800262576540539783e+00,-1.598293357155318173e-01
2.090792988856990497e+00,2.737744308993309783e+00,2.854364554551664934e-01
1.263740733396629290e+00,2.451662475908846783e+00,-2.959081807192408264e-02
1.506233696260499855e+00,2.566451108934326264e+00,-3.895124165832117291e-01
1.032744489118229358e+00,2.593056640897704934e+00,-1.053239588434087409e-01
1.254341118931878718e+00,2.838163234826641013e+00,-3.929324401048226584e-02
1.203454685452941986e+00,2.454631557071042636e+00,-1.420626958529862816e-01
9.628775565443838946e-01,2.808842808150223469e+00,-1.879125108299098401e-02
1.554378772919167373e+00,2.037438758655876203e+00,-4.756853324793839516e-02
8.832054697705653545e-01,2.939879501999187461e+00,-2.640915852870727720e-01
1.131444931210847216e+00,3.354133656120453111e+00,-7.755049544243482196e-02
1.730409350098851107e+00,3.183886342377765466e+00,6.085442240181901385e-02
1.886889052213424067e+00,2.854046632302305930e+00,-7.958843179759360620e-01
1.042630081219649618e+00,2.985439539919954033e+00,2.427896626459221940e-01
1.781132818106890836e+00,2.610672214286955839e+00,-5.104808910466622773e-01
1.710169264784723309e+00,2.356794453742072637e+00,3.356706561152673629e-01
9.083065642724293953e-01,2.645070382173671852e+00,9.242254650030590213e-01
1.586690334298950900e+00,2.354832791915193457e+00,2.856859681858451294e-01
1.475355116212994977e+00,2.636106451443132492e+00,5.143193756401698291e-01
1.763463151067675927e+00,3.350373521552130196e+00,-4.547468562463971020e-01
1.236747524373945861e+00,2.405507000874411272e+00,1.439037723486786269e-01
1.248976695856348185e+00,2.269059628776795901e+00,-1.326737242159019281e-01
1.152596766100490999e+00,3.077940534404127959e+00,7.834055506969873905e-02
1.246166858648729558e+00,2.123435780160339625e+00,3.437126450604721661e-01
1.453649191253411965e+00,2.057194752211203514e+00,-5.482883307593661160e-01
7.380267957533980239e-01,2.242558196338105603e+00,-1.590131382459253617e-01
1.426334979947817105e+00,2.957621239652697298e+00,6.802457324600388877e-02
1.295023790569228561e+00,2.151625463621342327e+00,-2.070195838101750521e-02
1.570027961587159737e+00,3.192341503338695041e+00,-4.001874699488204221e-03
1.123900962117190261e+00,2.905992517000628439e+00,-5.081716707145181866e-01
9.224790204062781607e-01,2.757374073667401504e+00,-1.155949817072104979e-02
1.455765070213921319e+00,2.786908149296284609e+00,3.999561988272795077e-01
1.221077703210966092e+00,3.484352853372675973e+00,-6.993720056695360565e-01
1.228938555897583162e+00,2.223547236924501735e+00,4.595471856118318876e-02
1.085955089412120378e+00,3.112746180417941044e+00,-1.122029847567540123e-01
1.414812159029453564e+00,2.465287117243699200e+00,5.100333074260205990e-01
1.370533866707669413e+00,2.243608895130330350e+00,9.330583536023849545e-02
1.237378715203779844e+00,2.071726532776736907e+00,-2.753976479195168747e-01
7.953075526427848541e-01,2.957857408225973650e+00,3.705753036537862144e-02
1.230930787756231215e+00,2.463946190682676285e+00,4.293283287183564667e-01
6.032736816555638315e-01,2.073187758491950472e+00,-7.857013039911088237e-01
3.982557786686645729e-01,2.630646504453898693e+00,-3.481878410381016309e-01
9.097290439151085595e-01,2.166016877128130957e+00,3.228400571507747396e-01
1.101111338138814677e+00,2.285910184850295845e+00,-1.587101186842179990e-01
1.047767719873484049e+00,2.758017130480005630e+00,-6.459937992586696209e-01
1.843737173159993858e+00,2.166840915894360009e+00,1.321068100606212214e-01
1.001021041809958323e+00,2.165728880290513469e+00,-4.309066807817977796e-01
1.597605501974316500e+00,1.948701105415939772e+00,-7.895816659069696541e-01
1.632553662902704206e+00,2.207021001410667260e+00,-3.774831088140173097e-01
1.426331797410377300e+00,2.321080420294580726e+00,-1.469186371123977486e-01
9.602407416865990086e-01,2.428312946361375957e+00,3.536062327437449193e-01
1.305382220693378281e+00,2.075910071375651533e+00,2.849717155355161458e-01
1.190636817967227090e+00,2.282727313359041332e+00,-4.039347361525138375e-02
8.823158902095544764e-01,1.972091195480075942e+00,-2.065620443818236840e-01
8.528750018950241873e-01,2.276113215492584718e+00,2.646946290249544975e-01
1.548805816120731427e+00,2.055144506479485766e+00,3.773938279083674519e-02
1.350884654396343976e+00,2.969596074872164149e+00,8.263904501672003633e-02
1.332703305864024967e+00,1.418530481659028508e+00,-2.785837452546934268e-01
1.102964256296018686e+00,2.344861441596401086e+00,-2.191705226782567351e-01
1.354512917513756909e+00,1.772195190769981998e+00,-9.356508615547263208e-01
1.040603789387402500e+00,2.531938459225177684e+00,4.378906379801709714e-01
1.014341079582433247e+00,1.951433504767345672e+00,1.775435087802123002e-01
8.113717706665447560e-01,2.668035174333876380e+00,3.361178115969838398e-01
9.065963083043512283e-01,2.586387803327186319e+00,5.621109634250261999e-01
1.032861899871103883e+00,2.372379854911205399e+00,3.011244104159480073e-01
1.809400207048768694e+00,2.626896812331738218e+00,-2.506239942527938580e-01
1.487563342597872484e+00,1.466238518593303342e+00,-7.366353262665485957e-01
1.400674145718028507e+00,1.754855151357700871e+00,1.794171568240041648e-01
7.210732881169837905e-01,2.050332103654493920e+00,-7.037113204656217369e-02
1.124024830131181485e+00,2.198650617466158419e+00,1.997070254312959814e-01
9.416347824013695522e-01,2.070750547758961169e+00,3.213546416907394621e-01
1.427575249735622220e+00,1.792714605033753905e+00,-5.599279410108807253e-01
9.917696009800061052e-01,1.746728418411721773e+00,-1.869301952678258105e-01
1.228895271568788194e+00,3.064465517049456800e+00,-5.864129912678043288e-01
1.816135937592028293e-02,1.782515215722818125e+00,-3.453810552913917642e-02
3.564832665635355724e-01,1.958896861876476159e+00,1.075102964316940191e-01
8.765311548779610717e-01,1.985083817921180716e+00,9.738232796904869315e-02
9.462208760317499801e-01,2.122560191927644890e+00,3.010305535459093518e-01
5.914526525978998084e-01,2.524838799321227345e+00,2.270976438050030174e-02
1.697754229155400862e+00,2.889584908283338915e+00,-6.525839176431968980e-01
7.632589510776954800e-01,2.569334275305821258e+00,-1.148155999361085700e+00
1.094004913025611092e+00,1.571566981613854441e+00,-1.377749336795238977e-01
1.051633647496937218e+00,2.022110732697912638e+00,4.654941578872833219e-01
9.223823880644036466e-01,2.298484022526161574e+00,-5.208437159568660157e-02
1.051773255935300133e+00,1.728338535543900711e+00,1.045344710269011379e-01
8.958808191347575889e-01,1.803044193745070967e+00,-6.144555171440238550e-02
1.806204944927395140e+00,1.219989830035754563e+00,-3.343845813609026552e-01
8.536214316571244520e-01,1.879077696582498902e+00,-1.483801312097422220e-01
8.196895339311230932e-01,2.393598465625625504e+00,3.300132878936559155e-01
5.408565133540815806e-01,2.798522870778579641e+00,3.915926615531005184e-01
9.801924434041420220e-01,1.768680698918285277e+00,5.157521499981281288e-01
4.626909317102198549e-01,1.235933106418984018e+00,5.146295696553977450e-01
1.497886894725008133e+00,1.195308163313618222e+00,1.426366139809578937e-01
8.411105429570894243e-01,1.659036488026544243e+00,-4.779538390379378665e-02
9.904361580900399309e-01,1.614374986652788335e+00,4.439705603314007820e-02
1.503305437130228184e-01,1.951063871562020990e+00,-2.156933860671003955e-01
1.036692202770600257e+00,2.083791259905495963e+00,-5.550164890621726160e-02
5.228718195007233671e-01,1.779422980274771637e+00,7.126488991528263650e-01
1.102785913461150402e+00,1.883975349920171238e+00,1.959500508477941827e-01
8.467552614379781906e-01,2.261126783055987133e+00,-2.896531642356120484e-01
1.508403961581354702e+00,1.489252499002320373e+00,-5.175621991526297982e-01
1.276917281496066536e+00,2.047098768490605014e+00,-6.666333978882055256e-01
1.130412601000432060e+00,1.749716469609803315e+00,-5.351321822577139731e-01
1.159732507432544413e+00,1.944468593199854212e+00,2.086396844735694811e-01
1.166522508394416624e+00,1.431212702351555288e+00,3.458242517610223277e-01
1.295661437850676334e+00,2.441889648874815855e+00,4.891388515858595132e-01
3.039307697903489425e-01,1.454983769173603170e+00,-4.379752699142116512e-01
6.677786618304099031e-01,2.020129857069030699e+00,4.547281820103906552e-02
1.554683888792377511e+00,1.380950673815893426e+00,-3.793136024931149097e-01
1.303049919790743472e+00,2.255449990255568693e+00,-3.794382750768164336e-01
7.872942542590387616e-01,1.799234234721710513e+00,-2.884166475960077136e-01
6.096877985066647687e-01,1.830007164044535672e+00,-2.646023758846110518e-01
2.343041901055094300e-01,1.973549552088899484e+00,-1.585194840037217334e-01
1.048824181993546434e+00,2.078323560694103733e+00,3.349871124384793536e-02
1.156535577889562294e+00,1.598752405559628054e+00,-3.890780413286729078e-01
4.665144518910535054e-01,1.143679762013482870e+00,1.002420581394264598e+00
1.159549362253024629e+00,2.684649143769212376e+00,-3.763100384616670513e-01
1.097071006925988801e+00,1.678339130633560661e+00,4.687721781703377277e-01
1.017841546634343342e+00,1.146352716896857915e+00,-3.450390306270716412e-01
3.875309571376888140e-01,1.548474399044618810e+00,2.002378038812125116e-01
8.109326159944273416e-01,1.207734144371298335e+00,-1.685133112405277633e-01
8.834591840620795722e-01,1.451712123061415616e+00,-3.777217544700691709e-01
1.092417873192216282e+00,9.004230894726292789e-01,-3.398909637016442331e-02
1.008837864420224939e+00,1.793989118984447684e+00,5.331070323275093337e-01
4.179608770347124636e-01,1.953296668005711556e+00,-4.215709502200002401e-01
3.353675083388084066e-01,1.936567235655773711e+00,-9.849899775545693792e-02
1.132399734282316661e+00,1.640634074492249628e+00,6.197930596816124404e-02
8.788205708720097098e-01,1.087608692892324536e+00,-5.246896103282063795e-01
7.895452986768576320e-01,1.526028818429715050e+00,-5.097948958289044707e-01
1.157662850648152553e+00,1.386583490557882881e+00,-9.354499921355852177e-01
2.140355615217202634e-01,1.791334211308145408e+00,1.572577972067069549e-02
1.626315384094485950e+00,1.181200569922584265e+00,-2.121747155066337487e-01
1.150298419794325566e+00,1.735270890202217364e+00,-4.337637808157540631e-01
1.024484397412707581e+00,1.031510869234570027e+00,4.547611252293267681e-01
2.116566728703542788e-01,2.301313206738328176e+00,-1.735099432403605646e-01
6.975451340393309385e-01,1.431034947341733421e+00,-4.802547326487126567e-01
8.938419380840529893e-01,1.916993283877221455e+00,6.970544610583149225e-01
2.751066446415632583e-01,1.619670410913472525e+00,1.084312820839338776e-01
1.092221758406012766e+00,1.633511528543920788e+00,8.292275751642558257e-01
9.428560936564165385e-01,2.150153875874874831e+00,-5.402756260053820370e-01
-1.515074801849876085e-01,1.948340040717449373e+00,-8.639420322194202306e-01
6.784340993059030378e-01,1.528728257887597142e+00,-1.718213348974345078e-01
8.348681537403114250e-01,1.740980161083639066e+00,-5.306764506744270360e-01
7.703969767528456858e-01,6.675565168941612892e-01,2.938401970977377320e-01
6.953924128191929510e-01,1.721329741759835441e+00,-4.172522088917807181e-01
7.129744499733664531e-01,1.345301434612208746e+00,-4.411185050487944487e-02
1.379508123255424934e+00,1.455752105433006482e+00,-9.575097068984307278e-03
6.080842594725059946e-01,1.083003846714888807e+00,7.375298846213239612e-01
9.684280297162625173e-01,1.720131275974107865e+00,-3.009617010405391535e-01
3.554834049545111951e-01,1.894904486455057491e+00,4.219746071765231865e-02
2.784138540360296954e-01,6.280256939491919432e-01,3.162312696815788859e-01
9.781408642252976682e-01,1.878313283463992844e+00,-4.079594633060550368e-01
1.213974877466281743e+00,1.972744386300871788e+00,-1.833682015576117152e-01
2.161559301541082778e-01,1.478545729618631510e+00,-2.806352172670575351e-01
4.278361544151462748e-01,1.443521243542065013e+00,9.314532292586216178e-01
6.520748034596560161e-02,2.374432653639972468e+00,1.664605003647004200e-01
5.741507503917617772e-01,1.406994866238225228e+00,2.027961808741760297e-01
4.652365619382777262e-01,6.598689509468002035e-01,5.978255400643427420e-01
7.909828961854367679e-02,8.310880002765919095e-01,1.103574103313237131e+00
9.345608531913794648e-02,1.227957326311617692e+00,1.582329719385821565e-01
8.067607998337008590e-01,1.051932002217380369e+00,4.059781861685476251e-02
1.048295552756458360e+00,1.166944887686403032e+00,1.934527597112717656e-01
1.082853401257047210e+00,4.265836034167075907e-01,1.397534461626376290e-01
5.893461888841745600e-01,1.553695817357578113e+00,-1.104897793624025765e-01
4.881866754074457027e-01,8.872766782313813438e-01,-1.200999873689562042e-01
5.616451974809539838e-01,1.482822134601676334e+00,-1.916611607236511916e-01
5.519648673635489944e-01,1.631303018106069924e+00,-3.797062381890358579e-02
1.046517664514467816e+00,9.885500919207181880e-01,9.241124968510046056e-01
8.080474180918176819e-01,1.491163112335093688e+00,-2.958923866507154332e-01
7.397464308139408695e-01,2.327854794986204290e+00,-5.520600147998718649e-02
1.090194466565797216e+00,1.472041081095012194e+00,8.584702396986690354e-02
2.079968990142996299e-01,1.034378570630666738e+00,-2.925503670415949276e-01
5.186675596557821510e-01,1.490515054593424482e+00,3.896251417589087218e-01
3.477379380689206712e-01,7.903833614789980144e-01,-2.992462657743207854e-01
6.349940608744242265e-01,1.082431234062557479e+00,-3.559975516908867044e-01
9.739794316000108809e-01,8.744198201073959398e-01,-2.687258529876562774e-01
4.386976038699667013e-01,7.066419440975035826e-01,-4.746146118487418186e-01
6.574005949802539384e-01,9.135823597138744701e-01,2.686700777179276134e-01
1.414242809902019449e+00,1.484791516650847409e+00,8.038140965917971170e-02
1.369194419738956614e-01,1.660709340842441373e+00,1.441616400926120367e-01
9.737031383028922973e-03,6.558288563492017387e-01,-3.438886895377831765e-01
-3.964798820285182490e-01,1.564388255994179522e+00,6.557392532864526613e-01
5.176602690138591978e-01,1.181423391279312618e+00,-1.253378769785018498e+00
5.263621595378403795e-01,5.149388968454796656e-01,-6.303315354851414254e-01
1.398059794875453177e+00,8.624482829966845232e-01,1.348085657765768497e-01
9.213156282582023460e-01,7.059900483905603430e-01,-4.706112599788875861e-01
7.716477855162509059e-01,1.846093330692176293e+00,4.206625043975575351e-01
3.838638808758901844e-01,1.180219749634870086e+00,-5.696632120678642858e-02
2.809245544038722620e-01,1.082071425918220697e+00,-3.709915530950651519e-01
-3.822697336137911295e-01,1.827614869854943036e+00,-4.789617580773612437e-01
-2.001061671267912179e-01,8.104415533626299073e-01,-2.335386357244454147e-01
9.935723977363958292e-02,5.273542926800326436e-01,7.787925864233927742e-01
5.891890647016047033e-01,1.231031558890389732e+00,-2.487196290065714008e-02
7.719947515627211265e-01,1.089839721551026486e+00,2.860753783713937959e-01
8.139453767484509106e-01,1.239922618549095246e+00,2.153218472911548331e-01
-5.233973148969868205e-01,6.611849662782407488e-01,2.023255730758772575e-01
-1.733510828076100518e-01,7.115749442849784723e-01,2.085542177166000155e-01
1.065412044666264491e+00,1.570622900282609702e-01,4.721402372196012442e-01
2.606799471873032584e-02,1.505576295239466678e+00,-3.251701220140668647e-01
7.147746779390241612e-01,9.006500913944083253e-01,-3.520709259733464241e-02
1.453673788184886906e+00,7.450008783431554260e-01,7.181722476592989901e-01
-1.459221584338358524e-01,4.493593757744406281e-01,-4.728347877232352836e-01
5.002780848149533943e-01,1.819924507589972151e+00,-3.063039928667926071e-01
6.245169467354771964e-01,1.887210762053710189e+00,5.253273060183208942e-01
-1.086892970400064884e-02,1.331476918352128447e+00,-1.334872352757416614e-01
7.206902386142463035e-01,4.999212407064440034e-01,-4.434678768628356194e-01
-1.712720051285402528e-02,5.088829488920593169e-01,2.206081619253777437e-01
7.866813885562353725e-01,8.016873420830801233e-01,3.501052882391975651e-01
3.728881229381003082e-01,1.843189059692411869e+00,1.774368608035837569e-01
-1.043319998968705170e-01,1.186311677109915141e+00,6.839861182457895872e-02
1.467020742260901400e+00,9.725632043903299495e-01,-7.438261151163390317e-02
8.467514048039561647e-01,1.058833960998656343e+00,3.064533566606970627e-01
8.973763770527668493e-01,1.326191339605277797e+00,-2.117469549080038815e-01
7.452399477470760258e-01,4.439704535378976580e-01,9.210675898251174942e-01
-4.601663227262967615e-01,6.958304071252868761e-01,8.926894679252855846e-01
5.604312062958198837e-01,9.110154716995195745e-01,2.092653261964285416e-01
4.526369111005879020e-01,5.451829407085982959e-01,-7.450427765322377438e-02
6.445233119011222200e-01,1.396271590634707627e+00,1.516692322752687949e-01
-2.431697971073756848e-01,8.635806313149451130e-01,7.967971035215563047e-01
1.661211539032331208e-01,8.372231850451496982e-01,6.674614137712827633e-01
7.315844126419716043e-01,5.290473575392096173e-01,1.247316472862991105e-01
4.253453168615706770e-01,4.984751511637286470e-01,-1.870514667297737132e-01
2.275608420289133571e-01,5.188478450711627721e-01,1.000424879634181918e-01
3.110210249503804203e-01,5.743557652708745076e-01,5.371782596561157641e-01
3.835951199275492995e-01,8.499219932107444642e-01,3.396914258744848647e-01
5.833113983678671621e-01,6.903555296388234064e-01,-3.929502276719350484e-01
7.578164152749561344e-01,5.952626038557335963e-01,1.768908762720791672e-01
8.429970316381710238e-02,1.173297993649276005e+00,5.650660815698492490e-02
-2.812347523716113296e-01,6.055942852254628805e-01,-3.844747585033596038e-01
4.475445998480409235e-03,1.409589406439459180e+00,2.314297408027106151e-01
1.151209080392390227e+00,1.163819540806859454e+00,-1.178719857879462207e-01
1.056874176227257794e-01,4.756212534343902121e-01,1.097050577689553247e-02
5.039408607284955322e-01,8.998033587000031641e-02,1.084731212656368654e-01
1.012606171091634394e-01,1.195949494391467027e+00,1.470856709771875548e-01
7.926308236790607920e-01,4.097706759870326509e-01,-6.648118992717909626e-01
6.517742489272777828e-02,1.054239470133346845e+00,-5.576705967065973546e-01
2.816385266293783829e-01,1.110314906194534323e+00,-2.575808856362342691e-01
8.139272787997848813e-01,1.351022664417977914e+00,-1.285427557899884998e-01
-6.263081181670701603e-02,2.284899918698629073e-01,-1.396484643720761476e-01
5.774030954150110029e-01,4.590074888611256898e-01,-2.781708198497832574e-01
9.764376222114491410e-01,4.538732475761351748e-01,-5.847311819891206630e-01
2.685608004824705519e-01,3.224702711960268919e-01,-5.416076325763355404e-02
9.708336434221292999e-01,9.291516080083277451e-01,4.894292315897544876e-01
-2.809054894563957350e-02,1.524597784124109179e+00,-3.369609992772685803e-01
7.830290783419965317e-01,8.619591002974112959e-01,4.438288840482094710e-01
6.639481858158869931e-01,1.591134127753643490e+00,2.964292187021828062e-01
4.953175069507232409e-01,3.105426404787782202e-01,-5.741288892174775116e-01
2.990011244228376053e-01,3.769000652625752457e-01,-7.689880421239358999e-01
-1.436740162090844458e-02,8.954814628220414408e-01,8.129420540285078323e-01
1.622713019660485256e-01,9.213497862456373477e-01,-2.495677528298547443e-01
-6.238514574393915213e-01,1.010733308530571639e+00,-8.869815847541164811e-01
4.715018307051305757e-01,4.977320405507466017e-01,2.023453182313629806e-01
9.281579953558017904e-01,4.327477863580384554e-01,-3.393485476260282852e-03
1.083188080370797834e+00,2.938894391386617788e-01,-2.941779067553300098e-01
5.541282062686780918e-01,2.878392300723030539e-01,-1.939468187082195316e-01
8.249568488168651514e-02,8.660967149379121821e-01,-3.785163025772871753e-02
4.607153877502377370e-01,8.512236756936464310e-01,-4.480339108709300855e-01
8.579125342204186877e-01,9.457792010792644977e-01,-4.868843255771434370e-02
8.396125159290236395e-01,5.285178067946166847e-01,-2.756671174097465316e-01
2.278105609069298321e-01,8.211225585970572949e-01,-5.105439628547967512e-01
7.510879292047408784e-01,5.580535646147888329e-01,1.018945793528105576e-01
6.473690180272254624e-01,4.721122765643511743e-01,3.214786928595542159e-01
4.555524983877760059e-01,4.837344329934619575e-02,-3.115994809481818506e-01
2.838568457544793922e-01,8.438596158630480293e-01,1.117662529251174791e-01
7.329357774563345362e-01,4.205744093229353275e-01,5.578318797495500636e-01
7.072532499303324505e-01,6.177602548060791010e-01,-6.887572238904788868e-01
4.603344794681223928e-01,1.637951753260397547e+00,-2.440921772926260003e-01
4.053786572781718500e-01,1.564111497480996371e-01,-6.880377009114049258e-01
4.562243020794825576e-01,7.846653903548981290e-01,-4.805316527040737196e-01
-4.356544214339011512e-02,1.103968173087453097e+00,6.873399107338735714e-01
-2.240018312451692861e-01,1.075179398941390918e+00,5.221236160387514591e-01
-1.121743138444174503e-01,7.763783769109459110e-01,3.444440597894936062e-01
2.455583570615595679e-01,4.944123301364795608e-01,4.424813001617080022e-01
3.421311400557685012e-01,1.231329554323652431e+00,-5.139074682185228449e-01
1.532685070242227054e-01,-3.341028604136819097e-02,-5.054921730356907172e-01
1.932386701203750445e-01,5.548207294271279011e-01,1.412963727264654468e-02
9.639163868219956244e-02,2.942134441028143033e-01,-8.662967924166711797e-02
7.325003153200634332e-01,-1.760577721450893030e-01,-1.211304435623623693e-01
3.189983040866972153e-01,8.324703549376127887e-01,-9.685947846040482423e-01
3.836430350807322198e-01,8.475432113932650502e-01,8.694335355320685632e-02
3.497739916333566512e-01,1.531319852249646063e+00,5.967149324172932312e-01
5.889645229760507306e-01,5.746899915351111332e-01,-3.228150152590540840e-03
1.054650995002187175e+00,4.338172353557723793e-01,-9.264002143468208494e-01
3.630308874576673728e-01,3.233656372684844960e-01,3.533426282472936775e-01
8.381844221740967216e-01,1.021961359781702328e+00,6.663539886292879633e-01
3.943299316966521473e-01,7.041031117263685246e-01,-1.063620852452932697e+00
2.504172380963667344e-01,1.034658765490502619e+00,2.529958468617436451e-01
1.357334787291716749e+00,3.144260434224391276e-02,5.994567048929931863e-01
8.147264838677982235e-01,9.524175171880830959e-01,-1.810937942412787216e-01
6.194432733546995085e-01,4.041498347514095868e-01,-3.595051842340077908e-01
3.661516267565774196e-01,7.015729395773899757e-01,-7.657692762807813414e-02
2.781302102655866526e-01,1.632757792395760132e+00,-1.152211313414409355e-01
1.175835624747376240e+00,1.672987324137442944e-01,-1.256700141537648863e-01
1.243224744121130820e-01,3.458048658365712735e-01,1.867662073099264908e-01
8.327965814930170518e-01,-6.750038517937993754e-02,1.081142126394911696e+00
3.425651618574753754e-01,2.099402399536395292e-01,-1.899456868009140043e-01
8.656653019555249351e-01,2.670552820556488238e-01,-1.200306823168305476e-01
-6.052312546848619412e-01,8.066501789217356277e-01,-5.811096419738822488e-02
-2.642649229655196774e-01,1.366239047205413337e+00,3.310897779851947886e-01
2.373540118504779695e-01,7.371801464975613616e-01,3.689523225661381356e-01
1.031122335443252380e+00,3.237664009555289435e-01,5.864649740303441439e-01
6.186966735415415641e-01,8.817636228737028015e-01,-6.735187859596111215e-01
3.944834456918108745e-01,6.289104839932564417e-01,2.315631002499350666e-01
-1.865912723585935185e-01,1.127374097635933881e+00,-2.638102507678937239e-02
6.569733697436159758e-01,6.918112638683092674e-01,9.688639356776147515e-01
2.751252484974823775e-01,1.104186358544559488e+00,-6.616173436805483643e-01
5.934878390571771689e-01,4.260513630531312379e-01,-5.950462727013980380e-02
-5.613831482948467011e-01,2.449152689131382232e-01,-6.291006637509791721e-01
-2.227620146573234261e-01,8.390213994614851289e-01,3.296634451828201473e-01
3.469732635813035371e-01,6.753171329359968222e-01,-1.304863400567822795e-01
4.620727081472033593e-01,1.856785206247362763e-01,-6.998216225543169022e-02
2.382617600743565656e-01,1.237555234673388904e+00,-3.526174873304489532e-01
7.011193464270674136e-01,2.874795333392720642e-01,-2.324531543063017638e-02
-6.480452763304531127e-02,9.379618511191438746e-01,-2.561493565429303065e-01
6.738512082774632539e-01,8.911565116667048425e-01,-5.559907854738584954e-01
5.181117578072026442e-01,-4.483753851641111288e-01,-8.042432563695465220e-01
1.996381819185016060e-01,4.845077364255221397e-01,-4.349463013752762341e-01
2.358425141171171247e-01,1.532116463516687566e-01,-7.913770690069601987e-02
-7.753726959369328098e-01,5.181471412950712230e-01,-1.047044242165469541e+00
1.303769844488614327e+00,3.333825942423769284e-01,5.479288580645768070e-01
8.523248509558521979e-01,7.749481125409803939e-01,-2.747839797536576478e-01
-4.665944274716866680e-01,8.238541416906662862e-01,-2.989033029750346460e-01
1.563026189780209185e-01,8.626406304044703655e-01,2.920677255469052436e-01
5.497812041909404535e-01,8.609568981361039874e-01,-1.674387107145175468e-01
-1.082615848303150191e-01,1.530937164807078421e+00,-4.897232953109941223e-01
3.064169278134894481e-01,4.213886634016660859e-01,-3.548566919636286787e-01
6.011152632650904604e-01,-4.359065791407847890e-01,-2.648611379902612167e-02
4.319452797413143585e-01,9.066525658397421861e-01,-2.316302335086733721e-01
3.194062909701226860e-01,1.084763448874930036e+00,-3.137164961023265475e-01
6.428073933485789482e-01,9.002274248251016520e-01,1.546157489857249712e-01
-1.283286001567023327e-01,1.107125403653930334e-01,-3.492019742084704337e-01
1.109724937037692705e+00,-2.233132212187640409e-01,-4.178169121576456035e-01
-3.884107375140415375e-01,6.533448302037573319e-01,-5.094048819004863837e-01
-4.397722199495547324e-01,3.677070691452095086e-01,-4.147957736398847906e-01
-2.163926696523519027e-03,2.877408444796564213e-01,4.947006170799272268e-02
-4.474038326788878361e-01,8.372258636513041363e-01,-1.003058137068705558e-01
7.325824163874125050e-01,1.252391410252496451e+00,2.557048545846463128e-01
-4.153333801650715418e-01,5.717840812090714264e-01,4.645692860412629077e-01
-1.716180561287973527e-01,7.351353741711103007e-01,-4.849760254283312921e-01
8.756157180279858232e-02,4.119824002817352171e-01,-2.659959926047437695e-01
3.124522766878272129e-01,-3.718691000221339693e-01,-6.282901861937749688e-01
2.292483809793727512e-01,2.911334870609784686e-01,6.818936694052356307e-02
1.820697118941131953e-01,-1.498497050214335768e-01,-3.893149437316551498e-01
2.851687460666242346e-01,3.800498700113029860e-03,-3.493362058772858658e-01
6.811796550435467168e-01,3.927141180858024772e-01,4.449966474550957896e-02
5.727516495914192207e-01,6.087034610762293019e-01,-3.910902358798548639e-01
5.511923496794639554e-01,2.928697789767674697e-01,-2.158537730928235532e-01
5.833270785687337812e-01,7.142271326710395440e-01,-8.379698811070432352e-02
5.611797039173535007e-01,6.304651414297351986e-01,1.148211974581413164e-02
-4.069766073482022906e-01,1.296764559952742202e-01,3.857685716646188090e-01
-3.562764526053203151e-01,7.430706182835852269e-01,2.381796216441985081e-01
1.829445753017945875e-01,9.620503090330457807e-01,1.181659782816722182e-01
6.687195179506590925e-01,-2.086747321127459254e-02,-3.039173851581878361e-01
2.672009100388546554e-01,8.247843644685385334e-01,1.670757377233526297e-01
1.426714667698288641e-01,8.484495954302849752e-01,-1.030769949744729345e-02
2.187964656073674852e-01,4.570279529173881805e-01,2.491166847251359284e-01
8.618609070385752080e-01,4.384902609525451189e-01,3.921797465192218279e-01
8.165358203823485095e-01,2.575275175313302967e-01,-2.542997951002751722e-01
-2.403007506964743023e-01,3.979916394461625040e-01,4.810525221313309563e-02
1.115197236641683048e-01,7.232873667775575610e-01,2.142217921354285792e-01
-3.534344520775259957e-01,8.334767965504022991e-01,-2.104944346715373060e-01
6.748153177784469436e-01,1.704686371981005699e-01,1.823284145558032032e-01
3.409589483323136050e-01,1.161237881848671494e+00,-2.382818292134528948e-01
6.493088444110614033e-01,4.163482718540114647e-01,2.803618406526343088e-01
-7.049630358406999697e-02,5.538128577883648651e-01,-4.650044378175411386e-01
2.064804250311480863e-02,1.162828085360582131e-01,-4.193848794370536037e-01
7.527087561468415178e-02,6.415374392573549578e-01,4.262475509384452965e-01
2.260007536456568045e-01,5.515380553040007960e-01,1.695157768942384124e-01
2.085875562313826703e-01,-7.901787691872351471e-02,-1.061596470446023455e-01
1.096715614380753268e+00,1.837901943650903924e-01,4.918240029437269123e-01
-3.300905812139761503e-02,1.124536288366696918e-01,1.172311382756046315e-02
-9.154520064210509567e-01,2.823541718317144067e-01,-1.782275120401982105e-01
-6.004385093968710452e-01,9.183978336353926242e-03,2.226756025471988421e-01
6.221356248483063123e-01,5.561434469819570570e-01,-5.388053285688481076e-01
-2.551867462382984703e-02,2.344390105154281756e-01,1.407113060065979249e-01
5.155157055075685335e-01,1.203771470476628691e+00,-7.339569557358107676e-01
1.963528860876019577e-02,1.495888137576995569e-01,-6.673984591999100324e-01
-2.256752007692685441e-02,4.009668302128125972e-01,-2.169589818287571414e-01
-5.489183963165451541e-01,1.382663729285155574e+00,-4.429754802631323263e-01
1.041048996963967743e-01,-3.238442996971916399e-01,-1.112166641647750059e-01
9.504927985658399858e-02,4.982581106804685467e-01,-3.422088886109452277e-01
9.744663594303207277e-02,7.123104089803252714e-01,3.706139222948826029e-01
1.154280522037017143e+00,3.278991768566901777e-01,1.076366404447530456e-01
4.896447511476146874e-01,2.005136828653478198e-01,-2.063644165000570463e-01
-2.939401051481683180e-01,-1.837704796607760732e-02,3.100336116722150481e-01
-3.094083787002119279e-01,3.917242737343319403e-01,-3.095019725235292549e-02
3.113691448214427338e-01,7.475238723853763201e-01,-1.167921524584887155e-01
2.683990999228338392e-01,9.567623725516244404e-01,5.786511670445085853e-01
1.104567418573661586e+00,2.440677202384370637e-01,-3.295689666869967005e-01
1.171116862215311888e-01,1.672700863559565265e-01,4.883108826933326152e-01
-4.555284760385482357e-01,5.049882629191311256e-01,-2.320281442018035448e-02
8.354155961821407850e-01,5.327541956160433134e-01,-2.471396017045599525e-01
4.870394889081287593e-01,-9.751040883874026455e-02,-3.265085353177460403e-01
1.180258940170345605e-01,5.792413896545667296e-01,2.337810907049094888e-01
4.195278701208954297e-01,-5.174894162086172283e-02,4.543120341922474159e-02
7.944838977210344835e-03,6.482806135760235122e-01,3.218545954576555734e-02
-2.472138654290962634e-01,8.677368446638786814e-01,4.744014513987238613e-01
1.248227202006314263e-01,8.389186917536682886e-01,2.760310262083786603e-01
3.258321031298662684e-01,7.566673522350471082e-01,-4.282845589770721828e-01
2.684538873741977860e-01,1.297525137079214685e+00,5.096989823349973303e-01
-1.089020908984501129e-01,6.924524654581386551e-01,3.482117327782365823e-01
6.079971486008423076e-01,2.724932825901606459e-01,1.057050392114619181e-01
7.768934367857882606e-02,3.350043969567548796e-01,1.441972425778785816e-01
5.436923216708757466e-03,1.266728386999703415e-01,-1.550436297142636921e-01
4.014244326011111030e-01,-7.384014946186061301e-02,3.579476088325810879e-01
2.244696916335633674e-01,6.673233810171114166e-02,3.724432519508848877e-02
-1.456721137232988572e-01,-8.571239811053170399e-02,5.701153139854988616e-01
3.206117698491339763e-01,3.548926143663047594e-01,7.916237210990704209e-01
1.592907796283559163e-01,2.046595876273545056e-01,3.023069570443556731e-01
1.962540302001910542e-01,-1.134802003664302644e-01,6.805415367386846714e-01
4.571885576959469066e-01,-5.055264641902677131e-02,5.486011982476743931e-01
-1.046024320506137306e-01,4.802471604245633907e-01,6.374518743943262400e-02
7.402192817656351176e-01,6.620464965503787269e-01,3.236060924980458942e-01
-8.040468524429555952e-01,4.231883997049590285e-02,-5.691758243425716346e-01
-1.124294899406592441e+00,1.203228271734246180e+00,-6.444816646838190388e-02
-2.940696500925705226e-01,9.273535963034120755e-01,-5.081482340858669566e-01
-3.446644707814330300e-01,5.872595209693145524e-01,3.512763642932239389e-02
2.577885598924262722e-01,4.647248669946085764e-01,6.954521404333703360e-01
-2.643211652265226030e-01,2.061482864475024379e-01,-6.667984613006543437e-01
7.232010464228896263e-01,-6.858231942588080554e-02,-1.737690222576465660e-01
4.837547606512836440e-01,8.517319274482735292e-01,-3.789340890563366870e-01
-4.733312163458497923e-01,7.387061675589785548e-01,-6.563096904250400598e-01
4.058603181549249594e-01,4.883744673247279455e-01,-1.020134565282660111e+00
1.587517046868889004e-01,3.649039884970577408e-01,1.716544728658212782e-01
6.285836252575400795e-01,1.749028671098740439e-01,-8.738880263514471614e-02
9.754573779903914499e-01,3.089392453019469964e-01,1.105430229044019608e-01
3.439734208016161920e-01,-7.530681829992679410e-04,1.832292431305737046e-01
3.633662416033993647e-01,-4.971561651945156923e-02,-2.744027434365856610e-01
6.171234665127227625e-01,4.669602038877571082e-01,-6.767326830726910769e-02
-6.886304783491676851e-01,-7.664423798682667988e-02,2.234311288057699019e-01
4.902890839708447523e-01,4.293839217743853909e-01,1.511457905360945320e-01
4.635515207342806865e-01,-3.722144760927795781e-01,-1.496446649556482933e-01
9.808241142305893501e-01,-4.617337402579343442e-01,9.422121029042732077e-02
3.669668734619594419e-01,5.189413149478240284e-01,4.790288290986866038e-01
7.908332475260141381e-01,1.740845934012033303e-01,1.323858838227336132e-01
4.617877168890576201e-01,6.681032145908318842e-01,3.697557489457178881e-01
-3.973239566195458927e-01,2.425726024306363304e-01,3.982164620311263170e-01
2.195574780797300285e-01,3.666927602329125846e-01,-1.449424395454385339e-01
4.593621631064939148e-01,-4.886510851017218937e-01,-1.962617852875469804e-01
-2.337281865002511783e-01,1.341813896433752262e-01,-1.845375245326727198e-01
-4.584444077341829904e-01,3.709125756331044244e-01,1.704614186838040446e-01
-2.879326787244821939e-01,7.988920768510743287e-01,-2.341144892413119794e-01
5.016492773355459844e-01,1.122300137933864184e+00,2.183992513531396729e-01
-3.849298144792736576e-01,6.930397915614204818e-01,7.801343335124413803e-02
8.358908586224242931e-01,-1.381882464274631628e-01,-9.183783259460139847e-01
-5.498011997803484707e-01,-1.557282442591995941e-01,-6.223730394994138049e-01
3.622458801849214316e-01,2.452091825870944541e-01,-2.878675607425086255e-02
-3.161601765964849875e-01,4.988818830765061607e-01,-3.460981881818219613e-02
8.375418608114928443e-01,7.993347734858433640e-01,3.191566863594995085e-01
4.507924648478224272e-01,2.177180541430031036e-01,-6.026081142696189108e-01
8.215285185342123819e-01,1.551650491381943331e+00,6.469762881666002441e-01
2.944966212899722754e-02,-6.684738671007661726e-01,1.557600595163110280e-01
-5.061804649004105761e-01,-6.501721620053136919e-01,-4.667941722593840770e-01
1.396147686629764240e-01,-2.115361067608346468e-01,1.887788636866419567e-01
2.811882169667339615e-01,-4.589031365385823347e-02,4.587095352115572733e-01
2.308946325024821000e-01,2.947329111460810225e-01,1.279565632242324891e-01
4.754460145100353752e-01,1.376057400220164276e-02,3.355985442461207335e-01
-1.464495117973983740e-01,4.061106393994795005e-01,-1.651552093549111810e-01
1.508002684916778524e-01,-1.432342989207631423e-01,-4.982058722667883077e-01
2.430846861037968265e-01,1.042124778743013014e+00,-2.664440780753038474e-01
-1.856534732996528991e-01,2.066682886758346716e-01,1.942031159005564722e-01
6.259374745111498939e-01,5.293712737301846660e-01,-2.270195726094782207e-01
6.634042357266818624e-02,4.746307011682324717e-01,-8.565742412348673618e-01
-1.561791997500721896e-01,3.734873135049848747e-01,1.073209152353137158e-01
2.902978472857834502e-01,-1.780207894061460461e-01,-2.149470739002106723e-01
5.988648971862375880e-01,3.405528462516854704e-01,2.059237199351562908e-01
-3.231017061081363773e-01,2.281971041321940730e-01,-1.346032315911027677e-01
-4.817248259135608612e-01,9.320159740627559364e-02,-3.117340531424358033e-02
2.220453080636003163e-01,-1.377658152570616912e-01,-9.854227821696649736e-02
3.500540250785264540e-01,7.235171984733343997e-01,4.432253639867889117e-01
5.303497755121552304e-01,-5.867181693289632433e-02,-1.866835405994592689e-01
-1.559901504713255838e-01,8.585167221529450832e-02,2.713849719138439753e-01
4.437176272936992905e-01,-6.336444277663089153e-02,4.541089340285775489e-01
-3.558451116221971189e-01,4.566796735069609259e-01,1.545571326877658858e-01
4.533903318450090425e-01,-3.272198348344236840e-01,-5.663445397420023841e-01
-3.186533533380889183e-02,7.639839676868335205e-01,2.492150066579644774e-01
-4.547951006532376383e-01,2.755836076355265840e-01,6.607804400006149770e-01
1.062941734972312036e+00,2.031716443276799511e-01,-1.998465308319170020e-01
4.687525339597894969e-01,-1.218365370089391081e-01,6.237165263003444649e-01
-7.852222483840116257e-03,4.884780970222530883e-01,4.475240973762415475e-01
-1.116047263223133613e-02,-1.958170935810569363e-02,9.108018201651475465e-01
-8.811986424099910176e-01,-1.839100649355595862e-01,-3.574963497119696965e-01
-6.524889189352779673e-02,-7.618779621418378389e-02,-1.395271827420437039e-01
7.779824165027235949e-01,3.281507405578736880e-01,-4.120994445266873418e-01
4.110787396854588827e-01,-1.091003781731073596e-01,-1.047445807424670638e-01
3.946314064260910692e-01,3.278752593979485375e-01,-8.136480630540026127e-01
3.216301512140318231e-01,-1.331626479782669625e-01,1.483034595457251130e-02
5.213972649773652712e-01,-4.873191517049094146e-01,-3.813216719047419212e-01
-2.960989574537695179e-01,4.663172786539358100e-02,5.922568161391970204e-02
4.545904163282233346e-01,-3.641934157465972488e-01,4.030927766686001612e-01
2.089056770220865944e-01,-3.593198678642110511e-01,-7.881849553712830803e-01
7.613423183795896276e-02,1.240670779315026784e-01,-2.191046863890393770e-01
-2.838025613363035979e-02,-1.491643530953751517e-01,7.947192106932360334e-01
9.179013194411277388e-01,2.867903600596244384e-01,-3.407239614784169507e-02
-2.028501496522939485e-01,-1.564441196247905175e-01,-6.264308123013758722e-01
-5.807241660375112718e-02,1.810962004735907072e-01,1.720993253197142941e-02
-4.274782517246164537e-01,4.647734596813427044e-01,-3.806292150026878152e-01
7.029102775121204294e-01,-3.283405432084828511e-03,-3.669430032105407968e-01
7.315862684824260276e-01,-1.000729053421654108e-01,-7.440014900545243171e-01
3.091653473185315693e-02,-2.150924573730471634e-01,1.121483928465904362e-01
3.919674659575357323e-01,4.660474003906665552e-01,4.717714687431085463e-01
4.401617731749537382e-02,7.274772388485346852e-02,2.464539911774402126e-01
2.109157777700435554e-01,5.639195556950668542e-02,3.074159976049701815e-01
5.018448836558951631e-02,-2.137868645714522120e-01,3.151074317688606907e-01
8.292674329276120693e-01,2.459678127160560834e-01,1.921756001899868060e-01
6.208627750167600157e-01,2.150608151654172240e-01,9.867800530249555557e-02
-4.726518140960076636e-02,-2.743775795120513838e-01,3.521603873434958620e-02
1.788644150904595276e-01,3.361885456957709739e-02,1.607200086449782628e-01
-1.475643359857675696e-01,2.480894648890170640e-01,-6.228845746602728051e-01
6.841318185213113301e-01,8.930466141614047670e-02,3.644789784783145081e-01
2.196828460300010999e-01,4.161350691461908613e-01,3.282648695861750676e-01
9.764147886917224906e-01,2.795496971424075716e-01,7.319235606592466858e-01
3.666770269237922264e-01,2.053239797047632931e-01,-7.451079768407591671e-04
1.599251182938395965e-01,-1.270219587547138373e-01,-2.894327123091788301e-01
1.598643613993655510e-01,2.248790986027317806e-01,-6.278428480787630328e-02
-1.733407623464514047e-02,4.076020437479631053e-01,-5.617582224852665229e-01
-1.503281235821314066e-01,-3.226892846635401879e-01,-1.826540552823582853e-01
7.717382740511400385e-01,-3.117458855239048088e-01,-5.329905742861543727e-01
3.604031552228872393e-01,4.131022675030373570e-01,1.759557429610485446e-01
-6.711399342985080452e-01,1.398247838098361229e-01,7.802881918876167777e-01
-4.162779640308011952e-01,5.765916828309611969e-02,2.442911982485890532e-01
9.580925720754072950e-02,6.262568861033218637e-01,-5.966144197041380742e-02
9.007832299399058662e-02,-4.441276235499976299e-01,1.589178004528735422e-01
5.803414571979432779e-01,3.875185511271041494e-01,1.378147936970227361e-01
-3.718127295450326941e-02,6.369755541080317496e-01,-4.175335187447897223e-01
3.652927725793766456e-01,4.995576291683561099e-01,7.475583359295882857e-02
-6.656249206559728959e-01,-3.933484450817107958e-01,1.320330414969604071e-01
6.056209380843090573e-01,3.801110174439125688e-01,4.532252322148435097e-01
2.869228115837071935e-01,-1.888278668667289217e-01,1.324317645105622387e-01
5.266482140347229501e-01,6.375282288599164460e-01,1.076740339838245381e-02
-1.122588840249303804e-01,-5.852458410156491375e-01,-5.893424377774508782e-02
2.928058783397528564e-01,-3.260902716971693649e-01,-1.157233111319678348e-02
-9.937055885012988088e-02,-3.894055195075737941e-01,1.020034999373287121e-01
-2.316193138566484122e-01,4.950471186665773571e-01,-5.790253134310975325e-01
1.387992983888886589e-01,-2.379544220862337689e-01,-5.788070128243114239e-03
2.077436600681027354e-02,6.341675851326710189e-01,6.884220888088844748e-02
5.285280484743766216e-01,5.880470082829399869e-01,-2.662824881052989201e-01
-1.899660178127026144e-01,-7.587550539311524456e-02,-6.847456622660295089e-01
-5.742360298118273088e-01,1.418363692096382689e-01,2.570410952194688084e-02
-8.354829593621825312e-01,-1.861399834951363852e-01,-2.650668688858048849e-01
3.617473666175616276e-01,-6.313719647676035995e-01,-2.768677873349839613e-01
-1.173205846946413361e-01,-1.531350727210954166e-01,4.545296864233250300e-01
1.512539646586676632e-02,1.178987438778975605e-01,3.982856336888341842e-01
6.649980525722001268e-01,-2.180938066599395486e-01,1.671697034853572850e-01
1.835558351558852219e-01,4.606932288458863711e-01,4.685815377358482775e-02
-1.589787709066631805e-01,7.261970748113155683e-01,9.291312896679397859e-01
2.540004240427165549e-01,3.541302211142043355e-01,-3.656668928618426184e-01
2.821353599170420834e-01,4.414168079112756327e-01,2.412959432920855074e-01
4.218516265285885969e-01,6.977915151220422940e-01,8.406641234267843155e-01
6.171458316919114367e-02,-1.349811613239012553e-01,1.981715550040814011e-01
-2.356929863538599901e-01,4.489141083206014682e-01,-4.447860715060747427e-01
-2.888771712727120078e-01,-1.601121567769548670e-01,5.384934366810629758e-01
-4.119022927034656778e-01,2.131674649034979441e-01,-3.147345469424631115e-02
1.545627878792694421e-01,6.139795038345289280e-01,-6.963534104535479274e-01
-1.504172186676719647e-01,9.244546439785626957e-01,5.577643915982515299e-01
-2.622365829611442156e-01,1.987013139522611771e-01,8.181751323121840003e-02
-3.061012071751505470e-01,2.989179392014572334e-02,-3.431038902495047727e-01
-4.897500771064319247e-01,-8.934962113935975003e-02,5.591023177264731192e-02
-4.036467348226598778e-02,-3.437029557332347829e-01,1.266855078748142238e-01
3.482658005095533027e-01,3.103637298629087493e-02,-5.435120313227599365e-01
-3.612629657961026197e-01,4.020959758323974231e-01,1.007724650812001216e-01
-8.620863683665874744e-02,1.669852915584951469e-01,3.950182518994566627e-01
2.128211242794857960e-01,1.459522196028985586e-01,-1.995971118212113704e-01
-3.397717352195049889e-01,2.574500662203728085e-01,-2.629508192152820722e-01
-6.567803553816055351e-02,-8.382137315438599467e-02,-2.822586751454526088e-01
3.766934402948266536e-01,2.862397255871424462e-01,-7.352527803731647715e-01
-1.124661820541687646e-01,2.383698918265403643e-01,-4.332457011194757457e-01
-7.061281556014714633e-01,3.308074067887748493e-01,-1.014085988231414603e-01
-2.188140085449949146e-01,1.413615245125828673e-02,3.198954570915457096e-01
5.249736021588391477e-01,5.136805543705594834e-01,-8.883520736817377417e-01
1.781198214275842850e-01,1.706912294463913959e-01,-1.005090665388886501e-01
-3.707806176044381452e-01,-7.327587157435667964e-02,3.025409974028752114e-01
2.604346846467113785e-01,1.054602666067768896e-01,9.211424828328448888e-02
6.683622986537025856e-02,2.243164725993756492e-01,1.271721549509566007e-01
-2.592935609327748012e-02,-3.511003261589788760e-02,4.898251557939893308e-01
-1.046310100826059047e-01,5.046709112604104153e-01,8.639059950849244940e-01
5.013882041712399568e-02,-2.188149024128063502e-01,8.473130354790165963e-01
-1.026004168575244790e+00,-3.129874853111213051e-01,-1.345816795644670660e-01
-2.851635096541038639e-01,7.499616499871221142e-01,-5.366262994428570021e-01
-5.034488769877303316e-01,4.852984704780320402e-01,7.268828943633817707e-02
2.331039640421757042e-01,1.938053513330869893e-01,-2.585407544004230118e-01
-2.999987112689995739e-01,4.917997191639874033e-01,-4.559933434999097202e-01
1.314770742868422992e-01,-2.873019609857931922e-01,1.480571018983994347e-01
1.084447070974532412e+00,-9.599362972816877226e-02,1.078085421547823608e-01
-6.497506376939460315e-01,-3.277699793352854135e-03,3.763578045495767910e-01
9.832260946910180432e-02,5.977964062860816746e-02,-1.246883633854071333e-01
-1.497328639516198878e-01,8.365224205267435265e-01,-6.891564848000848731e-02
4.824407790809364660e-01,-5.190683977777476033e-01,2.210219656924494736e-01
-4.243005289858586132e-02,3.412855104452475752e-01,1.024152279137539034e-01
-2.811200527136161198e-01,5.371028488573167392e-01,3.348359624172123628e-01
2.562205139519709296e-01,2.755423090147468002e-01,-2.252390889660001727e-01
1.731786688289705389e-01,-6.419690117998514411e-01,7.751606795016953155e-01
-3.423944093575090331e-02,5.650620449520081801e-01,-4.398959756731557480e-02
4.689445228148886313e-01,4.024621754593084300e-02,-1.806682549056354559e-01
2.340577169711641481e-01,6.882685521515903571e-02,5.475650825149580569e-01
-1.337479079866391585e-01,2.198575966115489388e-01,5.895305361345334338e-01
-6.203812208933103811e-01,2.915026561908460323e-01,-2.115962422399835230e-01
6.746406044297305060e-01,4.465429703710093734e-01,3.180356859099816025e-01
-2.638503909597891828e-01,4.782215571537925536e-01,-2.360514219901914401e-01
-1.312047233264809487e-01,-1.806616909233666468e-01,-5.625977268074051213e-02
-1.274531288154148179e-01,-3.399585940806225115e-01,-3.033533032789665490e-02
8.675679808680888949e-02,-2.815251720741203112e-01,-3.138471564277378056e-01
7.528851805967043398e-02,1.457031149100245504e-01,-5.870479053737424902e-02
5.292493304699104062e-01,4.335510927775704237e-01,7.694073904165850131e-01
-1.308563680793275730e-01,1.749336813491340348e-01,2.646642304907934062e-01
-4.730350808148468533e-01,-2.793185015496096879e-02,1.234544340827111286e+00
4.867610325434168494e-02,-6.101957914876726674e-01,5.111426254612329023e-01
1.324017857499689560e-02,8.659476398248636686e-01,5.477395510271607787e-02
-7.286457633941656464e-02,-7.270743069817478272e-04,5.479249400910091161e-01
-4.229941667901996882e-01,3.847304209337280845e-02,-3.317153960489130360e-02
3.967253821187392560e-01,3.440294094858288299e-01,5.078195331126966056e-02
-8.888651480397721794e-02,-4.902542364435239497e-01,4.943842467644007921e-01
6.815145222169119998e-01,-6.024417550145017008e-01,-2.228050441695101913e-01
5.136907462000129820e-01,7.383772369901729915e-01,-3.046262399606333160e-01
-3.307862152209319895e-01,3.954700252138166339e-01,-5.226123104130686592e-02
5.684367318712542361e-02,6.768974886117518075e-01,-1.532867677924176220e-01
-1.395393686251057697e-01,1.222141740599146931e-01,-5.520449179532493922e-01
8.740044919177024363e-02,1.500587635011003673e-01,-4.746998179575211141e-02
1.378355949959653715e-01,2.952430842441608472e-01,-4.706036737440632001e-01
-1.907571032147015455e-01,1.614616701777600860e-01,5.379903409622168731e-01
4.514160329037780750e-01,1.424915648917958466e-02,2.144841305278807342e-01
-2.530961883762324338e-01,2.921036088362583428e-03,-1.491361178266172038e-01
-5.703893406367258612e-01,-2.232157271477467342e-01,4.023721691623100560e-01
6.463202933361066049e-02,5.066471418283962080e-01,2.872535597688755660e-01
3.950486612991590540e-01,-2.557803621061400801e-01,-3.812930074405367908e-01
4.942779472773138338e-01,6.086073820931368061e-01,-1.165052681303994919e-01
-2.750862442918599049e-01,-1.526389249512797863e-01,-2.088297092500956964e-01
-6.827039290015884943e-01,4.332543973026741213e-01,-3.455709155765075979e-01
-3.951965252316272381e-02,3.847384394075104019e-01,9.264024596289014424e-01
-2.632181661809011031e-01,3.490105327224399256e-01,-1.714971086330608074e-01
5.114482722713669105e-01,-9.638552902147136392e-02,-1.029792152335189837e+00
2.750133801362948938e-01,3.232182766449374633e-01,3.637479138624749586e-01
5.609230246428885680e-01,6.835915599186179747e-01,-7.104291406042251289e-02
7.309492091418768878e-01,-4.473389796550257258e-01,-1.774680220815561815e-01
3.201768279047602084e-01,1.714108379277189953e-01,-5.454153905954551851e-01
7.166360924895789353e-01,7.250166777507850435e-01,-3.059493843003756042e-01
1.085985281090172810e-01,-3.579420242375652150e-01,3.128523866272044929e-01
5.788928069949769717e-02,1.414790892961148294e-01,-3.469338142247604395e-01
9.816208853823508995e-02,2.860358909315684484e-01,1.002598977685084103e+00
-2.298590564049209084e-01,-2.252267511569155667e-01,6.488159347820023903e-01
4.984815930100972570e-01,1.401019081367708696e-01,-2.053910803732734713e-01
-5.198297813602105188e-01,3.103040597303794446e-01,3.555345621058679240e-01
-5.151775753631370192e-01,7.030581500395002847e-02,4.207640714230591050e-01
-2.364955026921214398e-01,2.088440055140498020e-01,3.835245484177216557e-01
-2.925370864260083970e-01,5.524969248018857249e-02,1.224452986396808579e-01
3.119199813790307640e-01,-5.188883228961323202e-02,7.590733390692946947e-02
-1.196365549236406145e-01,6.924185848673058974e-01,-8.577768811558496020e-01
-7.498146218610807212e-01,-6.580361912797463853e-02,-4.437452323323438225e-02
9.429093535178452445e-02,-1.068022962386059177e-01,-8.553715079790280562e-01
-3.858093082811563379e-01,1.058709042149559021e-01,1.642194471067025818e-01
-2.557143909640148816e-01,-2.079467871072796792e-01,-6.118467616377574192e-01
-2.643053600412547111e-01,-3.170368800573315493e-01,-1.556576814959264587e-01
-6.258857557369720825e-02,2.336436820687771698e-01,-2.297631375384402430e-01
7.788216460072416858e-01,-1.823774646949568590e-01,5.056822200928208222e-01
1.922852074087996188e-01,6.334713986774703764e-02,-2.002995879994537709e-01
-1.432204384654604257e-01,2.295619762500951677e-01,2.488157956107110713e-01
-2.762438042726294563e-01,2.893010874070553462e-01,1.517856951154681333e-01
6.974817359739040601e-01,2.343910863164355707e-01,-2.955200467364516026e-01
-7.865950840718249903e-01,2.973725690070233019e-01,2.263830850836206776e-01
4.669047587987250614e-01,1.423801202796348420e-01,-3.653142208643752609e-01
-3.063428690814056776e-01,-4.473673044896084861e-01,7.569175922606817819e-01
-1.388985822571801587e-01,9.192182782478472425e-02,3.540882009289106347e-01
5.038225855135677334e-01,-4.331788865206692152e-01,4.413994025020504530e-01
9.040571585902236196e-01,-3.750876422218599737e-01,-1.541957702002623165e-01
-2.419987933627340826e-01,2.547575834284715457e-01,6.483278729584196487e-01
-2.919923260593795811e-01,4.011567380888482748e-01,3.424852911568969371e-02
3.625357884269577169e-01,-1.321873393330281199e-01,3.878854081595369263e-01
-4.033972642022927713e-01,3.126166951343344047e-02,-2.560498485141092240e-01
-3.641908702547506094e-01,2.118229325196702983e-01,2.560202484267702916e-01
3.973223171414610455e-01,-5.282995240915789870e-01,-5.540967789142193789e-01
-2.154747732109102976e-01,-2.654383335432410340e-01,3.351316505000392354e-01
4.492162783864896425e-01,-6.934790481582470134e-02,-1.311214430719305768e-01
1.433462739169839850e-01,1.260709537852860163e-01,-1.232134387995119928e-01
2.280293247762918765e-02,-5.276995166462945808e-02,-4.106064701141020623e-01
-1.764541476629208350e-02,1.733368184685483426e-01,7.314977582674583867e-02
7.284220041563384263e-02,-5.324112673480475844e-02,-5.142483870521473710e-01
2.321784776831001262e-01,-4.793723239336841746e-01,6.273697737826596788e-01
-1.873170473935482638e-01,-4.477916140442259052e-01,-4.144109642290310647e-01
9.893970121511155291e-01,4.211384180200822835e-01,1.338846940732667801e-01
-5.443412153998047204e-02,-4.098749829518424925e-01,-1.969372687442433323e-02
-6.513803317748587673e-01,1.028679239456808947e+00,4.375696678022573255e-02
6.225963582785560835e-01,1.884719327618037676e-01,2.772022438950124679e-01
-3.831688316438385811e-01,6.929496179147137669e-02,3.749425887907534838e-01
-8.683255483300340583e-01,3.154470996907562247e-02,5.065524329448459762e-01
-7.788584944280730893e-01,2.871860890150905801e-02,5.097373436571417393e-01
-3.361108724344344933e-01,1.019407013866791667e+00,1.235098913806019105e+00
-1.454130713010305831e+00,1.152866429243026181e+00,4.530902010616920106e-01
-1.706426019640699510e+00,1.051240964218422391e+00,1.643250684294895070e+00
-2.087175427531209770e+00,1.719852416299665565e+00,2.177367865363191601e+00
-2.218447923330578497e+00,1.878197630952152197e+00,2.153082903631438505e+00
-3.654651260757832532e+00,1.974246340985481574e+00,2.352360513381110518e+00
-2.769705491469181879e+00,1.500141294341154063e+00,2.401751370002779495e+00
-3.917786234784241373e+00,1.240207169881201388e+00,2.899965065947737397e+00
-4.241591048101749806e+00,2.300700548134940071e+00,3.483173858644717846e+00
-4.290199668995667182e+00,2.060719584101649460e+00,3.677234132290233770e+00
-4.916520698978710691e+00,1.582605723765262651e+00,2.915009493336250035e+00
-4.526240358532589880e+00,1.300277703636014692e+00,4.222764135997548074e+00
-5.657277083914681981e+00,2.788974448269966100e+00,4.326049872674767371e+00
-5.564533866161138320e+00,2.399839767107201816e+00,4.858315420674246710e+00
-6.156015449963337716e+00,2.408622564121106091e+00,5.112141958006300335e+00
-5.867616502630711217e+00,2.867733937620982054e+00,4.990129337746811444e+00
-5.660001441907946962e+00,2.675418821213320530e+00,4.816347987594110869e+00
-6.497053155745201813e+00,3.978773098708097145e+00,5.362693553708806071e+00
-7.006120311248924537e+00,2.765889668982192351e+00,5.970146422713975554e+00
-7.261333442682409434e+00,2.536960892458404615e+00,6.053445459491538116e+00
-6.809570357732229517e+00,2.531866826121837111e+00,6.182268612354518744e+00
-7.982078458249233677e+00,2.982709423291198370e+00,7.086861833426836732e+00
-7.830394079683095754e+00,1.890017182080945268e+00,7.276659024916143359e+00
-7.643228418826384818e+00,2.788540604033069137e+00,7.880081226935145011e+00
-7.924101116731891992e+00,3.011870666873271318e+00,7.689213156776686375e+00
-8.020392222471949495e+00,2.910156995498224486e+00,8.238069874646306801e+00
-8.096492630395648149e+00,3.156115414093359384e+00,8.158918757225455565e+00
-7.972969606674915610e+00,2.842767532620452897e+00,9.796783978364349110e+00
-8.352116262723010109e+00,3.358765623076148454e+00,8.252402152059383766e+00
-8.651259379785940951e+00,2.479621159662130925e+00,9.126459506508147967e+00
-9.104849308199964852e+00,3.326320861031254239e+00,9.499345339432091251e+00
-8.481332846706157724e+00,2.957687413104018059e+00,9.772384372103669392e+00
-8.633996897713226204e+00,2.683219135923716525e+00,9.144376424001983139e+00
-8.595467593640393034e+00,1.858672474512887973e+00,1.101016961793939863e+01
-8.319575107953799176e+00,2.824407467790959192e+00,1.064313537903342599e+01
-9.094668209896800803e+00,3.047017677693799609e+00,1.105901793190341387e+01
-8.109117039991678766e+00,2.669738785737480580e+00,1.213509072506784925e+01
-8.713783407870375086e+00,2.651354397251034278e+00,1.176460330142502642e+01
-8.776325442523445375e+00,2.803407032972053070e+00,1.156343478496522259e+01
-8.738911301899261019e+00,2.696605491254858933e+00,1.145942529482434757e+01
-8.965834267948290304e+00,3.312215227535985296e+00,1.225478485273613849e+01
-8.390151615471809876e+00,3.642291224052683241e+00,1.353716749054710888e+01
-9.313452487685681902e+00,3.531747712972534980e+00,1.246572632343657894e+01
-8.957818140084478742e+00,3.362971859654322770e+00,1.312749804971996426e+01
-9.008635022332528663e+00,2.475705957512674971e+00,1.384606950485262189e+01
-1.011363275588250232e+01,2.249459014240637877e+00,1.350955456781442265e+01
-9.409150084442490680e+00,2.851014765598580691e+00,1.408999220091363647e+01
-9.559970988744165510e+00,3.326954211580602561e+00,1.416887914868705245e+01
-8.753905098382405825e+00,2.578272976289087026e+00,1.448982421398285148e+01
-9.598544919870606762e+00,2.417298739343984426e+00,1.503542571803500927e+01
-8.945760504589541640e+00,2.198324815345769068e+00,1.500282565048215133e+01
-9.626523737331430297e+00,2.691976015334058392e+00,1.561276516987144092e+01
-9.922878740165286260e+00,2.278037201726341721e+00,1.553838778636367479e+01
-9.597628007325159416e+00,2.843063272791872542e+00,1.598347171147721291e+01
-1.010257616308131468e+01,1.696480054345682165e+00,1.622019116753557455e+01
-9.395051298308388255e+00,3.041465152472651923e+00,1.681845820166886085e+01
-9.813473668872372713e+00,2.449484112546759462e+00,1.672814219119377199e+01
-9.237969341833007775e+00,2.792759666496359205e+00,1.729503170224193553e+01
-1.006147433802836844e+01,2.865695592975382233e+00,1.788812141930913668e+01
-1.019299834979653419e+01,2.315438543887098799e+00,1.693927030722100824e+01
-9.702323129954374181e+00,2.536063468923073660e+00,1.795421109514757418e+01
-9.327166050185608626e+00,2.659634340832343735e+00,1.840679945024838204e+01
-9.803700796241862747e+00,3.358897819167518062e+00,1.857323558555279419e+01
-9.765430916833263808e+00,1.842248822227866567e+00,1.770697938175655395e+01
-9.314568607294432923e+00,2.423159902675664945e+00,1.808932395683626737e+01
-9.272074135909292636e+00,2.078946431287501007e+00,1.811496652461650569e+01
-9.643110526867559429e+00,2.878069253940859440e+00,1.822214509967158591e+01
-9.227037109732268760e+00,2.917692506410714870e+00,1.816637871013197270e+01
-9.645545563631186425e+00,2.376110794773354851e+00,1.842927441934700283e+01
-9.220583782917364246e+00,2.249975801906622053e+00,1.771470610030231185e+01
-8.813977372035900260e+00,1.675796855812033082e+00,1.866921870727976440e+01
-8.826783750460418076e+00,2.027771675704408416e+00,1.834016895652507628e+01
-9.136423228563485210e+00,1.551359010637743285e+00,1.822399134597614534e+01
-8.723576376004693600e+00,2.362137917555632072e+00,1.762760668341698533e+01
-9.320744349296750997e+00,1.982454700547946480e+00,1.768974123219367200e+01
-9.060627198983722153e+00,2.507862648496071767e+00,1.855863593705568704e+01
-9.166641469174271251e+00,1.961978494170997900e+00,1.832063344784819137e+01
-8.829571880959919739e+00,2.031142633982007339e+00,1.750980834098229266e+01
-9.890705709542521262e+00,1.964777767357489990e+00,1.709059007362871085e+01
-9.222170512746240334e+00,2.295322374646580954e+00,1.748665045486949055e+01
-8.652120947601380507e+00,1.999029650051990403e+00,1.701812801111815432e+01
-8.788776103158893349e+00,2.162002560616098634e+00,1.795511060507340773e+01
-9.129509373538308381e+00,2.453328473698351164e+00,1.818410231402960875e+01
-9.112083781236515634e+00,1.166787915439229772e+00,1.809735748642999198e+01
-8.738426225222875487e+00,1.554416343488675301e+00,1.754416503767222579e+01
-8.674925582652525335e+00,1.533979977340898859e+00,1.718577652763461572e+01
-9.990895111743876456e+00,1.198738311586995176e+00,1.792466674789050884e+01
-8.426248837018118110e+00,2.174747744495078905e+00,1.778889881557334718e+01
-8.788270743458884482e+00,2.178456066781567557e+00,1.705576844281933901e+01
-8.801991669575926380e+00,9.431785285916541861e-01,1.777886639646409250e+01
-8.756989228014452564e+00,1.921217968067700621e+00,1.662482395988853767e+01
-8.858536881279480468e+00,1.393393404616773079e+00,1.696046376596808258e+01
-8.689092092636066411e+00,2.299168289695599832e+00,1.667767008219916747e+01
-8.528929947149933355e+00,1.869061850799887514e+00,1.663317980540292851e+01
-7.545676900647037222e+00,1.706229311037589014e+00,1.698027052772019019e+01
-8.423355378309386410e+00,1.202785720774367961e+00,1.649336320002085188e+01
-8.657147583776280797e+00,2.425120707628638073e+00,1.636292723957419426e+01
-8.835399844043557493e+00,1.435408253489480979e+00,1.645418394968066522e+01
-8.342286177616699661e+00,1.672796908723809040e+00,1.654996255001725913e+01
-8.814511379689905723e+00,1.633898685196774725e+00,1.600032205100425742e+01
-8.289839703234983759e+00,9.095075885853732833e-01,1.626820895889241569e+01
-7.905387181839036437e+00,1.617933751097577533e+00,1.590159400645965704e+01
-7.815671710841614050e+00,1.400375332886351742e+00,1.610065476529691963e+01
-8.521812932005840224e+00,8.934378655041959050e-01,1.659273827650037703e+01
-7.675991252740677950e+00,1.918491385213121125e+00,1.542675317164243864e+01
-8.431757294636106792e+00,1.669643024749970950e+00,1.619277776076191699e+01
-8.475346383670439465e+00,1.115518630072811490e+00,1.533189555501102497e+01
-7.697977916239154617e+00,1.869974800004311932e+00,1.517976783375684313e+01
-8.789200165782935059e+00,1.089223059193286991e+00,1.568996465477859203e+01
-7.854239406704892623e+00,1.717036925329940233e+00,1.465887186180370705e+01
-8.487645266504664221e+00,1.081098565310553816e+00,1.450404465460097647e+01
-7.686248989657359587e+00,1.088752714194372251e+00,1.532171636720892316e+01
-7.939764045389480884e+00,1.518691689063813355e+00,1.462417196637854921e+01
-7.635854177441337320e+00,1.054056276571420758e+00,1.560729216573453293e+01
-8.170975772239389201e+00,1.206332421800316190e+00,1.571391326487104223e+01
-6.997732617742542516e+00,1.322437374436258750e+00,1.464803082847274496e+01
-8.113683835225602436e+00,1.022112007899155017e+00,1.472473053566639578e+01
-7.900413284427051153e+00,1.399837495106339702e+00,1.496329142215498109e+01
-7.038509150096791345e+00,1.351316157604013801e+00,1.486551483826193198e+01
-8.243583166953245112e+00,9.825181779176519470e-01,1.479793204678554552e+01
-6.974961329701778290e+00,1.006030186681489136e+00,1.500251117149012714e+01
-8.161207090650574258e+00,1.977435039517934756e+00,1.480481412129764429e+01
-7.261607564479692911e+00,9.866426098183403992e-01,1.482647177437465302e+01
-8.087764505326131115e+00,1.385517703070879625e+00,1.507194358644342636e+01
-7.248855731791689294e+00,1.263905067341612343e+00,1.390442528814859635e+01
-7.427009337355685581e+00,7.152969676707434665e-01,1.417074664851329757e+01
-8.035729782406630051e+00,8.155819238137375082e-01,1.420249787935275876e+01
-7.491090831703069775e+00,1.279847694028696026e+00,1.404159461057959213e+01
-7.229872256506229888e+00,1.015046043931595365e+00,1.395791554973185811e+01
-7.505068567755366793e+00,1.085081792735075323e+00,1.358634481690666540e+01
-7.179692751021606867e+00,8.104777978867895305e-01,1.387774257805467570e+01
-7.619475066764399784e+00,6.900390581677612323e-01,1.441239527506895435e+01
-6.743308329965516101e+00,8.753214992585764964e-01,1.413759035690296351e+01
-7.440745378694570533e+00,5.546250407960708895e-01,1.345302267792716577e+01
-6.651198962587045571e+00,5.161740909238401454e-01,1.379495647901308253e+01
-7.586224656227584795e+00,3.255812148906279124e-01,1.445742060805544149e+01
-7.142636191143059143e+00,3.360820671624518141e-01,1.350864363263956847e+01
-6.770457839951236068e+00,7.573665132796679744e-01,1.281115598658558952e+01
-7.437079050342126685e+00,1.115496532314462774e+00,1.390585137807213023e+01
-7.112531271793962162e+00,1.787100481767594840e+00,1.283836537404376976e+01
-7.084778507035542461e+00,5.030401620577567012e-01,1.374828604176491531e+01
-6.675135256622255042e+00,9.326797415047409778e-01,1.322210451478364313e+01
-7.919874794388584327e+00,1.133839485785332002e+00,1.316496934238471539e+01
-7.291957746133823193e+00,6.865361605487517727e-01,1.292865173105112930e+01
-6.863548264595762838e+00,1.135852071702522670e+00,1.208248787255335088e+01
-6.825997291139705325e+00,1.091142788711390477e+00,1.283799983467821093e+01
-6.762953176071540007e+00,9.013891670818965363e-01,1.219152369685464166e+01
-6.643580571533274970e+00,8.422649982902472576e-01,1.356930158489790017e+01
-6.860020583429845331e+00,5.609347805561372136e-01,1.324957536951747095e+01
-6.505381966359857770e+00,3.432871163987495366e-01,1.258243908366336328e+01
-6.509241399157200014e+00,1.053995488190869079e+00,1.279282586512000819e+01
-6.812875085290745147e+00,1.024325358301062971e+00,1.308376288393863973e+01
-6.240016008456506391e+00,8.489704282672857483e-01,1.278984814409796478e+01
-6.124668177695820503e+00,3.870281390352440232e-01,1.242521985606621726e+01
-6.769502613982831818e+00,2.069528657594377208e-01,1.194596489463184774e+01
-6.014509505633289344e+00,2.056831891156074288e-01,1.220584875389851476e+01
-6.791640467024880223e+00,1.409741206526327062e+00,1.273983109066117514e+01
-6.261453026686042200e+00,6.505864804453197724e-03,1.147095365093214525e+01
-6.226460380501611880e+00,1.169729435370673087e+00,1.200469731396177053e+01
-6.631776045609308667e+00,8.760115541407433870e-01,1.256960257629619448e+01
-6.387681605494491599e+00,-3.135061761119409818e-01,1.264115802651958020e+01
-6.080583898175676794e+00,6.745248382783312902e-02,1.169280655397551527e+01
-5.921147741320402780e+00,1.365987023579323945e-01,1.181140973464635735e+01
-6.088868991710209677e+00,9.166206757268519079e-01,1.168594594884997839e+01
-5.854232361379345662e+00,2.977533031380342199e-01,1.260229702031174526e+01
-6.087723857439438113e+00,5.560910662834692708e-01,1.083369641453181131e+01
-5.737790227038876978e+00,6.337833405646476903e-01,1.162848153937250650e+01
-6.534978245613188186e+00,1.942570412920793244e-01,1.160703842845692080e+01
-5.933483805090676633e+00,8.552502743006453745e-01,1.140963263466588984e+01
-6.664141649221625663e+00,1.522972045171656907e-01,1.121342530786478164e+01
-5.821430850626736486e+00,-1.855655890077663739e-01,1.157440674400393377e+01
-6.554900004907578293e+00,1.071261385363727836e+00,1.122526312804179227e+01
-5.990270510975343576e+00,5.001975939434293306e-01,1.106406616818451205e+01
-5.490926974435414110e+00,8.402363953404867747e-02,1.093157041195069112e+01
-5.781245449190833163e+00,-4.682724994136648333e-01,1.108939330242929877e+01
-5.640624825701640255e+00,4.087622669103556650e-01,1.084600985599134759e+01
-5.478267028448650322e+00,6.353012199641345781e-01,1.084619090470341973e+01
-5.539236787528968975e+00,3.033032802255024585e-01,1.086567246840620271e+01
-6.573228160449494872e+00,3.989290562729119749e-01,1.099006630674146301e+01
-5.610502864999043382e+00,3.735330029953832232e-01,1.142783232567360230e+01
-5.298500674215096851e+00,6.201984195497246555e-01,1.155778052018570357e+01
-5.102854623048929561e+00,1.368120185861043114e-01,1.058307755683800799e+01
-5.705653652764066663e+00,2.558983324833448147e-01,1.055899818607929497e+01
-5.927469245453245605e+00,7.519377347198239470e-01,1.015872654067723779e+01
-5.970221801601950595e+00,1.360955539162642225e+00,1.066109939975687659e+01
-5.829478011905064427e+00,5.138664464048567915e-01,1.077486774394618152e+01
-5.384553588805357727e+00,8.470234816866275551e-01,1.032817324875523468e+01
-5.764483693632423744e+00,2.511454920316575148e-02,1.033350340639512410e+01
-5.587518692811213938e+00,4.783703219713560939e-01,9.606073473287946030e+00
-5.189102305429016404e+00,1.913728058692936163e-01,1.059773479864241885e+01
-5.344792874734452859e+00,7.532329618342610278e-01,1.074517081261579143e+01
-5.059228600073428339e+00,-5.574467032737558114e-02,1.058008950743830034e+01
-4.687236258739148731e+00,2.372050530323221440e-01,1.034352373799912250e+01
-4.874923707791606553e+00,1.720508198449318404e-01,9.860414680784046482e+00
-5.260422123645238202e+00,7.231764602875696835e-02,9.347970323453623109e+00
-5.212879932092754132e+00,3.757842153893620890e-02,9.873543617122697569e+00
-5.682925251185398707e+00,3.685492105575370880e-01,9.686628359304693348e+00
-5.489387544503542493e+00,1.053331374386307362e-01,9.033334200262698843e+00
-5.829460996115367166e+00,3.503660156332917830e-01,9.825312325799441027e+00
-5.394283804962708651e+00,1.384097529700714091e+00,9.589656886551635395e+00
-4.641480962260954968e+00,-1.253303167550717356e+00,9.848267833554478656e+00
-4.491457166020714098e+00,-5.511774417646149449e-02,9.827623166163387936e+00
-4.561508800148169840e+00,-2.995758060372570308e-01,9.443843467163857142e+00
-4.264039397274702381e+00,2.974857843518248779e-01,8.953557896415659911e+00
-5.003217043972362887e+00,2.548244426185998154e-02,1.015393439235881523e+01
-5.665053900964833744e+00,-8.199653210939996661e-01,9.278998821431502009e+00
-5.255476135650094527e+00,9.088222465526410790e-03,9.123989156099243658e+00
-4.607392727295358981e+00,6.557442221267301141e-02,9.592571621708289697e+00
-4.314293348161756469e+00,1.024738104344813605e+00,9.493584073041693827e+00
-5.848869102788383678e+00,1.003456484797576653e+00,9.105016840845754800e+00
-6.235558986418636707e+00,-7.858479447603748946e-01,9.023572077496879729e+00
-5.582521064146508394e+00,6.579903225033320036e-01,7.942783318102478063e+00
-4.506702453628599336e+00,7.366486480841012187e-03,9.193829445215779828e+00
-4.632910289210488308e+00,6.324966554808709729e-01,1.013612651978992574e+01
-4.904936970024611043e+00,8.443109978265839199e-02,9.806410985952030757e+00
-4.306868844544927022e+00,-2.563948265546206473e-01,8.569854039256190603e+00
-5.006541229584913211e+00,2.802029081972236269e-02,8.615535207742494705e+00
-4.492884753995455505e+00,5.443112209664738854e-01,9.382831862535967460e+00
-4.571795019484332201e+00,5.605200358741774247e-01,8.930307276032097619e+00
-4.451699628865076974e+00,-1.440959240583644940e-01,8.631297009796954356e+00
-4.773631739090476778e+00,2.744357652721985397e-01,9.580921534745973744e+00
-4.613289474619159058e+00,1.679447458792216949e-02,8.405517605322939900e+00
-4.749819168443636386e+00,4.493037514973141078e-01,8.605767995595943631e+00
-4.967304048955710094e+00,2.755630890682336798e-01,8.154583172484876741e+00
-4.491892833490277681e+00,2.424833046253210000e-01,7.647658309540910082e+00
-5.048591148696247366e+00,-1.366184242346078215e-01,9.055619700344859524e+00
-4.743105615023091026e+00,7.424824179417710557e-01,8.107584199105263068e+00
-4.684613442562490349e+00,3.854142672366819844e-01,9.150115452801408367e+00
-4.799632549994057307e+00,-4.152651103001210597e-02,8.720930212736883291e+00
-5.198729537792246447e+00,-3.862686675027782526e-03,8.903051178308354352e+00
-4.677915799205026204e+00,5.086603186084912576e-01,7.618659056884967917e+00
-4.443333697124441706e+00,1.160697107054863064e+00,8.446558792089147616e+00
-4.163173874443642397e+00,1.170253094989508053e-01,7.900673339418780472e+00
-4.472498114897211607e+00,2.712456805751453093e-01,8.403027983291263325e+00
-4.527817870964345737e+00,3.039600609172269374e-01,7.766760716517172369e+00
-4.071647071044103505e+00,-6.382233787602743513e-01,8.400720924964788949e+00
-5.141400761657136442e+00,-2.381087002916989492e-01,7.946116614363107900e+00
-4.760432604315592009e+00,1.791073423397375464e-01,8.109818636228597555e+00
-4.038147227238432890e+00,4.191592202651616035e-03,7.548560823263441577e+00
-4.136566208378597231e+00,5.392759200720272927e-01,7.090896180310445551e+00
-4.331769184285966467e+00,7.774030940630696773e-02,8.275961635398088490e+00
-3.643799729039280511e+00,3.452769502155569881e-01,8.101987949179646264e+00
-3.378371003587509858e+00,8.659646697549643335e-01,7.651677093318535405e+00
-4.083443546140705038e+00,9.153978143797320000e-01,7.774424217521998415e+00
-3.779089066350278081e+00,-2.299505993975246854e-01,7.783796327261562453e+00
-4.681448416494993658e+00,-3.246015893726588164e-01,7.921175065992874131e+00
-3.731983031401049367e+00,4.529554957416618288e-01,7.277360306302563586e+00
-3.252216073655594730e+00,-5.221268445983575646e-01,7.721526207068929892e+00
-3.599342441697074069e+00,-4.508489643519777990e-01,7.435614432474625168e+00
-4.021958617609286968e+00,3.569530875605203546e-01,7.903567337578055962e+00
-3.384479935544755236e+00,1.002975506363146252e+00,7.876130481331485633e+00
-3.998571359536952752e+00,3.568298310735304457e-01,6.893231405321837535e+00
-3.368935668021280971e+00,5.039051847482891588e-01,7.842286403313750931e+00
-3.410111874890930928e+00,-1.287215996768813486e-01,7.337764141948299290e+00
-4.327867859935381922e+00,2.119182619722364408e-02,7.850077692840239152e+00
-3.730043441205903143e+00,-2.192668533551319909e-01,7.388257469814170086e+00
-3.800318475154585318e+00,-4.068003989782475460e-01,6.894912116868753493e+00
-3.865438990214147719e+00,4.628762512846481547e-01,6.988680682223025187e+00
-4.015089195926193177e+00,-3.698892187751987026e-01,7.441422246370865246e+00
-3.659892553197934717e+00,1.139033836646348441e-02,6.766573152236020405e+00
-4.056141275642698218e+00,4.289207751566534998e-01,7.095735527138795184e+00
-3.904291779896236658e+00,2.749667349873404776e-01,7.776787834118330522e+00
-3.927198225624703998e+00,3.337557040486562876e-01,6.423489908152142824e+00
-3.117506390372051683e+00,-7.766853095297029386e-01,6.935329423631605650e+00
-3.457010263551115514e+00,7.737419203283787406e-01,6.864555232274800467e+00
-3.387114138713591238e+00,-1.921804084672543711e-01,7.137666366555960096e+00
-3.927776427813293392e+00,5.610465845857252540e-03,7.071896721893302207e+00
-3.711270036023922358e+00,4.073914149630425974e-01,6.863683869081924627e+00
-4.899191499785599646e+00,2.609966968597107750e-01,7.141719571824439505e+00
-4.374565376274142103e+00,-2.328494716569650680e-01,6.769477184828094352e+00
-3.545406646286149321e+00,4.232053279381289834e-01,6.545892501463867141e+00
-3.581999714886782815e+00,2.651214684706579283e-01,6.430211798625544262e+00
-4.501359046575218237e+00,6.400821508184948438e-01,6.786526910123984457e+00
