# IMU数据（从gnss-ins-sim转换）
# 坐标系: NED（北-东-地）
# timestamp gyro_x gyro_y gyro_z accel_x accel_y accel_z
# 单位: s, rad/s, rad/s, rad/s, m/s^2, m/s^2, m/s^2
0.000000 -0.0019253205 -0.0090829397 0.0046482962 0.0405043222 -0.0203748622 -9.7603327705
0.010000 0.0086023167 -0.0068512877 0.0037173511 -0.0467441912 0.0025171553 -9.7510918031
0.020000 0.0027004902 0.0019664169 -0.0081277456 -0.0331304150 0.0860140223 -9.7485911910
0.030000 -0.0103505799 0.0038043214 -0.0034325931 0.0102953990 0.0209743278 -9.6919056495
0.040000 0.0113614333 0.0030638648 0.0004387724 0.0216382750 -0.0324725453 -9.7620339888
0.050000 -0.0144533199 0.0007424088 0.0019239990 -0.0416182928 -0.0384092811 -9.7238889711
0.060000 0.0033474925 0.0080203893 -0.0011833715 0.0233054279 0.0094806829 -9.7612761752
0.070000 -0.0102045622 0.0042753805 -0.0130393934 0.0214323962 0.0194796551 -9.7928829167
0.080000 -0.0045452997 -0.0036055153 0.0034427791 0.0035175179 0.0155696862 -9.8619807632
0.090000 -0.0105241012 0.0012971179 -0.0120081651 0.0080499979 0.0119324892 -9.8380522349
0.100000 0.0003096486 -0.0091441822 0.0009866043 0.0410651166 0.0179745904 -9.8274196208
0.110000 0.0097069249 -0.0035673662 -0.0108731380 0.0022988947 0.0070395093 -9.7446098595
0.120000 -0.0048311773 0.0002890145 0.0060133037 -0.0098772791 0.0495395332 -9.7387823696
0.130000 0.0017809694 -0.0003545213 -0.0146319162 0.0470707566 0.0176299933 -9.8158499083
0.140000 0.0076578411 0.0080160648 -0.0091220809 0.0598980052 -0.0477861266 -9.6642278583
0.150000 0.0000088905 0.0044845188 0.0083238671 -0.0118060256 0.0222677876 -9.8311930608
0.160000 -0.0104040010 -0.0040991077 0.0016475458 -0.1113374070 0.0545397594 -9.7413708292
0.170000 -0.0070780574 -0.0087052796 -0.0127608348 -0.0226908798 -0.0081209001 -9.8074002805
0.180000 -0.0045890302 0.0130129436 -0.0191265276 -0.0378539943 -0.0072133556 -9.7460434051
0.190000 0.0008271962 -0.0039688345 0.0045755059 0.0654524994 0.0154185352 -9.8373350747
0.200000 -0.0048652252 0.0079937375 0.0080602343 -0.0128730452 0.0377897390 -9.8080579195
0.210000 0.0077242992 -0.0035982189 0.0030242784 0.0531078267 -0.0460525108 -9.7766775367
0.220000 0.0010682720 0.0156171278 -0.0038759505 0.0349578740 -0.0069451682 -9.7198850321
0.230000 -0.0115228375 0.0034278301 0.0039829708 0.0088187093 -0.0807761333 -9.9044571045
0.240000 0.0022381535 -0.0072094521 -0.0014311254 0.0293341441 -0.0389537796 -9.8278289143
0.250000 0.0054432066 0.0067417932 -0.0132403906 -0.0037709080 0.0937474758 -9.8312526742
0.260000 -0.0058398553 0.0025513293 0.0135486119 0.0418413470 -0.0278120043 -9.7462035765
0.270000 -0.0039093172 0.0056998926 -0.0146002902 0.0122678119 0.0014868070 -9.8016400776
0.280000 -0.0064627722 -0.0023734739 0.0021604743 -0.0251370194 0.0844022165 -9.8352733265
0.290000 -0.0066026574 -0.0099587658 0.0001583634 -0.0048398061 0.0332722216 -9.8696922881
0.300000 0.0092927930 0.0251336015 0.0055836898 0.0199066722 0.0254390289 -9.7479219342
0.310000 -0.0031349983 -0.0222169263 -0.0046026030 0.0347291368 0.0135508221 -9.8524997844
0.320000 -0.0092417062 0.0003329419 0.0042742663 0.0675940339 -0.0531161741 -9.7733913561
0.330000 0.0177406931 -0.0040991523 0.0108167776 0.0231238683 0.0300976744 -9.7947435078
0.340000 0.0128655086 -0.0007206671 0.0107806004 -0.0626312907 0.0570904755 -9.7782675704
0.350000 0.0061700781 0.0054904678 -0.0010750363 0.0688669693 -0.0178075204 -9.8251368750
0.360000 0.0130359412 0.0030224670 0.0051154557 0.0160344048 -0.0558911719 -10.0081595717
0.370000 -0.0017713053 0.0132253395 0.0046032931 0.0131798224 0.0048454188 -9.7463734307
0.380000 -0.0013115714 -0.0071253201 -0.0088171256 -0.1000922960 -0.0224540605 -9.8418963568
0.390000 0.0054946389 0.0085363293 0.0030554547 -0.0459670785 -0.0581555816 -9.8301403485
0.400000 -0.0008800776 -0.0063768098 -0.0061294152 -0.0195762880 0.0280675298 -9.9060022990
0.410000 0.0063431539 0.0066668893 0.0007305087 0.1034532787 -0.0546383296 -9.7399788835
0.420000 0.0032677187 -0.0025266203 -0.0038292691 0.0396398483 -0.0784823902 -9.6637178342
0.430000 -0.0104896554 0.0000376168 0.0186879025 -0.0155692716 -0.0587953654 -9.7803129715
0.440000 0.0000206028 0.0096872404 -0.0031193135 -0.0535984606 0.1013868549 -9.7982591018
0.450000 0.0033230682 0.0012537798 0.0070512245 0.0054939227 -0.0404237392 -9.7565554098
0.460000 -0.0056304466 0.0008301663 0.0203109453 0.0075084051 -0.0426724466 -9.9487390303
0.470000 -0.0003199739 -0.0015792701 0.0018016240 0.0315882898 0.0394214036 -9.6399522052
0.480000 0.0016339366 -0.0053219951 0.0189932101 -0.0686161560 0.0144077879 -9.7509579885
0.490000 -0.0048713299 -0.0000472972 0.0022623143 0.0028723758 -0.0144211984 -9.8835833677
0.500000 0.0024888385 0.0143656960 -0.0068450917 -0.0171298774 -0.0383962132 -9.8234141383
0.510000 -0.0099404474 0.0026945975 -0.0003985619 -0.0410552286 -0.0154804226 -9.8034871109
0.520000 0.0022620149 -0.0019240252 0.0101273781 0.0022218849 -0.0390881823 -9.8123692905
0.530000 -0.0021256730 0.0049876285 -0.0052269882 -0.0389363765 -0.0168711248 -9.7932225849
0.540000 -0.0024906939 0.0177058951 0.0107249294 -0.0091563294 -0.0049416673 -9.8990021412
0.550000 0.0021929429 -0.0016111632 0.0005818942 -0.0197254796 -0.0252155367 -9.7276390588
0.560000 0.0056747929 0.0090566777 -0.0119256297 0.0138664414 0.0534974062 -9.8674676329
0.570000 0.0009127365 -0.0049271944 0.0126219711 -0.0279083388 -0.0010991032 -9.7099380793
0.580000 0.0109487153 0.0047070575 -0.0032572364 -0.0831903817 -0.0077648547 -9.7117413700
0.590000 -0.0008100000 -0.0019753774 -0.0075327635 0.0088059690 0.0303707807 -9.8138667786
0.600000 -0.0088964632 -0.0011670613 -0.0061587593 0.0301869136 0.0760402415 -9.8189453939
0.610000 -0.0057490702 0.0048163287 -0.0056062697 -0.0121182447 -0.0694080721 -9.7027501191
0.620000 0.0005874543 0.0040482558 -0.0036133485 -0.0216507324 -0.0245012642 -9.6879881060
0.630000 -0.0036306801 0.0014843236 0.0094720911 -0.0449310297 -0.0416688086 -9.7103105122
0.640000 0.0140990050 -0.0094540419 0.0122333659 0.0040349501 -0.0046852927 -9.8089038303
0.650000 -0.0073866238 0.0096721547 0.0044632571 -0.0386956849 0.0054097562 -9.8486244714
0.660000 0.0017516740 0.0043957437 0.0122703416 -0.0195768081 0.0731898297 -9.8186156445
0.670000 -0.0052942016 0.0064516821 -0.0075718319 -0.0316522059 -0.0583423008 -9.8385239065
0.680000 -0.0047828143 -0.0056280374 -0.0176542247 -0.0703255527 0.0745298092 -9.8530725963
0.690000 0.0056826303 0.0088786875 -0.0042163006 0.1035181786 0.0167018191 -9.8120955940
0.700000 0.0004351660 -0.0028342976 -0.0204980153 -0.0179578440 -0.0087394669 -9.8082706672
0.710000 0.0000978088 -0.0010374752 -0.0050231602 -0.0160395073 0.0523258234 -9.7763304758
0.720000 -0.0041677000 0.0090243333 0.0042346063 0.0701302600 0.0256852857 -9.8466943484
0.730000 0.0105964383 -0.0025501846 0.0051702230 0.0145925424 -0.0168834288 -9.8178471633
0.740000 -0.0054384704 0.0000713849 -0.0130031416 0.0748502574 0.1024353958 -9.7367270422
0.750000 -0.0012343247 0.0011255065 -0.0051410480 -0.0198345528 -0.0096095455 -9.8301789594
0.760000 -0.0044929262 0.0014919577 -0.0021274276 0.0314262501 0.0053418418 -9.8779600599
0.770000 0.0099413333 -0.0007511167 -0.0061663987 -0.0646036662 -0.0066975559 -9.6991097547
0.780000 -0.0053824247 0.0058557263 0.0084228801 0.0312507032 -0.0533874685 -9.7342966457
0.790000 -0.0017325141 -0.0026742025 -0.0063205526 -0.0235787415 -0.0067574210 -9.8189360016
0.800000 -0.0133236477 -0.0144873969 0.0030615967 -0.0160600167 0.0315261729 -9.7876653287
0.810000 0.0036273903 -0.0032384203 -0.0140479316 -0.0149558693 0.0656895400 -9.8160054461
0.820000 0.0129129660 0.0069025309 0.0100889138 0.0183141826 0.0189495944 -9.8919863495
0.830000 0.0059367831 0.0025912415 -0.0022352757 -0.0104987425 -0.0207476287 -9.7807720528
0.840000 -0.0058969140 -0.0147685533 -0.0004159189 0.0224226067 -0.0042920751 -9.8211644513
0.850000 0.0015964103 0.0070145909 -0.0017204873 -0.0179661380 -0.0159158517 -9.7333014701
0.860000 -0.0019212464 0.0052497038 -0.0010945167 -0.0179448578 0.0190300223 -9.8866016193
0.870000 -0.0020578349 -0.0093925257 0.0015447469 -0.0549890381 -0.0105434934 -9.8403418551
0.880000 0.0027414905 0.0178383675 -0.0040679335 0.0367169632 -0.0191709377 -9.7558591730
0.890000 0.0022181823 0.0009984307 0.0175550887 0.0535955624 -0.0016592907 -9.7983459418
0.900000 -0.0080736679 -0.0023943924 -0.0009128010 -0.0472562966 -0.0490054325 -9.8555580271
0.910000 0.0112096879 0.0111552574 -0.0043900814 0.0590250332 -0.0115990649 -9.8242700601
0.920000 0.0084875760 -0.0001381726 -0.0021899972 0.0341489532 0.0021127618 -9.7574279424
0.930000 -0.0098548646 -0.0026737487 0.0055313125 0.0178867197 -0.0156511397 -9.8281371197
0.940000 -0.0032909754 -0.0174614240 -0.0043467520 -0.0496965481 0.0130869071 -9.7738399872
0.950000 0.0000019777 0.0060083927 -0.0045597847 0.0267737416 0.0358352078 -9.8199596975
0.960000 -0.0011577196 -0.0004021120 -0.0109684761 0.0285918551 0.0343179053 -9.7561168244
0.970000 0.0001616115 -0.0057104199 -0.0007536851 -0.0401023469 -0.0267327489 -9.7638128369
0.980000 -0.0052024618 -0.0042706020 0.0040641042 0.0220377997 -0.0056063587 -9.7893120148
0.990000 -0.0063084457 -0.0054082231 -0.0041305966 0.1188629728 0.0241461686 -9.7874508896
1.000000 0.0012215907 0.0018641227 0.0105937828 -0.1244141191 0.0421647312 -9.6984504870
1.010000 0.0008178939 0.0040258799 -0.0020559109 -0.0288902372 0.0124186694 -9.7312680400
1.020000 -0.0080967658 0.0049191400 -0.0078348849 0.0265788403 -0.0318820027 -9.7789368284
1.030000 -0.0020019879 0.0100096894 0.0031719805 -0.0074732560 0.0105205784 -9.7858214785
1.040000 0.0054401880 -0.0007888485 0.0009303373 -0.0208839224 0.0127764181 -9.6152081393
1.050000 -0.0177092930 0.0007735911 -0.0001019102 0.0377324300 0.0232562907 -9.6785462441
1.060000 0.0086948484 -0.0012019868 -0.0139052176 -0.0245946552 -0.0004586943 -9.7815404779
1.070000 -0.0064210037 -0.0035892725 -0.0059199876 -0.0102124802 -0.0213371892 -9.8236122085
1.080000 0.0005585624 -0.0057911068 -0.0017186567 0.0195719121 0.0380301698 -9.7430957899
1.090000 0.0141463853 0.0008629303 -0.0064207103 -0.0342740711 0.0296322924 -9.7056779946
1.100000 -0.0047414909 0.0035839371 0.0050003331 0.0049642885 -0.0278692502 -9.8482068990
1.110000 -0.0169679041 -0.0055370535 -0.0044059545 -0.0111424547 -0.0176762063 -9.8244817159
1.120000 -0.0015652668 -0.0062922178 -0.0109463619 0.0124339898 0.0593176965 -9.7675762540
1.130000 -0.0076124446 -0.0051051135 0.0001476139 0.0277971027 0.0260898093 -9.9001880645
1.140000 -0.0126523068 -0.0027562179 0.0047307612 -0.0224143629 -0.0053085551 -9.7544581204
1.150000 -0.0150354797 0.0088164961 -0.0091961606 0.0099602756 0.0460513809 -9.7393320931
1.160000 -0.0092946991 0.0099568009 -0.0028572142 0.0609361677 -0.0467456811 -9.8712118136
1.170000 0.0039316006 0.0159300434 0.0022804458 0.0197448954 0.0004185290 -9.7534163982
1.180000 0.0126392369 -0.0088699450 0.0136046070 -0.0266871367 -0.0178757309 -9.7895980827
1.190000 0.0085785307 0.0017729881 0.0011130113 0.0067006182 -0.0699123051 -9.7584319992
1.200000 -0.0120280483 0.0126522066 0.0094315263 -0.0035919008 -0.0312743624 -9.8679453016
1.210000 -0.0009137668 -0.0040124351 -0.0008746262 -0.0511910381 -0.0196061873 -9.8888693227
1.220000 0.0078622312 -0.0060229279 0.0120860078 -0.0261927530 0.0083190305 -9.7952498026
1.230000 -0.0038804906 0.0111922868 -0.0035634548 -0.0314676849 -0.0007175766 -9.7633730858
1.240000 -0.0109120119 -0.0042382714 -0.0094884439 -0.0650281859 -0.0056101196 -9.8300644309
1.250000 0.0088911595 0.0038103510 -0.0108605672 0.0409950924 0.1131826442 -9.7749247905
1.260000 0.0014504585 -0.0007128223 -0.0051725935 0.0354169636 0.0197445805 -9.7998442195
1.270000 -0.0021889167 -0.0021574012 0.0010750804 0.0021334490 0.0384949484 -9.8696665163
1.280000 -0.0062587519 0.0104213786 -0.0051449953 -0.0368875739 0.0639222295 -9.7395445201
1.290000 0.0115263400 -0.0049651798 0.0036342182 0.0062167530 0.0560383500 -9.7708414863
1.300000 -0.0058431726 0.0041898223 0.0085667421 -0.0346894053 -0.0489302940 -9.7444738709
1.310000 0.0071782185 0.0179587472 -0.0004847835 -0.0235962123 -0.0014123263 -9.7884887394
1.320000 0.0013933422 0.0086698751 -0.0022766761 0.0204767195 -0.0968559291 -9.8546330350
1.330000 0.0132907388 0.0013759881 0.0030031460 0.0221779303 -0.0098402927 -9.7285502266
1.340000 0.0181869922 -0.0000354682 -0.0079531774 -0.0131327056 -0.0521082856 -9.9641330290
1.350000 0.0010749954 0.0112066252 0.0142649829 -0.0208935401 -0.0488096033 -9.7617591107
1.360000 0.0050895296 -0.0056441933 0.0115503461 0.0151664520 -0.0513807331 -9.8208642230
1.370000 0.0135694738 -0.0023237806 0.0070995996 0.0057182021 0.0081474302 -9.7818687360
1.380000 0.0004805970 -0.0035001375 -0.0056437307 0.0562539230 0.0715023221 -9.8466125291
1.390000 0.0174009460 -0.0067409300 0.0039447222 -0.0492506552 -0.0561419389 -9.6802908396
1.400000 -0.0003483281 0.0031735893 0.0060265738 0.0237626086 0.0065167653 -9.8380519079
1.410000 0.0060503609 -0.0057071172 0.0101958355 0.0881978707 0.0013940078 -9.7315124494
1.420000 0.0004276534 -0.0010337710 -0.0029864722 0.0263860831 -0.0278437869 -9.7710457174
1.430000 0.0072549311 0.0095308840 0.0172798267 -0.0215291540 -0.0766515362 -9.7743441565
1.440000 -0.0002027582 -0.0066773656 0.0027409370 -0.0178910678 0.0660880402 -9.7592177752
1.450000 -0.0098314854 -0.0004766667 0.0023522475 -0.0306967845 0.0084806797 -9.8481585836
1.460000 -0.0060096615 0.0085010545 -0.0023194717 0.0028975712 -0.0216049773 -9.7833896396
1.470000 0.0010103413 0.0010006232 -0.0050255947 0.0252240368 0.0455745070 -9.8356291477
1.480000 -0.0048237011 -0.0050818913 0.0061451050 -0.0739818543 -0.0490745297 -9.7929683953
1.490000 -0.0049215703 0.0087060538 -0.0024407065 0.0572542531 0.0224895522 -9.7646898147
1.500000 0.0057932561 0.0024761655 -0.0080661563 -0.1159466902 0.0068373155 -9.8181432385
1.510000 -0.0085921281 -0.0003606571 -0.0059061507 -0.0124533093 0.0857985504 -9.8274663943
1.520000 -0.0023663882 0.0007637839 -0.0063142115 -0.0322703246 -0.0637612697 -9.7802584993
1.530000 -0.0044332288 0.0049538440 -0.0018330119 -0.0389576797 0.0110957925 -9.6983320970
1.540000 0.0001222721 -0.0006455835 0.0057868981 -0.0295437243 -0.0054893561 -9.7738301221
1.550000 0.0075948145 -0.0052925666 0.0074653144 0.0990852972 -0.0656404898 -9.7966810449
1.560000 0.0009956585 0.0032492838 -0.0030441627 -0.0359735523 -0.0308468319 -9.8517285376
1.570000 0.0017689896 0.0043247384 0.0014451597 -0.0076651168 -0.0428299278 -9.8748750614
1.580000 0.0026258128 0.0047063212 -0.0111750765 0.0052197396 0.0127996657 -9.8149102461
1.590000 -0.0034934588 0.0006236038 -0.0022625416 -0.1045461447 -0.0068174375 -9.7411377438
1.600000 -0.0025442239 0.0046539200 0.0016608361 -0.0110934113 -0.0003715049 -9.7739592256
1.610000 0.0075122631 0.0071448522 -0.0018379457 0.0687869182 -0.0109382139 -9.7574699025
1.620000 0.0125728307 -0.0021667886 0.0213815610 -0.0110236090 -0.0305161526 -9.8081801698
1.630000 -0.0044151390 0.0013948479 0.0057183101 0.0065192930 0.0316212035 -9.8310989851
1.640000 -0.0135746919 0.0178930536 0.0053894715 -0.0143882329 -0.0574088916 -9.8494583193
1.650000 0.0027885464 0.0147089490 0.0166208868 0.0510109159 -0.0247557693 -9.7247603468
1.660000 0.0110422031 0.0024423895 0.0005976974 0.0654132412 -0.0327597244 -9.7477526565
1.670000 0.0116177273 0.0027818824 -0.0004740946 0.0033640884 -0.0610089749 -9.8257240442
1.680000 0.0002082488 0.0111223343 -0.0130820126 -0.0576258668 -0.0646259516 -9.7377560533
1.690000 -0.0103867858 0.0067954280 0.0054856123 -0.0240594187 0.0513498998 -9.8295739164
1.700000 -0.0030511953 0.0046110696 -0.0017526268 0.0017005070 -0.0257437681 -9.7756305011
1.710000 -0.0045122395 -0.0057803597 -0.0001972259 -0.0398619749 -0.0993081014 -9.7534079717
1.720000 0.0110480398 0.0072715358 -0.0031374385 0.0831295940 -0.0672313286 -9.7704296449
1.730000 -0.0142530767 -0.0066214316 0.0105102394 0.0049665549 0.0285572009 -9.8255647193
1.740000 -0.0031112653 -0.0007494439 0.0001910976 -0.0491100363 -0.0024496186 -9.8001095003
1.750000 0.0066666326 0.0058174617 0.0024945767 -0.0898387449 -0.0047807152 -9.7296044931
1.760000 0.0041466643 0.0003773723 0.0085835065 -0.0145408640 -0.0356936527 -9.6280542683
1.770000 0.0140623126 -0.0009909129 0.0013722666 -0.0227023945 -0.0527788683 -9.8248205039
1.780000 0.0000960413 0.0020035233 -0.0000798928 -0.0780445709 0.0335390143 -9.8334155231
1.790000 0.0007548894 -0.0027481162 0.0013697070 0.0566793209 0.0298615747 -9.8009270075
1.800000 -0.0037599904 -0.0029931307 -0.0067110233 0.1058769592 -0.0374254416 -9.7274708875
1.810000 0.0033571409 0.0034241127 -0.0001701521 0.0934892794 -0.0387845964 -9.7754945504
1.820000 -0.0080220139 -0.0008014053 -0.0025511268 0.0473328505 0.0346605410 -9.8433044238
1.830000 0.0016887030 0.0046471470 0.0069405363 0.0058955084 0.0491940274 -9.8629104842
1.840000 -0.0008268401 0.0031399798 -0.0072033055 0.0594239701 -0.0024687581 -9.8571833989
1.850000 0.0060776420 0.0033179191 -0.0002070741 -0.0335369143 0.0043702789 -9.7510786209
1.860000 -0.0100588224 0.0015715944 -0.0007023239 -0.0540041055 0.0567421680 -9.8164754306
1.870000 0.0170688280 -0.0133580941 0.0076210747 -0.0222548985 -0.0072816186 -9.8482518791
1.880000 0.0025867996 0.0096169249 0.0143362065 -0.0178386776 0.0206455178 -9.7978492847
1.890000 0.0151071307 0.0027036073 0.0058133878 0.0025653426 -0.0146378259 -9.7678905398
1.900000 -0.0034430853 0.0109787745 -0.0048576292 0.0377138747 -0.0786578658 -9.8938394934
1.910000 0.0016008640 -0.0060090706 0.0001434582 0.0095754174 0.0191662473 -9.8744313213
1.920000 -0.0048475010 -0.0049005031 0.0035695479 -0.0213840738 -0.0133602547 -9.8044537498
1.930000 0.0037623324 0.0017451349 0.0141368170 -0.0069052358 -0.0364331007 -9.8008941454
1.940000 0.0127098270 -0.0094518887 0.0017349456 0.0564807709 -0.0168472644 -9.8265243122
1.950000 0.0154351462 0.0013118987 0.0047791439 -0.0075763978 -0.0554138958 -9.7941245980
1.960000 -0.0017794599 -0.0060834968 -0.0072163812 -0.0554764095 -0.0342154553 -9.9305697438
1.970000 0.0006809778 0.0130394418 0.0014363414 0.0650995159 -0.0046490312 -9.7120853793
1.980000 0.0026722765 0.0027556463 0.0030004055 -0.0384717389 -0.0458927626 -9.8308699770
1.990000 0.0017233169 -0.0017885184 -0.0013748886 -0.0236316917 0.0215555504 -9.7908609863
2.000000 -0.0013483667 -0.0060793341 -0.0122491844 -0.0345895937 -0.0425380076 -9.8206777574
2.010000 0.0028994532 -0.0101441149 -0.0104852937 -0.0122327408 -0.0686016202 -9.7206912402
2.020000 -0.0048397589 -0.0094870950 0.0006330877 0.0228322551 0.0267207238 -9.7678805490
2.030000 0.0051677482 0.0065963132 -0.0041006281 0.0365328397 0.0058652694 -9.8340866863
2.040000 -0.0070953435 0.0006459847 -0.0029982513 -0.0185543013 -0.0712327594 -9.8192586451
2.050000 0.0047173904 -0.0013874947 0.0034222957 0.0781197959 0.0158632393 -9.8198651665
2.060000 -0.0046610895 0.0112845722 0.0078849217 0.0336348141 -0.0469157691 -9.7500964172
2.070000 0.0007871845 0.0056045350 0.0029497841 -0.0299841740 0.0660972317 -9.8127709276
2.080000 0.0012239921 0.0006903095 0.0034809366 0.0109081499 0.0173574527 -9.6744475048
2.090000 -0.0026070495 -0.0037057105 0.0001569972 0.1009982039 -0.0284141481 -9.8083192208
2.100000 0.0123333412 -0.0006860991 -0.0120098053 0.0386179050 0.0605372374 -9.7307018582
2.110000 -0.0025261623 0.0123795570 0.0027111775 0.0000648702 0.0011739997 -9.8350295964
2.120000 -0.0056511990 -0.0083382239 -0.0067350259 -0.0705977663 -0.0175699262 -9.7969665241
2.130000 -0.0026150942 0.0064380872 0.0010235692 -0.0255258964 -0.0347638506 -9.7538443633
2.140000 0.0017432680 0.0019039335 0.0140319469 -0.0804149557 0.0517072860 -9.8876663385
2.150000 -0.0129620481 -0.0070892920 0.0050598009 -0.0031655465 0.0175131419 -9.8071870346
2.160000 0.0242131085 -0.0015988363 0.0001370632 0.0200405381 0.0158810109 -9.8122123868
2.170000 -0.0016326464 -0.0137196086 -0.0037028837 -0.0186995001 -0.0651952542 -9.7730713807
2.180000 0.0007117225 0.0021946342 -0.0042089785 -0.0369922999 -0.0509609041 -9.7055594046
2.190000 -0.0074170821 0.0014080557 -0.0044740475 -0.0164871747 0.0425173990 -9.7538218257
2.200000 0.0040367589 -0.0215732824 -0.0018833502 0.0156917345 -0.0155833350 -9.8058223189
2.210000 -0.0134482089 0.0093844181 0.0096467490 0.0627452232 -0.0415169380 -9.8758567335
2.220000 -0.0044970832 -0.0014005481 -0.0127370513 -0.0245758036 0.0381448094 -9.7540527700
2.230000 -0.0113076999 0.0177368078 -0.0017017855 -0.0139650755 0.0877762775 -9.8172234805
2.240000 -0.0158377856 0.0022757876 -0.0069193698 0.0476503604 -0.0233380603 -9.8579009886
2.250000 0.0042511727 0.0028115246 -0.0011609092 0.0780499874 -0.0182189766 -9.8067278806
2.260000 0.0014890546 -0.0002176743 0.0070055229 -0.0258535597 0.0199780576 -9.8578766145
2.270000 0.0060987414 -0.0103017488 -0.0022732089 0.0166006446 -0.0491856769 -9.8719920059
2.280000 0.0010815168 0.0061444042 0.0037962500 0.0206935723 -0.0163283927 -9.7862686986
2.290000 -0.0082290150 0.0048516635 0.0086437810 0.0218837300 -0.0063980386 -9.7679013734
2.300000 -0.0138184168 0.0044385049 -0.0044667793 -0.0346860457 -0.0632592535 -9.7768472206
2.310000 0.0031476102 -0.0056646239 -0.0047236715 0.0068695686 0.0287466305 -9.6785568571
2.320000 -0.0010745500 0.0118017442 -0.0117301709 0.0280769380 -0.0061342427 -9.7342132410
2.330000 -0.0060190578 0.0109271975 0.0000725374 -0.0071452077 -0.0020918249 -9.7304640001
2.340000 -0.0013176408 0.0117770297 0.0038076302 -0.0108264308 -0.0050319164 -9.6713067064
2.350000 -0.0052455517 0.0056725668 -0.0037985729 0.0307545912 -0.0299417274 -9.7624829680
2.360000 0.0067143332 -0.0010235748 0.0061623260 -0.0348400182 0.0375445494 -9.9078684746
2.370000 -0.0019678707 0.0033732885 0.0058206887 0.0015360276 -0.0240082934 -9.8786586217
2.380000 -0.0022525873 -0.0090615494 -0.0100195222 -0.0236473894 -0.0625101792 -9.8181183238
2.390000 0.0056963958 -0.0050712667 0.0074527628 -0.0502345580 -0.0486003428 -9.7050425947
2.400000 -0.0061387349 -0.0018963199 0.0008737415 -0.0499883147 0.0290239615 -9.7176696165
2.410000 0.0083128458 -0.0056748619 -0.0080670079 0.0199928234 0.0878759292 -9.7853301662
2.420000 0.0001870855 -0.0136725859 0.0000216370 0.0158198961 -0.0868848679 -9.7848429523
2.430000 0.0037200341 0.0126881469 0.0150399793 -0.0072177908 -0.0495551283 -9.8055814440
2.440000 0.0007844463 -0.0040339976 0.0031355488 0.0271868068 -0.0344016341 -9.7557458361
2.450000 -0.0130513353 -0.0011025359 0.0010288477 -0.1117360381 -0.0172421004 -9.6770449365
2.460000 -0.0020066914 -0.0021506537 -0.0058614809 0.0618768108 -0.0018992245 -9.9078350623
2.470000 -0.0161756103 0.0037243139 0.0090928079 -0.0942692964 -0.0585968547 -9.8058873908
2.480000 -0.0067283260 0.0172945118 -0.0029582019 0.0020513256 -0.0098186324 -9.8458226703
2.490000 -0.0079539028 -0.0120423766 -0.0046528687 -0.0001014650 0.0130562897 -9.8150382606
2.500000 0.0124730756 -0.0124391317 0.0133291108 0.0699781180 -0.0423346160 -9.8499791152
2.510000 -0.0146470403 0.0044670496 0.0111014511 -0.0432436964 0.0062415164 -9.7570001230
2.520000 0.0084583064 -0.0081364264 -0.0037313053 0.0233994677 0.0039182879 -9.8054475779
2.530000 0.0034914638 -0.0025115465 0.0024249118 -0.0179750695 0.0258759420 -9.7970084502
2.540000 -0.0054108715 -0.0017137300 -0.0145568870 -0.0214580358 -0.0320699918 -9.7343614771
2.550000 0.0092291393 0.0073595969 0.0040087175 -0.0111509318 -0.0474236771 -9.7247839460
2.560000 0.0062978381 0.0095989910 0.0055379110 0.0095555243 0.0337696586 -9.7873533606
2.570000 0.0007634352 -0.0075164550 0.0104735307 -0.0363398830 -0.0412590822 -9.6356366691
2.580000 -0.0002495623 0.0018072563 0.0044273411 -0.0284924860 -0.0084269126 -9.8179128534
2.590000 0.0007262340 0.0024686317 0.0025541031 -0.0017210492 -0.0064576717 -9.7383629667
2.600000 -0.0014399809 -0.0066825473 -0.0049579812 -0.0910497220 -0.0276133776 -9.8154443868
2.610000 -0.0066160786 0.0061387244 -0.0054947154 0.0349206959 -0.0506170541 -9.6661214171
2.620000 0.0182165957 0.0043295590 0.0036681612 -0.0153877708 0.0250145832 -9.7273389898
2.630000 0.0116418505 0.0006869436 0.0010821310 -0.0408057751 0.0222177991 -9.7646252467
2.640000 0.0017044850 0.0024113529 0.0021137781 -0.0091098853 0.0528852824 -9.7781345731
2.650000 0.0001819298 -0.0073057811 -0.0139486101 -0.0121335099 -0.0130153533 -9.7841553921
2.660000 -0.0052081052 0.0017352535 0.0032632577 0.0093868559 -0.0044647214 -9.8855181316
2.670000 0.0001024584 -0.0122098979 0.0066230017 -0.0289080986 0.0151427770 -9.7624881655
2.680000 0.0162400912 0.0045370240 -0.0096891836 -0.0081870925 0.0218358130 -9.6898661163
2.690000 0.0105509915 0.0026929740 0.0000106862 -0.0130352820 0.0318993443 -9.8145517329
2.700000 0.0036376184 -0.0125065372 0.0088867163 -0.0513142728 0.0263632751 -9.8835149796
2.710000 -0.0079464304 0.0036780936 0.0123102083 0.0388052856 -0.0246774134 -9.7798021979
2.720000 -0.0032318913 0.0100638829 -0.0023940692 0.0686473877 -0.0104737868 -9.7667722940
2.730000 -0.0050958541 0.0103073417 -0.0068313666 -0.0110033390 -0.0091598069 -9.8264847668
2.740000 -0.0014212203 0.0063285887 0.0008700907 -0.0061215532 -0.0161836749 -9.7265974215
2.750000 -0.0033993574 0.0012507045 0.0077876872 0.0532882624 0.0269309658 -9.7825593202
2.760000 -0.0007424192 -0.0010742947 0.0028657502 -0.0300798802 -0.0139949605 -9.8231355111
2.770000 0.0180104261 -0.0122511969 -0.0037102069 0.0651762151 0.0116003306 -9.7801146939
2.780000 -0.0010095378 -0.0043647256 -0.0014926904 -0.0736277852 -0.0452882794 -9.8673888823
2.790000 -0.0015635124 -0.0057272752 -0.0054644693 -0.0398682772 0.0284255259 -9.8057152437
2.800000 0.0079465034 -0.0184301474 -0.0068685501 0.0533180703 -0.0162818477 -9.7769730490
2.810000 -0.0019734595 0.0080012393 -0.0093206902 -0.0056539489 -0.0378896084 -9.7554199872
2.820000 -0.0088714394 -0.0012889423 -0.0067146653 0.0166958161 0.0282690849 -9.7684752081
2.830000 -0.0058217243 0.0283046052 -0.0045084440 -0.0086593538 -0.0045330400 -9.8112087415
2.840000 -0.0016332181 -0.0067605855 -0.0059719850 0.0147262487 0.0127446858 -9.8478846614
2.850000 -0.0008540691 0.0083625791 -0.0096378862 -0.0673963383 0.0456896118 -9.7602842024
2.860000 -0.0022045376 0.0029371783 -0.0039229774 0.0371152840 0.0413490197 -9.7728143514
2.870000 0.0081497848 0.0047386482 0.0031232177 -0.0598116741 -0.0280523308 -9.7236699648
2.880000 0.0061132067 0.0042373402 -0.0025254908 0.0837337907 0.0254940443 -9.7382094020
2.890000 0.0143176626 -0.0035036015 0.0070187514 0.0076005480 -0.0130574086 -9.7285517851
2.900000 -0.0010037112 -0.0026466965 -0.0009880846 0.0257870239 -0.0491265172 -9.7906129232
2.910000 -0.0035261238 0.0078917593 -0.0033283489 -0.0174278166 0.0254334864 -9.8413052297
2.920000 -0.0009377550 0.0111942886 0.0065069092 -0.0252322570 -0.0093664965 -9.8415432202
2.930000 0.0017388657 -0.0032257442 -0.0061910865 -0.0446927807 -0.0124046851 -9.7958014217
2.940000 -0.0004544574 0.0096721866 -0.0113257972 0.0059302935 0.0079428896 -9.7996843392
2.950000 0.0033736476 -0.0015445022 0.0059758425 -0.0099146458 -0.0481745134 -9.8243513089
2.960000 0.0011598373 -0.0054050414 0.0127604682 -0.0104264155 0.0146909198 -9.7828890432
2.970000 0.0017231523 -0.0013693275 -0.0065011513 0.0114112187 -0.0150523853 -9.8828751555
2.980000 -0.0045474091 0.0021957708 0.0221861427 -0.0926932991 0.0017475937 -9.8141530082
2.990000 -0.0081662571 -0.0010803408 -0.0013447421 -0.0648170443 0.0122282680 -9.7859760500
3.000000 0.0027726679 0.0122287432 0.0011879445 -0.0298064920 -0.0455427863 -9.8756156528
3.010000 0.0062025524 -0.0082750196 0.0018499124 0.0258075805 0.0026238851 -9.8969430371
3.020000 -0.0082655942 -0.0041780228 0.0060371704 0.0753177608 -0.0494606053 -9.7873738090
3.030000 0.0099515297 0.0001971551 -0.0030778271 0.0141113354 -0.0102712486 -9.7271275229
3.040000 -0.0070755967 -0.0041147576 0.0064998944 0.0483431442 -0.0019329716 -9.8349404490
3.050000 -0.0050777206 -0.0075606954 0.0061154125 0.0573850178 -0.0081209093 -9.7913336144
3.060000 -0.0042007957 0.0017856447 -0.0060652913 0.0968627921 -0.0697948711 -9.7549123206
3.070000 -0.0010930453 0.0052479345 -0.0011200123 -0.0342587553 -0.0367435655 -9.6871828705
3.080000 0.0037569515 -0.0019113935 -0.0195019820 -0.0421533839 0.0221804085 -9.7376107924
3.090000 0.0048948873 -0.0087250079 -0.0098482797 -0.0091969828 -0.0027401699 -9.8596438384
3.100000 -0.0042394937 0.0001280370 -0.0063183995 0.0231841817 0.0341454372 -9.7360586211
3.110000 -0.0040720522 -0.0039245665 0.0048448014 0.0430264341 0.0072610000 -9.8492589075
3.120000 0.0040245325 0.0042567967 0.0015736007 -0.0012164431 -0.0371016143 -9.7555739849
3.130000 0.0060635759 -0.0178521882 -0.0057876739 -0.0145367667 -0.0178226592 -9.6959968748
3.140000 -0.0168490071 0.0053576349 -0.0070799481 0.0610323227 -0.0054038677 -9.8452315464
3.150000 0.0024456914 0.0055413642 0.0067963621 0.0039730313 0.0047710858 -9.6682990907
3.160000 0.0006642396 0.0069279102 -0.0078945104 -0.0113804743 0.0404941369 -9.8652036791
3.170000 -0.0046053476 0.0057310166 0.0002377458 -0.0598577569 0.1171195582 -9.8724968276
3.180000 -0.0118252697 -0.0056519668 -0.0060764917 -0.0425205820 -0.0191968648 -9.7423388660
3.190000 -0.0135551410 -0.0076101203 0.0011619359 -0.0447489554 0.0129587761 -9.7347528573
3.200000 -0.0053621477 -0.0028037300 0.0054017932 -0.0295800701 -0.0385958368 -9.7772298238
3.210000 -0.0000449985 0.0058151573 -0.0026788134 0.0029749379 -0.0047239238 -9.8401565392
3.220000 -0.0094791539 -0.0005974635 -0.0040245537 -0.0917455616 0.0425729571 -9.8346394864
3.230000 0.0092187745 -0.0184405679 0.0013866572 0.0283409158 0.0104368833 -9.7461497850
3.240000 -0.0049956013 -0.0032576670 0.0208054498 0.0270068910 -0.0424371600 -9.6983213449
3.250000 -0.0091028241 0.0009567066 0.0020847271 0.0353942213 0.0621294981 -9.7438072065
3.260000 0.0017992490 0.0079795810 -0.0098405196 -0.0078931991 -0.0227449348 -9.8537740258
3.270000 0.0037264360 0.0027697988 0.0146120771 0.0419442137 -0.0143583139 -9.7327994061
3.280000 0.0010241228 -0.0060146789 0.0029412630 -0.0522943485 0.0217941975 -9.9867419241
3.290000 -0.0019368634 0.0017236298 0.0050287972 0.0408783538 0.0113641246 -9.6866089426
3.300000 0.0112425889 0.0076808607 -0.0102119289 0.0413821098 -0.0217922804 -9.8359906165
3.310000 0.0087634935 -0.0080215586 0.0080158446 0.0416788406 -0.0661928185 -9.7621250299
3.320000 -0.0010405369 -0.0177526821 0.0019833526 0.0398286278 -0.0662283321 -9.9485636630
3.330000 0.0069614401 0.0110437649 0.0074837628 0.0405468214 -0.0018568006 -9.7303029222
3.340000 -0.0047805617 0.0036055338 -0.0013004261 0.0064237764 0.0054529914 -9.8336217902
3.350000 0.0025656352 -0.0014955845 0.0035721318 -0.0044237766 0.0467128058 -9.9033734475
3.360000 0.0157145681 -0.0098352455 0.0014846749 -0.0723455277 -0.0081311733 -9.8393347339
3.370000 -0.0032342963 0.0046554685 0.0040289066 0.0191814807 0.0344796308 -9.7660601834
3.380000 -0.0024527608 0.0076969929 0.0009948840 -0.0174165105 -0.0034407519 -9.8508084822
3.390000 0.0111300448 -0.0119292436 -0.0004922036 0.0367513926 -0.0412816139 -9.7182925653
3.400000 -0.0104442447 0.0048981050 -0.0123248943 -0.0197798214 -0.0701673651 -9.7558791647
3.410000 0.0048853528 0.0031534893 0.0055324309 0.0358566667 0.0100233494 -9.8248647222
3.420000 0.0056720858 0.0033089895 -0.0072637872 0.0059219500 -0.0101713662 -9.7097075771
3.430000 0.0027405098 0.0130403830 -0.0049108416 -0.0381395858 -0.0456702149 -9.8443299104
3.440000 0.0001855775 -0.0080989567 -0.0050104873 0.0870335201 0.0099645832 -9.8748556355
3.450000 -0.0065199266 0.0068074912 0.0092423588 0.0258371380 -0.0139378383 -9.7836887698
3.460000 0.0034022948 0.0070081474 0.0075536465 -0.0028526671 -0.0281046741 -9.8040737846
3.470000 -0.0099902948 0.0048595709 -0.0061919013 -0.0368335752 -0.0123090473 -9.8432654175
3.480000 0.0053243180 -0.0102672977 -0.0186833477 -0.0594579993 -0.0545957256 -9.7256279758
3.490000 -0.0040178895 -0.0052601485 -0.0030749444 0.0501429143 0.0126001539 -9.7784189009
3.500000 0.0012756806 -0.0015733624 0.0118975784 0.0271009316 -0.0257683756 -9.8102403464
3.510000 -0.0142883018 0.0112402942 0.0082609031 0.0798601977 0.0014294956 -9.7438037973
3.520000 0.0036420160 0.0036840268 -0.0005908897 0.0055626679 0.0102244713 -9.8820306220
3.530000 0.0032680594 -0.0060731683 0.0062015578 0.0443938462 0.0834526201 -9.7591929261
3.540000 0.0031866587 -0.0100314745 -0.0046005036 0.0179654356 -0.0315222164 -9.7786370362
3.550000 0.0101152393 0.0074643177 -0.0150513480 -0.0403139187 0.0387380697 -9.8562269706
3.560000 0.0061635091 -0.0094973236 -0.0027780751 0.0000507220 0.0150201523 -9.7179283300
3.570000 0.0020200679 0.0149935222 -0.0018935999 0.0363357441 0.0488017445 -9.8439846041
3.580000 -0.0058312705 0.0047762451 -0.0014597314 0.0567953609 0.0088261535 -9.8759227437
3.590000 0.0012462759 0.0114249324 -0.0085056235 0.0730342995 -0.0378371226 -9.8700453899
3.600000 -0.0041641428 0.0095439479 0.0056273225 -0.0354199753 -0.0226603031 -9.8243001025
3.610000 -0.0044008141 -0.0007163901 0.0023519585 -0.0935782840 -0.0564101961 -9.7357283222
3.620000 -0.0061343423 -0.0019869703 0.0006777800 -0.0880708694 0.0075340471 -9.7680324846
3.630000 0.0015084164 -0.0009270073 -0.0041497018 -0.0003160519 0.0333135392 -9.7526368191
3.640000 0.0063626847 -0.0116564948 0.0020028225 0.0167351979 0.0118601225 -9.7903777364
3.650000 -0.0063020029 0.0065270686 -0.0027633803 -0.0086635720 -0.0074067795 -9.8274339219
3.660000 -0.0067227479 0.0082889703 -0.0094252385 -0.0550874613 -0.0042654669 -9.8013393037
3.670000 0.0107922947 -0.0045424025 0.0090880897 -0.0381071633 0.0460958044 -9.6954204884
3.680000 0.0100380799 0.0000419857 -0.0076282034 -0.0019236105 0.0314066793 -9.7485515369
3.690000 -0.0018786774 0.0056679734 0.0093492642 -0.0280690295 -0.0131503861 -9.7959825921
3.700000 -0.0051883884 -0.0004359091 -0.0057592907 -0.0382450572 -0.0172874589 -9.8289356057
3.710000 0.0027255374 0.0093547474 -0.0129760862 0.0255508017 -0.0101659680 -9.8366957326
3.720000 0.0094968160 -0.0051918338 0.0021213966 -0.0208885173 0.0152846157 -9.8469248242
3.730000 0.0016088713 0.0007123155 0.0008782754 0.0561721642 -0.0153380807 -9.8349431001
3.740000 0.0024762200 -0.0029197248 0.0026239986 -0.0536531304 0.0755479455 -9.7827211686
3.750000 0.0124445048 -0.0034115437 0.0019311614 -0.0197899595 0.0011390127 -9.8129161142
3.760000 0.0117013233 -0.0046097121 0.0076177483 -0.0469980167 -0.0156560512 -9.7696406110
3.770000 -0.0022335243 0.0065220189 -0.0143253525 -0.0338399587 -0.0203877596 -9.7670142247
3.780000 0.0017191424 0.0016022560 -0.0066822570 -0.0613737447 0.0009116760 -9.7191784967
3.790000 0.0119053253 0.0035542196 -0.0064833257 -0.0484743151 0.0056953912 -9.7276463931
3.800000 0.0086810524 0.0005289048 0.0049983902 0.0154862515 0.0207057073 -9.7233329024
3.810000 -0.0010097571 0.0128910083 0.0086995051 0.0100847245 -0.0243103683 -9.8010370643
3.820000 0.0000260328 -0.0019402679 -0.0115431012 -0.0480041607 0.0685167293 -9.7451424494
3.830000 0.0057233695 0.0111562827 -0.0018706162 0.0468482388 -0.0603367287 -9.8714399650
3.840000 -0.0119548248 0.0032378400 0.0024295682 -0.0332167403 0.0577908321 -9.8032905533
3.850000 0.0014487885 -0.0028901303 0.0118623875 0.0395471204 -0.0468732373 -9.7567917393
3.860000 -0.0012772833 -0.0015820766 -0.0033750640 -0.0294267223 0.0196025411 -9.7238526182
3.870000 -0.0005313585 0.0092001545 -0.0087188071 0.0537117308 -0.0665246791 -9.8861780395
3.880000 0.0008242586 -0.0155476083 -0.0046804224 -0.0175856917 0.0269618595 -9.7462951792
3.890000 -0.0056219492 0.0099483349 -0.0069128636 -0.0512668534 0.0857735196 -9.7635717176
3.900000 -0.0015165504 0.0098693498 -0.0023763906 -0.0563348378 -0.0254916033 -9.8460634742
3.910000 -0.0011806095 -0.0110474886 -0.0103192872 -0.0021629355 0.0509054715 -9.9167255791
3.920000 0.0002478312 0.0028297949 -0.0057295688 -0.0288775128 -0.0420514753 -9.7048848630
3.930000 0.0065288976 0.0110437675 0.0002642550 -0.0331647493 -0.0372326866 -9.7194107748
3.940000 0.0003772321 0.0044731277 -0.0114175545 0.0583172290 0.0125265316 -9.8120710629
3.950000 0.0017322033 0.0025276743 0.0018355123 -0.0947039339 0.0342477067 -9.7529705129
3.960000 0.0017358390 -0.0010441648 -0.0043783628 -0.0020238790 -0.0476402435 -9.8106605087
3.970000 0.0092353387 0.0033981308 0.0000048564 0.0787755689 0.0059507035 -9.8817871446
3.980000 0.0099550987 -0.0038979828 -0.0042570052 -0.0109301177 -0.0084656222 -9.8053115983
3.990000 0.0008091988 -0.0014661887 0.0046200035 0.0445294012 -0.0723071301 -9.8309418010
4.000000 -0.0082692728 -0.0079653909 0.0061587359 0.1046432381 0.0262496884 -9.8793777312
4.010000 -0.0006298160 0.0014512530 0.0006011461 0.0126276917 -0.0131920752 -9.8065546215
4.020000 0.0141599843 -0.0033013624 -0.0064627535 0.0240031864 -0.0441934039 -9.8044516820
4.030000 0.0076982980 -0.0096773421 0.0046560722 0.0003205705 0.0088650819 -9.8456999861
4.040000 -0.0141797218 0.0131128965 -0.0052422236 0.0099999399 -0.0340917373 -9.6812908415
4.050000 -0.0049373295 -0.0071056908 0.0001350126 0.0478697563 -0.0066764139 -9.8589936684
4.060000 0.0106862374 -0.0002844229 -0.0037292062 0.0150814756 -0.0096754586 -9.7951647295
4.070000 0.0044360984 0.0110152162 0.0059618725 -0.0408276010 0.0373054099 -9.8643009350
4.080000 0.0067657072 0.0003959531 -0.0132575557 0.0034099274 0.0652695419 -9.8678795566
4.090000 0.0021788759 -0.0145787129 -0.0051697290 -0.0238778501 0.0068852927 -9.7526205146
4.100000 0.0102987822 0.0031324333 0.0183338539 0.0649599527 0.0431406893 -9.7437949840
4.110000 0.0080871736 0.0031258002 0.0123835665 0.0726615407 0.0323216092 -9.8266398902
4.120000 -0.0044950759 0.0071385672 -0.0020203728 0.0669571388 -0.0120827080 -9.6790541468
4.130000 -0.0125636673 -0.0030838008 -0.0082025202 -0.0891416388 0.0175131323 -9.6788972244
4.140000 0.0087019040 -0.0052585971 -0.0067631161 0.0350437942 0.0289682661 -9.8636664834
4.150000 0.0085908572 -0.0000847335 0.0008392326 -0.0887867174 -0.0279730002 -9.8563070899
4.160000 -0.0088813404 -0.0055404446 0.0074833214 -0.0206260282 -0.0614818442 -9.6949384809
4.170000 -0.0031691088 -0.0015459595 0.0119653227 -0.0140368528 0.0283206207 -9.8250194190
4.180000 0.0099913255 -0.0103589153 0.0122443658 0.0038740466 -0.1069397846 -9.8488027050
4.190000 -0.0046466761 0.0069936901 -0.0081221099 -0.0335847415 -0.0117711835 -9.7308506652
4.200000 -0.0087872563 -0.0055669656 0.0114982859 0.0315856760 0.0186740458 -9.7910826572
4.210000 -0.0033397138 -0.0005830639 0.0093702011 0.0021886459 0.0153471420 -9.8051089888
4.220000 -0.0057250442 -0.0000909947 -0.0057035957 0.0488638761 -0.0448419012 -9.6430380566
4.230000 0.0153217491 -0.0042493173 -0.0017996005 0.0107139621 -0.0205976684 -9.8226713289
4.240000 -0.0030205195 0.0229250494 -0.0128278275 0.0287125010 0.0235834174 -9.8182894482
4.250000 0.0069653098 0.0082896859 0.0033325865 -0.0354293333 0.0112645194 -9.8207359804
4.260000 0.0064325184 -0.0078012518 -0.0033290408 0.0056113750 0.0257622268 -9.7613396488
4.270000 0.0010691850 -0.0070209645 0.0025046770 0.0377754741 0.0143460680 -9.7239266859
4.280000 -0.0081351914 0.0041130915 -0.0012368137 0.1164340451 0.0460952072 -9.6301034714
4.290000 -0.0009160366 -0.0122621658 0.0071109442 -0.0159707489 0.0044866512 -9.8878185500
4.300000 0.0022208112 0.0118399625 0.0075321825 -0.0383112305 0.0309267702 -9.9069968536
4.310000 -0.0155284058 -0.0028770536 -0.0054600222 -0.0687668119 -0.0061743939 -9.8078191131
4.320000 -0.0120073531 -0.0019648045 0.0067219253 -0.0115266893 -0.0267108073 -9.7520220478
4.330000 0.0158145674 -0.0024610600 0.0141735790 -0.0747324928 -0.0477171983 -9.7999006980
4.340000 0.0009785552 -0.0023740111 0.0179995755 0.0204928447 0.0434009331 -9.6436298348
4.350000 0.0063030990 -0.0090415434 -0.0057513433 -0.0251122015 0.0515857644 -9.7334953520
4.360000 0.0058470024 0.0021902107 -0.0053915576 -0.0222073415 -0.0063051001 -9.7929462385
4.370000 0.0041744948 0.0078575501 -0.0145614829 0.0120996567 0.0443174912 -9.8134324568
4.380000 0.0031796728 -0.0032405313 0.0019632252 -0.0181771760 -0.0547016395 -9.8113665742
4.390000 0.0031496135 0.0049727118 -0.0020389578 0.0173204346 -0.0013891470 -9.9805063745
4.400000 0.0055017967 0.0092108196 0.0128068087 -0.0500514187 -0.0073957138 -9.8371162726
4.410000 0.0005236058 0.0050329095 -0.0011770161 0.0255639184 0.0214617024 -9.7820439638
4.420000 -0.0001240931 0.0079177649 0.0032520066 0.0078844684 0.0130758084 -9.7967769584
4.430000 0.0013565475 0.0075569298 -0.0039261261 -0.0246239698 -0.0277920121 -9.7539668444
4.440000 -0.0151987699 -0.0151546290 0.0051586982 -0.0324676526 -0.0101936689 -9.7997174361
4.450000 0.0151841492 0.0151352893 0.0056410738 0.0349509682 0.0718845409 -9.7883199699
4.460000 -0.0000597941 0.0085564338 -0.0042810642 0.0649357665 0.1285579037 -9.7909211868
4.470000 0.0078665717 0.0108411599 0.0079519914 0.0505959167 0.0158832516 -9.8448259993
4.480000 0.0109715284 -0.0017752308 -0.0069970195 0.0219506808 0.0381635774 -9.7078909568
4.490000 0.0048646088 -0.0080243658 0.0084006425 -0.0225311822 0.0528760263 -9.7284590198
4.500000 -0.0024191127 0.0089925935 -0.0118936929 0.1072215708 -0.0574540483 -9.7813857461
4.510000 -0.0017717932 -0.0098681262 -0.0046163966 -0.0443138077 0.0284254086 -9.8381839894
4.520000 -0.0022732061 -0.0046546487 -0.0025211128 -0.0178593671 -0.0348883173 -9.8179499717
4.530000 0.0061906780 -0.0115652309 0.0039862673 0.0099808817 -0.0550817310 -9.8689745434
4.540000 -0.0026167683 -0.0127526665 0.0001273779 0.0205748092 0.0721567198 -9.8041715422
4.550000 0.0035539042 0.0003952565 -0.0044012949 0.0307135747 -0.0067009501 -9.7867539810
4.560000 0.0062183048 -0.0042012727 -0.0026804750 0.0205484171 -0.0198672980 -9.8039310548
4.570000 -0.0169799966 -0.0010026597 0.0061344927 0.0503586034 -0.0640823189 -9.8212092911
4.580000 0.0007486230 0.0029522836 -0.0018358384 -0.0252966990 0.0435016319 -9.7843167523
4.590000 -0.0099054108 0.0035041374 -0.0004982116 0.0398989214 -0.0280557876 -9.7231966833
4.600000 0.0013926263 -0.0026667395 0.0021406089 -0.0172961114 0.0279342536 -9.8825862390
4.610000 -0.0046249358 -0.0042244300 -0.0067151864 0.0854692405 0.0675309521 -9.7894483504
4.620000 0.0133840393 -0.0035016775 0.0047784228 0.0046490001 -0.0231114448 -9.8404925813
4.630000 -0.0009215218 0.0034866464 0.0016598201 -0.0033689839 -0.0099274839 -9.7035110372
4.640000 -0.0047089938 0.0047792118 0.0049442651 -0.0118962863 0.0123163058 -9.7399364822
4.650000 -0.0145850537 0.0136384540 0.0080475377 0.0157643908 -0.0107038057 -9.7982669518
4.660000 0.0018189300 -0.0072765654 -0.0001939975 0.1003113836 -0.1508110514 -9.8274349431
4.670000 0.0121400132 0.0001187737 0.0023968357 -0.0148220949 0.0277206710 -9.7761747569
4.680000 0.0046827743 0.0010502314 -0.0004612494 -0.0733815866 -0.0259345155 -9.8535725958
4.690000 -0.0070119859 -0.0034622916 -0.0000499910 0.0084544383 0.0084619474 -9.7513144000
4.700000 0.0004089510 0.0003859019 -0.0035411395 -0.0100219700 0.0107719451 -9.7524085502
4.710000 -0.0080052882 -0.0061526707 0.0079660941 -0.0992524621 0.0270046437 -9.7896843366
4.720000 0.0123248370 -0.0033196687 0.0044041909 0.0159980716 -0.0431625470 -9.7865159897
4.730000 -0.0040513181 -0.0029180568 -0.0001010641 -0.0052385037 0.0148596478 -9.8756560088
4.740000 -0.0032237930 -0.0048135067 0.0028132292 0.0518433587 -0.0647485118 -9.7757130037
4.750000 -0.0078647554 0.0048177135 -0.0034078714 0.0923966803 -0.0432905485 -9.6831688380
4.760000 0.0099227526 -0.0076082396 0.0074597115 -0.0775758588 0.0116441946 -9.7593660427
4.770000 0.0090775546 -0.0045165469 0.0042271430 -0.0269400732 -0.0138507208 -9.7643437592
4.780000 -0.0045686858 0.0007834934 -0.0033417810 -0.0197535729 -0.0054153676 -9.7986453209
4.790000 0.0048810391 0.0076745558 0.0051982031 -0.0117674475 -0.0308579825 -9.8395603602
4.800000 -0.0003066708 -0.0082057363 -0.0020157810 0.0170274858 -0.0646545071 -9.8530027284
4.810000 0.0057335879 0.0139270345 0.0136480492 -0.0674479261 -0.0612819646 -9.8513491471
4.820000 0.0105802770 0.0048953044 0.0067085286 -0.0468026440 0.0112729158 -9.8397226925
4.830000 0.0010977325 0.0000515854 -0.0018027591 -0.0557710751 -0.0500339376 -9.8387245479
4.840000 0.0008956897 0.0057854775 -0.0001544029 0.0525005398 0.0171138683 -9.8027051801
4.850000 0.0065698525 0.0020350412 0.0004729206 -0.0076094256 -0.0072686703 -9.9195523617
4.860000 -0.0084304183 0.0109396407 -0.0051821065 -0.0947222284 -0.0301485090 -9.8407614737
4.870000 -0.0104194782 0.0129147326 -0.0041532622 -0.0053374494 0.0420402885 -9.7519444048
4.880000 -0.0024390637 -0.0000729326 -0.0089333250 0.0839031587 0.0051444630 -9.9483500288
4.890000 0.0021410530 0.0089398163 -0.0131389682 -0.0015886417 -0.0512713386 -9.7271736158
4.900000 -0.0032364527 0.0171921137 -0.0065754874 0.0315460894 -0.0264945267 -9.7498009187
4.910000 -0.0047051898 0.0000729619 -0.0057006952 0.0754909745 -0.0177511487 -9.8466449663
4.920000 0.0034677780 -0.0019120386 0.0086511834 0.0838217933 -0.0357701886 -9.7932475384
4.930000 -0.0012657861 0.0122714982 -0.0060556131 0.0336002355 0.0049109622 -9.7652406034
4.940000 0.0001539127 0.0045061610 -0.0052554537 -0.0079127712 0.0379798846 -9.8045179931
4.950000 -0.0069623721 0.0100896076 -0.0078893062 -0.0297651410 0.0392144135 -9.8204184481
4.960000 -0.0077259479 -0.0034953286 0.0049779167 -0.0766594725 0.0080179192 -9.7075744053
4.970000 0.0098725772 0.0088380875 -0.0046582300 -0.0600831739 -0.0602072433 -9.7232236215
4.980000 0.0050731280 -0.0079936277 -0.0094009548 0.0353446481 0.0162674600 -9.8094630343
4.990000 -0.0100592159 -0.0070061242 -0.0018550944 -0.0250868836 -0.0173238300 -9.8869252758
5.000000 -0.0082880727 -0.0051502078 -0.0050821832 0.9936062290 0.0023791764 -9.6874124388
5.010000 0.0083948737 0.0204187466 -0.0054469153 1.1196235508 -0.0337959485 -9.8831108837
5.020000 0.0179308746 0.0141955120 0.0038329117 1.0147487770 0.0453294038 -9.7528286253
5.030000 0.0233466666 0.0034686792 0.0225991113 0.9302833035 0.0158987572 -9.8946409730
5.040000 0.0217611103 0.0284364347 0.0131375873 0.9760921132 0.0184161261 -9.7915735765
5.050000 0.0276070718 0.0204025197 -0.0026894009 0.9686504081 -0.0188285625 -9.8373238503
5.060000 0.0223073885 0.0300022207 -0.0023000048 1.0226411210 0.0096486878 -9.8070322130
5.070000 0.0326398064 0.0321686239 0.0118438407 0.9655483813 0.0041324274 -9.9320454412
5.080000 0.0369376272 0.0438710701 -0.0088929669 0.9735198140 -0.0428063877 -9.8346612593
5.090000 0.0214474675 0.0437093196 -0.0040698155 0.9899404651 -0.0597564364 -9.7695408001
5.100000 0.0390146182 0.0549985774 -0.0073537445 1.0964485176 -0.0155591055 -9.7651659693
5.110000 0.0381061300 0.0496380898 -0.0052145910 1.0816256496 -0.0359476158 -9.7659743218
5.120000 0.0295006252 0.0581780708 0.0046365226 1.0686273920 -0.0110174803 -9.9131370096
5.130000 0.0346751266 0.0610528733 -0.0017418545 0.9894436570 -0.0023673382 -9.8464527678
5.140000 0.0448806752 0.0526550126 0.0154126235 1.0754396707 -0.0520200572 -9.7241247840
5.150000 0.0322155300 0.0650714359 0.0085709694 1.0101777412 -0.0215147091 -9.8404728881
5.160000 0.0367554634 0.0739464528 -0.0024662738 1.0748824393 -0.0392812637 -9.7625514037
5.170000 0.0288507941 0.0687458483 -0.0079193992 1.0873104457 0.0129235428 -9.8028818915
5.180000 0.0514294793 0.0722110403 0.0006322554 1.0472342952 -0.0557863583 -9.6903847427
5.190000 0.0418299420 0.0769891406 0.0005535191 1.0779317516 -0.0092256924 -9.7588937344
5.200000 0.0436409804 0.0775725278 -0.0079736754 1.0857160952 -0.0907230067 -9.9428349129
5.210000 0.0450400184 0.0707473886 -0.0060694219 1.1562844231 -0.0477410978 -9.8055558553
5.220000 0.0336979722 0.0735823901 0.0074102201 1.0957879485 -0.0218829312 -9.9300257899
5.230000 0.0416515454 0.0822070755 0.0031326743 1.1361036988 -0.0405066072 -9.7488823151
5.240000 0.0382070250 0.0672151364 -0.0067683295 1.0723381324 -0.0700516619 -9.8585595386
5.250000 0.0376262090 0.0759699766 -0.0088615305 1.0691031094 -0.0675718128 -9.8345621637
5.260000 0.0328489615 0.0760639925 0.0013065195 1.1360403768 -0.1015840562 -9.8408997309
5.270000 0.0388888396 0.0801603511 -0.0146436596 1.0723272288 -0.0177136247 -9.7720134775
5.280000 0.0465840609 0.0712058841 0.0000789151 1.1214941501 -0.0746027001 -9.7831016952
5.290000 0.0383330238 0.0713750399 0.0034026580 1.2153986703 -0.0897386327 -9.9012395904
5.300000 0.0342112212 0.0709374189 -0.0081068604 1.1661360832 -0.0876915064 -9.8493889544
5.310000 0.0323231951 0.0901889269 -0.0013895507 1.1397825981 -0.0498559584 -9.8200334300
5.320000 0.0440359799 0.0804861760 -0.0102997566 1.1828387212 -0.1916114780 -9.9178059424
5.330000 0.0341924250 0.0836766878 -0.0108721857 1.2143902744 -0.1493799314 -9.7729008344
5.340000 0.0439020984 0.0596770010 0.0074734983 1.1459436517 -0.0649619312 -9.8348696118
5.350000 0.0465448418 0.0709027050 -0.0100120340 1.1845930713 -0.0736716896 -9.7843454637
5.360000 0.0402729985 0.0757717186 -0.0031690165 1.2110684482 -0.0614496516 -9.8747228001
5.370000 0.0245880819 0.0607164856 -0.0034078061 1.2510544640 -0.1242229834 -9.7879022019
5.380000 0.0382009769 0.0858732956 -0.0130375749 1.3077838678 -0.1238946616 -9.6499879466
5.390000 0.0330096298 0.0924216724 0.0038164102 1.1647947177 -0.0527828304 -9.7638567309
5.400000 0.0359494025 0.0796291962 -0.0033925828 1.1729399857 -0.1321881498 -9.8986928282
5.410000 0.0408815212 0.0792332762 0.0006441002 1.2616073171 -0.1665075508 -9.7124981489
5.420000 0.0427439737 0.0767442308 -0.0066390850 1.2916029718 -0.1836528698 -9.8542446441
5.430000 0.0288779811 0.0699269142 -0.0075291456 1.2099380779 -0.1218352113 -9.8407862812
5.440000 0.0471991402 0.0712746428 0.0030267793 1.2417030192 -0.1073999960 -9.8818381559
5.450000 0.0378905662 0.0770931418 -0.0079619858 1.2980014354 -0.1230505688 -9.8633103465
5.460000 0.0321463434 0.0756254060 -0.0126794616 1.3075885546 -0.2233992507 -9.8249090222
5.470000 0.0320366132 0.0788305881 -0.0058840792 1.3711108395 -0.0687724650 -9.8355328924
5.480000 0.0485996970 0.0832834472 0.0033703133 1.2389775800 -0.1456565894 -9.8278648892
5.490000 0.0392370373 0.0725979325 -0.0070948864 1.2967378611 -0.2012581599 -9.9229272096
5.500000 0.0442164933 0.0636441127 0.0114637733 1.3588833531 -0.1977609547 -9.7803243406
5.510000 0.0279165825 0.0665326291 -0.0053782388 1.2669240673 -0.1420906026 -9.7707864949
5.520000 0.0515401466 0.0809209548 0.0083467877 1.3522622635 -0.1646085298 -9.8394272419
5.530000 0.0359569068 0.0572497533 0.0035945742 1.3581850863 -0.1353013588 -9.7943494306
5.540000 0.0344975228 0.0659677260 0.0027071556 1.4347814142 -0.1634354132 -9.7021601063
5.550000 0.0282083541 0.0687430448 -0.0134109183 1.3973773543 -0.1550592012 -9.7290386838
5.560000 0.0328235871 0.0722807833 -0.0003045329 1.3587290021 -0.1707976164 -9.7750437015
5.570000 0.0299737867 0.0544997369 0.0110203732 1.4447667955 -0.2169039812 -9.9346737664
5.580000 0.0321639880 0.0744497557 0.0049420953 1.4275424827 -0.1746608534 -9.8301748202
5.590000 0.0337160901 0.0568655844 0.0065213822 1.3085418703 -0.1772625658 -9.8009716107
5.600000 0.0355862935 0.0730326943 0.0083048058 1.3582585860 -0.2858991930 -9.7866341048
5.610000 0.0431254062 0.0698081004 -0.0048624690 1.3399335046 -0.2182053885 -9.7630821670
5.620000 0.0307043979 0.0608992546 -0.0241841059 1.2992454976 -0.2200500073 -9.7884520597
5.630000 0.0475257667 0.0803529050 -0.0082409641 1.3959115190 -0.2049253225 -9.9269183287
5.640000 0.0388624050 0.0634552155 -0.0044839497 1.4340259687 -0.1382008375 -9.8025174922
5.650000 0.0470161052 0.0609619001 -0.0033969374 1.3579444031 -0.2726787044 -9.8375418776
5.660000 0.0311915706 0.0817585174 -0.0071290588 1.4565062205 -0.2106476907 -9.8546752954
5.670000 0.0271180303 0.0747139788 -0.0023878892 1.4304348073 -0.2349545687 -9.7903299307
5.680000 0.0330329812 0.0527252652 -0.0183993285 1.5019019433 -0.2109089675 -9.8574874863
5.690000 0.0351821964 0.0609603200 -0.0092819468 1.4708192172 -0.2130228959 -9.8559318121
5.700000 0.0125349302 0.0610417476 -0.0017712432 1.4530657647 -0.2110897646 -9.9291245421
5.710000 0.0297663994 0.0862140379 0.0115007710 1.4676214096 -0.2525669431 -9.8144870952
5.720000 0.0408125115 0.0689706757 -0.0009828346 1.5022411624 -0.2562485758 -9.8101622081
5.730000 0.0418638231 0.0732454597 -0.0124728935 1.4454575093 -0.2920518714 -9.8588383019
5.740000 0.0357398012 0.0602297461 0.0081445413 1.4753563243 -0.2768980260 -9.8214151102
5.750000 0.0349775395 0.0538673903 0.0001879788 1.5428200372 -0.3593296427 -9.7812085957
5.760000 0.0354072498 0.0732694086 -0.0039537718 1.6016892789 -0.2233976256 -9.8653907089
5.770000 0.0291154054 0.0677606450 0.0034232196 1.4454071997 -0.2381698259 -9.9199150414
5.780000 0.0410119654 0.0659278093 0.0085073829 1.5327965353 -0.2747278969 -9.8347084056
5.790000 0.0303649130 0.0648394201 -0.0105567444 1.4556996072 -0.2127055817 -9.9384843334
5.800000 0.0294861019 0.0554993049 -0.0060660935 1.4704654872 -0.3233759603 -9.7620040869
5.810000 0.0334462839 0.0575657242 0.0044375901 1.5871321419 -0.2619888891 -9.7849329269
5.820000 0.0253561083 0.0660122739 -0.0038384298 1.5764121692 -0.2792678356 -9.8307649013
5.830000 0.0233134788 0.0681937049 -0.0165975458 1.4946524160 -0.3361327658 -9.8385233562
5.840000 0.0335507642 0.0541321202 -0.0009688604 1.5146876514 -0.2203086391 -9.8393685842
5.850000 0.0118917532 0.0616224333 0.0105859880 1.4998502613 -0.2454276879 -9.8217383249
5.860000 0.0242295117 0.0681688693 -0.0059357348 1.5388366143 -0.2243110035 -9.7563219403
5.870000 0.0395207910 0.0579326485 0.0039597951 1.5215001028 -0.3331766106 -9.7921614893
5.880000 0.0266045318 0.0579517664 0.0038587867 1.5872987313 -0.2086178200 -9.8265642614
5.890000 0.0334737601 0.0607861856 -0.0011720621 1.5951875920 -0.3152628858 -9.9839349371
5.900000 0.0206314274 0.0569531401 -0.0116279871 1.5720432893 -0.3562042652 -9.8228873588
5.910000 0.0335711551 0.0610141972 -0.0044899419 1.5529627599 -0.3258577698 -9.8496195755
5.920000 0.0258680255 0.0616309531 0.0073839500 1.5929786400 -0.2730462023 -9.7913808579
5.930000 0.0174573969 0.0683306353 -0.0089404954 1.5257778918 -0.3151611978 -9.7770712908
5.940000 0.0172609717 0.0618621862 -0.0039617481 1.6491823314 -0.3561824009 -9.7214203423
5.950000 0.0272089161 0.0584997213 0.0031208656 1.6505029230 -0.3309738530 -9.8130452992
5.960000 0.0172096070 0.0798999457 0.0043128485 1.6464726917 -0.2895425025 -9.7886537527
5.970000 0.0359005461 0.0474970408 -0.0066123165 1.6409887177 -0.3042418661 -9.7776853872
5.980000 0.0245073189 0.0632991769 -0.0010822367 1.6704338258 -0.2786080498 -9.8848375502
5.990000 0.0343106048 0.0507491609 -0.0135475016 1.6564914348 -0.3435094084 -9.8179870041
6.000000 0.0186008179 0.0710954963 -0.0155024604 1.6443108138 -0.3144574019 -9.8738494960
6.010000 0.0377077153 0.0626663762 -0.0035136262 1.6072707761 -0.3152750691 -9.7418972779
6.020000 0.0245096465 0.0472344601 0.0004713771 1.6579338366 -0.3610305539 -9.7801890474
6.030000 0.0445219212 0.0431633179 -0.0084853090 1.6679805721 -0.3356889901 -9.8548330617
6.040000 0.0316384547 0.0463075751 -0.0002576066 1.6554160896 -0.3011479815 -9.7939768585
6.050000 0.0296125125 0.0498538382 -0.0004619093 1.6160710635 -0.4146759139 -9.9106291343
6.060000 0.0297362184 0.0686577517 -0.0153371226 1.5966801507 -0.3719800488 -9.9126659362
6.070000 0.0211361651 0.0489638751 0.0161204933 1.6878573903 -0.2515756269 -9.8022694518
6.080000 0.0307926266 0.0550858698 0.0080607880 1.6908194209 -0.3385547160 -9.7181645565
6.090000 0.0331593206 0.0637623130 0.0000052904 1.6100340469 -0.3184170205 -9.7063541588
6.100000 0.0191027441 0.0589350042 -0.0118058075 1.6395324919 -0.2953497042 -9.7602467106
6.110000 0.0170423567 0.0763403265 0.0003657723 1.6349734040 -0.3948074513 -9.9800646171
6.120000 0.0312205020 0.0513824122 0.0020316620 1.6915875238 -0.3599679324 -9.7768981899
6.130000 0.0120697557 0.0567762611 -0.0042803851 1.7378083121 -0.3185761041 -9.8330985121
6.140000 0.0310311433 0.0583246601 0.0042341340 1.7763812096 -0.3573039956 -9.8312147177
6.150000 0.0207045301 0.0623855202 -0.0096164187 1.7283622200 -0.4218485879 -9.8022927075
6.160000 0.0149548372 0.0582309524 -0.0082313567 1.7427625875 -0.4310670852 -9.7611357453
6.170000 0.0343885319 0.0500657144 0.0038042399 1.7194587523 -0.3558459064 -9.7638844490
6.180000 0.0222709386 0.0488738019 -0.0027895481 1.7576517204 -0.3340314357 -9.7869174740
6.190000 0.0364912216 0.0477826523 0.0049818060 1.8504253339 -0.3624942687 -9.7463224396
6.200000 0.0220564367 0.0427895824 -0.0005164572 1.7398713518 -0.3110643531 -9.8891072738
6.210000 0.0262887373 0.0447930219 -0.0067982741 1.6592128821 -0.3790760150 -9.7654720481
6.220000 0.0180247917 0.0452573761 -0.0018382499 1.7624791756 -0.3925363192 -9.8694229685
6.230000 0.0218923825 0.0495352932 -0.0006857965 1.7596983137 -0.3317014340 -9.8342524320
6.240000 0.0210042467 0.0428414026 -0.0024794618 1.7268856088 -0.3317803531 -9.7544112374
6.250000 0.0168053837 0.0490235552 -0.0003279692 1.7151222960 -0.4154616987 -9.9150204972
6.260000 0.0271290274 0.0355600146 -0.0008302275 1.8373810859 -0.4706798137 -9.8402021136
6.270000 0.0154148434 0.0513105769 -0.0046092677 1.7953836260 -0.3082867401 -9.8549605415
6.280000 0.0197474394 0.0585406759 -0.0013535115 1.7838271207 -0.4173421281 -9.7362192055
6.290000 0.0302013406 0.0555692997 0.0010621100 1.8551385870 -0.4203852916 -9.8199049497
6.300000 0.0329324266 0.0498125107 -0.0138908018 1.8339241670 -0.3822428237 -9.8142583832
6.310000 0.0181973278 0.0521057496 0.0042374790 1.8283549426 -0.3993798037 -9.8730915725
6.320000 0.0310866321 0.0455648258 -0.0089095723 1.7803629388 -0.4546888792 -9.8754489623
6.330000 0.0298480844 0.0411338230 0.0058585582 1.8002766206 -0.3348825675 -9.8568924379
6.340000 0.0158529402 0.0461651871 0.0161307774 1.8733350343 -0.3985592597 -9.8077667754
6.350000 0.0276929705 0.0410995856 0.0049861608 1.7870932297 -0.4373571902 -9.8186208168
6.360000 0.0257498044 0.0460087370 0.0089765665 1.7985700209 -0.4197250022 -9.8165108321
6.370000 0.0307782382 0.0584750491 -0.0079368299 1.8212515533 -0.4770846680 -9.7001070014
6.380000 0.0215853163 0.0419840173 0.0025115946 1.8256679141 -0.4051224751 -9.8299420329
6.390000 0.0217987556 0.0396025614 -0.0023155933 1.8274100594 -0.4864906691 -9.8528060658
6.400000 0.0201166085 0.0537201965 0.0013673006 1.7930733666 -0.4156268081 -9.7582989987
6.410000 0.0217497147 0.0370609458 0.0059989173 1.9420307908 -0.4010103342 -9.8134066580
6.420000 0.0253709646 0.0359048218 -0.0095694366 1.7972275604 -0.4522679569 -9.6924968960
6.430000 0.0128809976 0.0391400242 -0.0027753028 1.8518627391 -0.4641772643 -9.7753190634
6.440000 0.0248942416 0.0516202287 0.0011872528 1.8663226186 -0.4275291948 -9.6157305085
6.450000 0.0226024290 0.0375529486 -0.0003613173 1.8207418265 -0.4377531744 -9.8225007116
6.460000 0.0274021573 0.0557168701 -0.0000698459 1.8683785571 -0.5005017860 -9.8795582523
6.470000 0.0196157723 0.0507191375 -0.0088692688 1.9182924221 -0.4305799613 -9.7994063681
6.480000 0.0161002962 0.0481252563 -0.0002017513 1.8122564751 -0.5019450189 -9.8378049328
6.490000 0.0254078936 0.0486407232 0.0069805525 1.8363366236 -0.4002287666 -9.8387487613
6.500000 0.0213118263 0.0608134296 -0.0122063442 1.9187271636 -0.4097954772 -9.8394240248
6.510000 0.0214490241 0.0388082204 0.0008020611 1.8740499715 -0.5332559412 -9.7546685623
6.520000 0.0189534918 0.0543276696 -0.0019583115 1.8484637664 -0.4266204569 -9.7030213109
6.530000 0.0246931305 0.0430273772 0.0089017605 1.8793509484 -0.4956973616 -9.8187201143
6.540000 0.0239203285 0.0391583623 0.0016284940 1.8392778358 -0.4445045544 -9.7945683815
6.550000 0.0215963327 0.0361584492 -0.0048065957 1.8179750509 -0.4699562298 -9.8589762536
6.560000 0.0138807354 0.0516243506 0.0006467759 1.9104449890 -0.5002719701 -9.8034000300
6.570000 0.0214837951 0.0430039736 0.0074931929 1.8651259797 -0.4654445759 -9.7617825560
6.580000 0.0105291120 0.0361839524 -0.0137130747 1.9380972343 -0.4262667545 -9.9803108592
6.590000 0.0069508746 0.0459134430 -0.0060770242 1.9679583557 -0.4718464272 -9.8498041473
6.600000 0.0158777671 0.0378041262 0.0056346220 1.8873043228 -0.4794266825 -9.7709663104
6.610000 0.0192180183 0.0398966591 -0.0027700141 1.9647159874 -0.4743309598 -9.8577141632
6.620000 0.0182869965 0.0481364798 -0.0112747187 1.9940655680 -0.5095105006 -9.6928467697
6.630000 0.0321792842 0.0378185083 0.0023056988 1.9651557979 -0.5117972802 -9.8211800574
6.640000 0.0174711131 0.0377990997 -0.0075207403 1.9091558348 -0.4313426609 -9.8518892688
6.650000 0.0278834762 0.0340112504 -0.0137807998 2.0035002124 -0.4274053833 -9.8022625501
6.660000 0.0284934366 0.0385197831 -0.0065883231 1.9266732324 -0.4790570113 -9.8965995761
6.670000 0.0248941861 0.0405104955 -0.0025642140 1.9721650180 -0.5266165715 -9.7332071988
6.680000 0.0167593626 0.0423820562 0.0061715930 1.9739880975 -0.4515785778 -9.7178553790
6.690000 0.0227832177 0.0362314657 0.0049736947 1.9321447311 -0.5133310538 -9.8076709052
6.700000 0.0207805327 0.0398411075 -0.0007049991 1.9773746914 -0.4814783314 -9.9017706098
6.710000 0.0153993173 0.0344194845 -0.0036051878 1.9398565127 -0.4970730060 -9.7361779657
6.720000 0.0148854769 0.0397256698 0.0046197928 1.9843504200 -0.5431561318 -9.8063158213
6.730000 0.0270317610 0.0358690382 0.0006586765 1.9933130420 -0.4738010269 -9.7369154014
6.740000 0.0235773850 0.0518292290 0.0014423234 2.0096557781 -0.4554840547 -10.0151976752
6.750000 0.0232600606 0.0247580274 -0.0048622036 2.0254214592 -0.5783108575 -9.7218470987
6.760000 0.0192503578 0.0409255527 -0.0038252472 1.9697004506 -0.3874812254 -9.7707894597
6.770000 0.0236407102 0.0309306411 -0.0163301882 2.0066670471 -0.4905130036 -9.9179605089
6.780000 0.0181619623 0.0441906626 0.0076426334 1.9986742436 -0.4776829847 -9.7713907394
6.790000 0.0177035916 0.0340589398 0.0030987188 1.9837864176 -0.5327763394 -9.6633698968
6.800000 0.0141611089 0.0465659984 0.0058663625 2.0446764132 -0.4616173293 -9.8259484846
6.810000 0.0158230906 0.0451409829 0.0098106871 1.9707708402 -0.5160631241 -9.7523505708
6.820000 0.0180268409 0.0414058396 0.0052556124 2.0572355609 -0.5207357742 -9.7316390377
6.830000 0.0315799911 0.0458479985 -0.0043742139 1.9782754871 -0.5182361036 -9.8223810835
6.840000 0.0259628782 0.0255906898 -0.0128567118 2.0454777072 -0.5640093491 -9.8347711178
6.850000 0.0244463756 0.0306280003 0.0031314201 1.9752702364 -0.4890247955 -9.6626846596
6.860000 0.0125851030 0.0357850460 -0.0012282080 2.0396284420 -0.4870598153 -9.8579359911
6.870000 0.0196179342 0.0383736924 0.0034855451 2.0743626352 -0.5166340303 -9.8600026674
6.880000 0.0164346273 0.0361414150 0.0056086966 2.0215492092 -0.5314669307 -9.7991472787
6.890000 0.0249158884 0.0312887724 -0.0097725861 1.9481148121 -0.5418951875 -9.7706544280
6.900000 0.0173096450 0.0304861620 -0.0032625474 1.9455339599 -0.5746707844 -9.8114882168
6.910000 0.0214482687 0.0534850131 -0.0102348375 2.0601845628 -0.5054137442 -9.7733799753
6.920000 0.0003169755 0.0311107595 -0.0006028037 2.0456338065 -0.4925297330 -9.7252966670
6.930000 0.0062218067 0.0341891999 0.0018764087 2.0496469563 -0.5488423878 -9.8406491317
6.940000 0.0152983546 0.0346462486 0.0016996423 2.0580642688 -0.5701842073 -9.8184725960
6.950000 0.0165146697 0.0370456639 0.0052539743 2.0871454085 -0.5299243706 -9.8002165190
6.960000 0.0103227962 0.0440667501 0.0003963602 2.0310417062 -0.5469011432 -9.9182576207
6.970000 0.0296314012 0.0504327707 -0.0113897380 2.1083163394 -0.5121378983 -9.7137039791
6.980000 0.0133213817 0.0448433427 -0.0200391025 1.9876305603 -0.4978476410 -9.7863460818
6.990000 0.0190939878 0.0274290182 -0.0024046262 2.0856589055 -0.5236790194 -9.8138456474
7.000000 0.0183544697 0.0352924901 0.0081244057 2.0261224138 -0.5219606245 -9.7270556603
7.010000 0.0160986096 0.0401161140 -0.0009090438 2.0582739598 -0.5628804711 -9.8303310632
7.020000 0.0183569063 0.0301651980 0.0018244707 2.0053865575 -0.5167012677 -9.8655738312
7.030000 0.0156360700 0.0314690577 -0.0010724272 2.0859126065 -0.5524739007 -9.7455071505
7.040000 0.0315242233 0.0212928394 -0.0058361119 2.0990655765 -0.5187555300 -9.6980500930
7.050000 0.0148985045 0.0327960927 -0.0025897218 2.1264711778 -0.4862409639 -9.7142033440
7.060000 0.0143062812 0.0417761742 0.0057598184 2.0689757433 -0.6129736533 -9.7349896174
7.070000 0.0094397269 0.0488434383 0.0068345813 2.0308365155 -0.5568898484 -9.6901133157
7.080000 0.0171075854 0.0308693016 0.0090015731 2.1597594438 -0.5408821968 -9.7378440127
7.090000 0.0080754802 0.0215711020 0.0089819804 2.0862285866 -0.6675926541 -9.7263409185
7.100000 0.0261430581 0.0208620630 0.0024894785 2.1354539808 -0.5209283563 -9.8420422610
7.110000 0.0146801483 0.0289556491 -0.0008341868 2.1956210149 -0.5801720905 -9.7367291693
7.120000 0.0172863720 0.0281761589 0.0007748748 2.0949450805 -0.6172846083 -9.8195064349
7.130000 0.0026237630 0.0340524885 -0.0037645598 2.0911122748 -0.5516989963 -9.7993837728
7.140000 0.0180936923 0.0363690184 -0.0009686865 2.1247668472 -0.5490822196 -9.7764307270
7.150000 0.0091258348 0.0310567898 0.0124380697 2.1041357731 -0.5569148890 -9.8138295839
7.160000 0.0192472451 0.0328815729 0.0034199736 2.0640578825 -0.5910174094 -9.8049636629
7.170000 0.0147786673 0.0394641072 -0.0050554014 2.1506412927 -0.5719946573 -9.8507881047
7.180000 0.0263266156 0.0259923595 -0.0090331645 2.1735154086 -0.5898460336 -9.7776286606
7.190000 0.0222864108 0.0357286136 -0.0116349477 2.0549794503 -0.6514652835 -9.8016178957
7.200000 0.0197294218 0.0305383134 -0.0093398185 2.0858201285 -0.5461765601 -9.8406876717
7.210000 0.0202411507 0.0339373792 0.0036414494 2.1250044393 -0.5937084742 -9.8878447655
7.220000 0.0203596586 0.0249793740 0.0060357718 2.1381672921 -0.5345901181 -9.6593936561
7.230000 0.0226135581 0.0426190143 0.0085370835 2.1406479879 -0.5620229424 -9.7454679755
7.240000 0.0053045926 0.0253942573 -0.0076441105 2.1460808771 -0.5204363749 -9.6320510124
7.250000 0.0116549363 0.0352579173 0.0007936504 2.1235768753 -0.5221890085 -9.8689294146
7.260000 0.0271343527 0.0241021361 -0.0066202713 2.1965735544 -0.5697787057 -9.7787787246
7.270000 0.0227425114 0.0393650284 -0.0066224472 2.1704714603 -0.5639071199 -9.7621444344
7.280000 0.0137408769 0.0314025614 -0.0050338201 2.1547172770 -0.5876371188 -9.8922670245
7.290000 0.0106410595 0.0319396503 -0.0046181827 2.1653620661 -0.5202651560 -9.7585140998
7.300000 0.0040893796 0.0344449376 -0.0027666869 2.1811972073 -0.5334063141 -9.7109682884
7.310000 0.0183054353 0.0362735891 0.0005846628 2.2077781501 -0.5863754509 -9.7387442538
7.320000 0.0201853538 0.0279034934 -0.0067906929 2.1622962234 -0.6011728672 -9.7653544456
7.330000 0.0081422132 0.0199609774 0.0174955396 2.1714432152 -0.4778240201 -9.8016252930
7.340000 0.0202379542 0.0468559668 -0.0065678492 2.2368787039 -0.5810135226 -9.8515290970
7.350000 0.0191475012 0.0292925438 0.0081816180 2.2267522347 -0.6135607533 -9.9021669652
7.360000 0.0177646863 0.0200076293 -0.0060220671 2.1124140423 -0.6068316777 -9.7834964435
7.370000 0.0067636912 0.0270259766 0.0034948090 2.2132630156 -0.6063452226 -9.8845578830
7.380000 0.0141534442 0.0210789373 -0.0029411121 2.1437719238 -0.5384924541 -9.7149316540
7.390000 0.0154192716 0.0253371563 -0.0065924883 2.1884309146 -0.6247459473 -9.6740419572
7.400000 0.0190662887 0.0157153476 -0.0005932216 2.2450927379 -0.6290376359 -9.9433589388
7.410000 0.0176075424 0.0313110169 0.0093044730 2.1515141462 -0.5402792805 -9.7045208425
7.420000 0.0072947934 0.0340914581 -0.0073578011 2.1444530033 -0.6234366506 -9.7929419065
7.430000 0.0058532672 0.0337994744 -0.0017191318 2.1809892744 -0.5766944460 -9.8441151298
7.440000 0.0197641038 0.0286344664 0.0010817430 2.1584810269 -0.6280196487 -9.6928676412
7.450000 0.0153383125 0.0189823527 -0.0091575613 2.1872921165 -0.6225529743 -9.7676104443
7.460000 0.0137801651 0.0266342274 -0.0088975994 2.1983915292 -0.6044985274 -9.8368914022
7.470000 0.0202050284 0.0242004473 -0.0163266824 2.2288896681 -0.6297909149 -9.6782668301
7.480000 0.0037356253 0.0312646800 0.0002744666 2.1197603408 -0.5652618011 -9.7078158193
7.490000 0.0283845581 0.0206158391 -0.0037031474 2.2127599580 -0.5747963567 -9.7395489811
7.500000 0.0200764948 0.0302861904 -0.0075706062 2.1632328196 -0.7057068293 -9.6735941655
7.510000 0.0178806259 0.0180032609 0.0079370789 2.2182341262 -0.6154620326 -9.7682425966
7.520000 0.0036941058 0.0401654926 -0.0030283198 2.1319092539 -0.5825994099 -9.8201002451
7.530000 0.0121744593 0.0249762715 -0.0083820263 2.1833688329 -0.5941811237 -9.7997302031
7.540000 0.0156004848 0.0334578445 0.0121658954 2.1827298541 -0.5832186163 -9.7178858522
7.550000 0.0048015167 0.0282685815 0.0018924829 2.2425596227 -0.5196707440 -9.7529424825
7.560000 0.0190628658 0.0285101545 0.0144727514 2.2452092524 -0.6010080035 -9.7387658524
7.570000 0.0164559432 0.0375272646 -0.0094295885 2.2223694935 -0.6072272212 -9.7844311773
7.580000 -0.0026443044 0.0340049487 -0.0150786330 2.3398755074 -0.6664691589 -9.6357168521
7.590000 0.0118409088 0.0266813415 -0.0029988480 2.1984213081 -0.6550548997 -9.7301481568
7.600000 0.0145711981 0.0303858360 -0.0092620513 2.2837647793 -0.6983517856 -9.8293913712
7.610000 0.0134459638 0.0116510592 0.0051284789 2.2655004018 -0.6109196017 -9.7875763139
7.620000 0.0121368872 0.0300428715 -0.0072824249 2.2958921825 -0.6445850822 -9.7664929740
7.630000 0.0124437516 0.0234799395 -0.0007698970 2.2389805388 -0.7041651753 -9.6891908415
7.640000 0.0240769588 0.0254076673 -0.0001671170 2.2623522980 -0.6355262506 -9.7685694139
7.650000 0.0106130725 0.0189019829 0.0128723248 2.1839551017 -0.6747378934 -9.7035731987
7.660000 0.0169022577 0.0300219543 -0.0052527726 2.2730196627 -0.6192064329 -9.8084754622
7.670000 0.0062043559 0.0330723223 0.0007364846 2.2871824580 -0.6417804033 -9.8717646880
7.680000 0.0048592384 0.0109611161 0.0055192769 2.2415641198 -0.6456272538 -9.6891142403
7.690000 0.0170717786 0.0327827512 -0.0071202358 2.2569336581 -0.6449424976 -9.7356291769
7.700000 0.0211878586 0.0344308848 -0.0032003789 2.1902553342 -0.5888594459 -9.6797310067
7.710000 0.0037726327 0.0258054911 -0.0048980085 2.2337044529 -0.6102499793 -9.7551605779
7.720000 0.0074671496 0.0251941985 0.0162569257 2.2396892045 -0.6412723678 -9.7704892730
7.730000 0.0011380852 0.0414416677 0.0029052838 2.2064808599 -0.5911874076 -9.7689526906
7.740000 0.0100208210 0.0245566930 0.0035394611 2.3579244741 -0.6851373628 -9.7582081659
7.750000 0.0081199098 0.0115168858 0.0104340240 2.2899502475 -0.6221241232 -9.7109410119
7.760000 0.0013805256 0.0145052220 0.0192610016 2.3570684285 -0.6708855797 -9.7361236650
7.770000 0.0016311164 0.0214318984 0.0027616863 2.2460487234 -0.5856343276 -9.7330425519
7.780000 0.0140806322 0.0183596769 0.0007085656 2.2853568495 -0.6303617009 -9.7380681678
7.790000 0.0182962089 0.0203670305 0.0033763876 2.2306754499 -0.6177813520 -9.6793428368
7.800000 0.0188993572 0.0074452884 0.0024391578 2.2645896362 -0.6232512436 -9.9649304571
7.810000 0.0102860314 0.0271171076 -0.0019284104 2.2958966053 -0.6841864110 -9.7395358939
7.820000 0.0085204649 0.0154858994 -0.0020961402 2.1872800674 -0.6715586971 -9.7656516028
7.830000 0.0098025579 0.0258801285 -0.0033451183 2.2954359338 -0.6070678860 -9.7161951094
7.840000 0.0096336043 0.0284716088 -0.0006627124 2.3325863201 -0.6615440364 -9.8002569867
7.850000 0.0182651789 0.0172534539 0.0161288057 2.2648411425 -0.6736739300 -9.6376091683
7.860000 0.0141030880 0.0260257060 -0.0051642964 2.2924912596 -0.6664921118 -9.7404278995
7.870000 0.0129110108 0.0406287307 -0.0009635265 2.2555895444 -0.5673130884 -9.6891000336
7.880000 0.0190274829 0.0256919636 0.0014983132 2.2726247122 -0.6862524319 -9.7058148983
7.890000 0.0036302307 0.0180533118 -0.0051059671 2.2662416162 -0.7297701767 -9.7093442808
7.900000 0.0090524566 0.0260143953 0.0068002416 2.3209570973 -0.7073708688 -9.8341654440
7.910000 0.0060691720 0.0137947920 -0.0052228326 2.3527166042 -0.6830336045 -9.7893357740
7.920000 0.0110827371 0.0188919890 -0.0062133294 2.3597918823 -0.5724415755 -9.7255393518
7.930000 0.0169991479 0.0152615049 -0.0046901509 2.3803934209 -0.6853206979 -9.6852423299
7.940000 0.0076567176 0.0123332286 -0.0082835877 2.3022091552 -0.6501352272 -9.7147108605
7.950000 0.0114738049 0.0159450202 0.0046891775 2.3310976615 -0.6123725744 -9.7149975452
7.960000 0.0246831935 0.0259145007 0.0014029203 2.3167450256 -0.6854904025 -9.5976312946
7.970000 0.0023896951 0.0289848459 0.0025160953 2.3074799725 -0.6574523491 -9.7577901077
7.980000 0.0001699433 0.0114463729 -0.0060019899 2.3651136927 -0.6658061260 -9.7721149305
7.990000 -0.0069198794 0.0273037258 0.0114448090 2.3105505539 -0.7434679080 -9.7074444848
8.000000 0.0090348761 0.0206197280 -0.0218755863 2.4011337334 -0.6246711076 -9.7312057767
8.010000 0.0091867527 0.0089873792 -0.0110013607 2.2882283983 -0.6556027754 -9.7956964777
8.020000 0.0244007466 0.0150525622 0.0023528533 2.2807587041 -0.6309415974 -9.8655247371
8.030000 0.0160799912 0.0123218508 -0.0082137160 2.2872006455 -0.6473822561 -9.8122383066
8.040000 0.0134677945 0.0322204069 0.0073419457 2.2800289003 -0.6605432232 -9.7026571975
8.050000 0.0066996886 0.0205987205 -0.0009942499 2.2461409061 -0.6007733690 -9.7404027843
8.060000 0.0049030584 0.0188857091 -0.0064750241 2.3766307409 -0.6515022188 -9.7206234320
8.070000 -0.0066718655 0.0318978969 -0.0083594597 2.3320470832 -0.6208074447 -9.6564951448
8.080000 -0.0034925115 0.0141448735 -0.0040760181 2.4112106373 -0.5815334828 -9.7275941611
8.090000 0.0017341110 0.0092040687 0.0135924948 2.2666773869 -0.7538399820 -9.6752295378
8.100000 0.0102832891 0.0214855539 -0.0004340976 2.3606410505 -0.5522502990 -9.7886128755
8.110000 0.0134738502 0.0190212915 0.0049929573 2.3568857196 -0.7286768712 -9.6633239543
8.120000 0.0142060268 0.0216407322 0.0037580752 2.2773785545 -0.6515476828 -9.7037238698
8.130000 -0.0091350064 0.0115398546 0.0035312474 2.3663556979 -0.6687458826 -9.6450418796
8.140000 -0.0030255472 0.0124193257 0.0036399578 2.3450800733 -0.6740373610 -9.7281178433
8.150000 0.0185949481 0.0027412541 0.0082404017 2.2823270523 -0.7663708003 -9.8405705421
8.160000 0.0004549723 0.0262772635 -0.0056752893 2.3323620714 -0.6454621993 -9.6457681620
8.170000 0.0124751715 0.0157193095 -0.0006144797 2.3936534606 -0.7252271104 -9.6436685586
8.180000 0.0253713939 0.0130027183 0.0125344703 2.3997394465 -0.6756542792 -9.7038564827
8.190000 -0.0025468221 0.0078428006 -0.0082525239 2.3185577896 -0.6427279349 -9.7603952844
8.200000 0.0087314998 0.0317636748 -0.0053460132 2.3851186838 -0.7236590846 -9.6889835823
8.210000 0.0108998770 0.0329380415 0.0091686911 2.4284631830 -0.7272588392 -9.7961814695
8.220000 -0.0001896986 0.0232386561 -0.0023297918 2.3790156332 -0.7127655587 -9.6063489548
8.230000 0.0125784176 0.0087252717 -0.0077399746 2.5053040705 -0.6530896279 -9.7254577899
8.240000 -0.0002989260 0.0088816830 0.0038503388 2.4088676994 -0.7367970032 -9.7653782064
8.250000 0.0137301804 0.0139920837 0.0061104900 2.3438503842 -0.6930296829 -9.6596638178
8.260000 0.0065081255 0.0321697178 0.0030968574 2.3317940278 -0.6396152521 -9.7447299319
8.270000 -0.0018209369 0.0207050447 0.0011937810 2.3401239643 -0.6692258065 -9.6746296576
8.280000 0.0256043421 0.0169744301 -0.0012982215 2.4471679759 -0.7530270228 -9.8045574985
8.290000 0.0147786000 0.0184801389 0.0053486201 2.3485094581 -0.6721349480 -9.6596315844
8.300000 0.0156621724 0.0231464054 -0.0036956815 2.3284913428 -0.7227861909 -9.8000208445
8.310000 0.0130068908 0.0077487462 0.0160756621 2.4006435587 -0.6609225359 -9.7789981493
8.320000 -0.0080314174 0.0121445316 0.0155803704 2.3477134337 -0.7300190292 -9.7611140426
8.330000 0.0097813698 0.0159002195 0.0036523690 2.4521652271 -0.6954679610 -9.8105846359
8.340000 0.0079000044 0.0095152373 -0.0013003450 2.3842491557 -0.6676031405 -9.6382480796
8.350000 0.0112490539 0.0243695365 0.0026471275 2.3422985070 -0.6951029878 -9.7247250801
8.360000 -0.0042441136 0.0150723254 0.0139067329 2.4518718555 -0.7271997700 -9.6958004206
8.370000 0.0028993611 0.0146123012 0.0116493993 2.3959884654 -0.6931733727 -9.7637243170
8.380000 0.0127685568 0.0092336183 0.0021769779 2.4023234527 -0.6556288905 -9.7437838554
8.390000 0.0074236762 0.0087000326 -0.0032646640 2.4091387717 -0.6545747706 -9.6111349999
8.400000 0.0039716859 0.0090556032 0.0017460708 2.4538609582 -0.7012885516 -9.6590569977
8.410000 0.0054283409 0.0100243992 0.0093755293 2.4371332267 -0.6697866157 -9.7325802589
8.420000 0.0066949978 0.0148339372 0.0059287338 2.4542611013 -0.7519342662 -9.7528557646
8.430000 0.0101807045 0.0120489770 -0.0068582753 2.4031229711 -0.7291930745 -9.7206881761
8.440000 0.0132263916 0.0103892924 0.0030873282 2.3459440214 -0.6324275492 -9.7010784214
8.450000 0.0014713074 0.0204779131 0.0009862264 2.3805913866 -0.6914340779 -9.6789523643
8.460000 -0.0049084724 0.0105696142 -0.0067103504 2.4068340269 -0.7310589552 -9.8036624820
8.470000 0.0000781113 0.0246019762 0.0040392110 2.3872525405 -0.7614777817 -9.6987980012
8.480000 0.0200923888 0.0203124829 -0.0020572542 2.4174579158 -0.7224985553 -9.7983074274
8.490000 0.0018445934 0.0083011569 0.0001914714 2.3977143793 -0.7167030952 -9.6627696443
8.500000 0.0087954273 0.0015704531 0.0018932131 2.3876300445 -0.6281053017 -9.6481212017
8.510000 0.0017673312 0.0208732564 0.0025671292 2.3990053404 -0.6862494614 -9.7016533790
8.520000 0.0138340176 0.0071518475 -0.0116031565 2.3855015350 -0.7616527350 -9.6483195962
8.530000 0.0011375607 0.0183999499 -0.0097331881 2.3698982449 -0.6727282683 -9.7902591034
8.540000 0.0049155196 0.0193786508 -0.0044956345 2.4828508933 -0.7690928542 -9.6751791139
8.550000 0.0142057109 0.0235797938 -0.0022434943 2.3363100941 -0.7494870580 -9.6402973041
8.560000 -0.0010931139 0.0039879027 -0.0024373255 2.4989371737 -0.6594635929 -9.7179313397
8.570000 0.0100775851 0.0080111920 -0.0048549967 2.4178018307 -0.6950862584 -9.7514527186
8.580000 0.0170420514 0.0079215826 -0.0102054844 2.4477142876 -0.6661853733 -9.6534704773
8.590000 0.0046872702 0.0056281680 -0.0009452836 2.4962188229 -0.7039635120 -9.7552898485
8.600000 0.0169442436 0.0162167548 0.0085421515 2.4169047909 -0.6587200182 -9.8032191859
8.610000 -0.0004902726 0.0266092511 -0.0058810789 2.4116679957 -0.7918080655 -9.7038513662
8.620000 0.0136664356 0.0150440243 0.0077462753 2.3492946777 -0.6088550646 -9.7553247283
8.630000 0.0115880819 0.0277705294 0.0051736659 2.4715838335 -0.7024162298 -9.7318613572
8.640000 0.0086449213 0.0054199915 -0.0100204394 2.4888158411 -0.6964567846 -9.7635483320
8.650000 0.0052185541 0.0065781471 -0.0134213732 2.5004970444 -0.7166793932 -9.7414831876
8.660000 -0.0002507585 0.0156290999 0.0141885155 2.3547682952 -0.6758018394 -9.7403789011
8.670000 0.0028321685 0.0160805873 -0.0043557790 2.4503666764 -0.7214329432 -9.6785219025
8.680000 -0.0108882620 0.0176406241 -0.0154807491 2.4799116379 -0.7551494436 -9.6954800512
8.690000 0.0082292594 0.0086870629 0.0035315920 2.4263876175 -0.7204783406 -9.7917389899
8.700000 0.0161994130 0.0075528737 -0.0000592275 2.4039913073 -0.7782631024 -9.7214978935
8.710000 0.0189051984 0.0051293383 -0.0051343731 2.4179223870 -0.6989023662 -9.7047584483
8.720000 0.0096713617 0.0050237423 -0.0033850106 2.4333711935 -0.8133211947 -9.6346255016
8.730000 0.0014398213 0.0151162393 -0.0006606356 2.4288153608 -0.7053887013 -9.8138602215
8.740000 0.0080410004 0.0148566558 -0.0078196669 2.4398711023 -0.7212189297 -9.6502740337
8.750000 0.0149733984 0.0165069611 -0.0008497735 2.4812257412 -0.7601532867 -9.7372888995
8.760000 0.0146540028 0.0092243759 -0.0048112988 2.4629481885 -0.7032187316 -9.5806915632
8.770000 0.0039760444 0.0143312922 -0.0089106731 2.4265869253 -0.7392985644 -9.7586466466
8.780000 0.0131089573 0.0097398721 0.0017783959 2.4571800059 -0.7020252534 -9.7086346803
8.790000 0.0112987208 0.0082399137 0.0056108617 2.4417786841 -0.7041417086 -9.8026519437
8.800000 0.0079508910 0.0008442759 -0.0054384369 2.4621203225 -0.7606296499 -9.6179119143
8.810000 0.0049542366 0.0147281287 0.0019506891 2.5162667482 -0.6704536386 -9.7305543949
8.820000 0.0127921425 0.0073404082 0.0097360030 2.4603278422 -0.6356813129 -9.6785924715
8.830000 0.0123438979 0.0107819504 -0.0120210813 2.4590998882 -0.7386485745 -9.6463110438
8.840000 0.0080343523 0.0285876511 -0.0042602122 2.4867329142 -0.7903439775 -9.6360670126
8.850000 0.0070751923 0.0027298895 -0.0120085233 2.4455897458 -0.7250662828 -9.7467030163
8.860000 0.0079626162 0.0136949946 -0.0083868595 2.4696615254 -0.7323385797 -9.6663462449
8.870000 -0.0007603604 0.0192678795 0.0119963445 2.5126810886 -0.6977825676 -9.5806982180
8.880000 -0.0039095695 0.0187654206 0.0091127762 2.4141819151 -0.6157270652 -9.6565211207
8.890000 -0.0019578111 0.0135503589 0.0060116829 2.4639029086 -0.6996740124 -9.6629376191
8.900000 0.0042858018 0.0086291230 0.0077227556 2.5292660205 -0.6808284458 -9.7632921517
8.910000 0.0059713149 0.0214907549 -0.0089693774 2.4384852110 -0.7419281604 -9.7212990645
8.920000 0.0026750401 -0.0005831195 -0.0088225028 2.4551381962 -0.7898798021 -9.6878893488
8.930000 0.0033726510 0.0096834485 0.0002466087 2.5019403768 -0.7266026979 -9.6956761373
8.940000 0.0016823515 0.0051349933 -0.0015119731 2.5475889730 -0.7374221278 -9.7012131427
8.950000 0.0127845423 -0.0030727878 -0.0021141251 2.4362115984 -0.7254783477 -9.6106190766
8.960000 0.0055675707 0.0145293486 -0.0169051681 2.5363562935 -0.7609931982 -9.6754166876
8.970000 0.0066958341 0.0147924196 0.0015174478 2.4619082978 -0.7444335026 -9.5834718032
8.980000 0.0061047078 0.0267265733 0.0104146403 2.4615174482 -0.7616826095 -9.7551458319
8.990000 0.0102793701 0.0100302325 -0.0000563418 2.5205637050 -0.7417425758 -9.7299319499
9.000000 0.0184071323 0.0075715391 -0.0161687339 2.5219281521 -0.7713241997 -9.6719950064
9.010000 0.0063360843 0.0056437951 0.0061669923 2.4811857515 -0.7740045035 -9.6766414069
9.020000 0.0146290779 0.0178365906 0.0116300711 2.4961280297 -0.7578463743 -9.7941105043
9.030000 0.0068823556 0.0122889176 -0.0185636859 2.4281493204 -0.8028747778 -9.6715282760
9.040000 0.0043706053 0.0180582021 0.0044156105 2.4719106194 -0.7563338171 -9.6745634368
9.050000 0.0236899611 0.0005487770 0.0104624932 2.5435415576 -0.7167933365 -9.7602406929
9.060000 0.0142196596 0.0166228215 -0.0031606830 2.4995993543 -0.8148148542 -9.6517350261
9.070000 0.0108113246 0.0070537453 -0.0062745491 2.4865690017 -0.6911251420 -9.6631542142
9.080000 0.0063905514 0.0122447577 -0.0013365195 2.5357834497 -0.7771148071 -9.5933095780
9.090000 0.0048542879 0.0284969994 -0.0020109881 2.4249994392 -0.6787693593 -9.6406272666
9.100000 0.0205222031 0.0029199137 -0.0021933555 2.4235142106 -0.7108862740 -9.6650909211
9.110000 0.0021698365 0.0060354335 0.0032596852 2.5554791996 -0.7622818473 -9.6913477744
9.120000 0.0145350423 -0.0011781040 0.0188694898 2.5290408142 -0.7318052323 -9.6286917980
9.130000 0.0059788900 0.0036641484 -0.0033151776 2.4898046596 -0.7585828985 -9.6409886485
9.140000 0.0151087097 0.0046609940 -0.0020949306 2.5037456229 -0.7904394876 -9.6916438463
9.150000 -0.0105632781 0.0140787015 -0.0010142277 2.5649401313 -0.6989433035 -9.7584634962
9.160000 -0.0046122930 0.0238453697 0.0057786067 2.4767877781 -0.8251262353 -9.8251879068
9.170000 0.0041426090 0.0128662207 0.0064394328 2.5004358496 -0.7664128575 -9.6453449705
9.180000 0.0179964797 0.0056507897 0.0102357447 2.5377238001 -0.7786448775 -9.7478638643
9.190000 0.0107982940 0.0153896784 -0.0117551204 2.5545242235 -0.7207903068 -9.6901231719
9.200000 0.0068850350 0.0109765586 0.0040415385 2.4590083311 -0.8232548961 -9.6330606153
9.210000 -0.0032566321 0.0196763899 -0.0004604357 2.5450698167 -0.7156833848 -9.7156987775
9.220000 0.0114663484 0.0120743844 0.0169098657 2.4670194183 -0.7114517257 -9.7710609673
9.230000 0.0048018414 0.0192716875 -0.0115474010 2.5546170801 -0.7699049814 -9.6652844613
9.240000 0.0103583169 0.0074359991 -0.0010385517 2.5346362133 -0.7791115286 -9.6922320230
9.250000 -0.0097979843 0.0042745778 -0.0109798779 2.5324330761 -0.8341386782 -9.7751322396
9.260000 -0.0038879306 0.0146436859 0.0057537125 2.5125346363 -0.7735621213 -9.6008251606
9.270000 0.0060558259 0.0117865075 -0.0022774163 2.4557097142 -0.8043846177 -9.7848513002
9.280000 0.0080646901 0.0032407015 -0.0012214191 2.4465001449 -0.8133360178 -9.8123329349
9.290000 0.0041584522 0.0215994135 -0.0061543362 2.5465573873 -0.7748747566 -9.6532565113
9.300000 0.0122368410 0.0050174644 -0.0004057073 2.4458188594 -0.7454745831 -9.5997571006
9.310000 -0.0011310524 0.0163705226 -0.0044706496 2.5239971730 -0.7674678653 -9.7438980269
9.320000 0.0117609223 0.0155536153 -0.0097038698 2.5087141318 -0.7424143576 -9.6320045275
9.330000 0.0090427561 -0.0078256268 -0.0140366928 2.4029957332 -0.7302913590 -9.5434444695
9.340000 0.0034843436 0.0084562553 -0.0075912450 2.5164063107 -0.7030602540 -9.6605600894
9.350000 0.0041162284 0.0026740477 -0.0013812135 2.4993713371 -0.7765946445 -9.6041726303
9.360000 -0.0135328065 0.0090433736 -0.0182743694 2.4697226412 -0.7529197941 -9.6206922507
9.370000 0.0227550765 0.0058186239 0.0095631626 2.5400332049 -0.7400494938 -9.6856658232
9.380000 0.0148758749 0.0135253961 -0.0047958852 2.4830026446 -0.7680089385 -9.6866650533
9.390000 -0.0081436090 0.0143789673 -0.0052168468 2.4716715724 -0.8367277832 -9.7130947924
9.400000 0.0027279953 0.0150559193 0.0050975434 2.5477049445 -0.7386381406 -9.6524276289
9.410000 0.0095954922 0.0150265326 -0.0029223568 2.5260964442 -0.7734202982 -9.6604926363
9.420000 -0.0018895211 0.0267198942 -0.0085472839 2.5012363329 -0.7574071908 -9.7086686498
9.430000 0.0053479843 0.0073546196 -0.0061934176 2.5186446498 -0.7583858561 -9.7946927063
9.440000 0.0104914405 -0.0076080050 -0.0004622699 2.4872601871 -0.8332590524 -9.7979802980
9.450000 0.0075388673 0.0158240724 -0.0040427102 2.5156106086 -0.7407667810 -9.7594439268
9.460000 0.0055746914 0.0189326938 -0.0054753858 2.5621593011 -0.6758583493 -9.7271753251
9.470000 0.0112191055 0.0157119326 0.0026985539 2.4599168565 -0.7485579563 -9.6554251340
9.480000 -0.0022397566 0.0019322984 -0.0060947242 2.5098682316 -0.8121247082 -9.8239127928
9.490000 0.0193683539 -0.0038975510 -0.0072922808 2.5214806686 -0.8233562042 -9.6349572618
9.500000 -0.0067790462 0.0114030184 -0.0088907924 2.4960256782 -0.7193368583 -9.6982913443
9.510000 -0.0076754732 0.0064176990 -0.0072395520 2.5009312453 -0.8306577739 -9.7520580190
9.520000 -0.0000377676 0.0050220251 0.0008634155 2.5468023072 -0.7622378210 -9.6238916088
9.530000 -0.0078086700 0.0146123479 -0.0017506667 2.5966027677 -0.8575182702 -9.5948829813
9.540000 0.0127859752 0.0218583536 0.0044628916 2.5968364226 -0.7803409748 -9.7727820563
9.550000 -0.0072489350 0.0099795148 0.0081082636 2.5645808677 -0.7615468765 -9.6645897583
9.560000 -0.0029953001 0.0128305327 -0.0084644284 2.5204956121 -0.7390246767 -9.6407256652
9.570000 0.0015282377 0.0071904493 -0.0046425059 2.5546865715 -0.7584455118 -9.6849752914
9.580000 0.0054533210 -0.0064903402 -0.0109657324 2.5296903662 -0.8253047288 -9.7959807363
9.590000 0.0040011391 0.0050812379 0.0011901290 2.5533478967 -0.7464810693 -9.7871815086
9.600000 0.0031777159 -0.0026153707 -0.0067948276 2.6098614662 -0.7804543590 -9.6777243445
9.610000 0.0049771335 0.0000663312 -0.0060970670 2.4969170192 -0.7941529951 -9.5515982498
9.620000 0.0118888278 0.0068541544 0.0007766657 2.6136876687 -0.7525708922 -9.7414057454
9.630000 0.0099964021 0.0106238796 -0.0068258123 2.5527607483 -0.7163630682 -9.5444231810
9.640000 0.0096201213 0.0051115419 -0.0037673590 2.5290790268 -0.7313390405 -9.6554129813
9.650000 0.0101809781 0.0124656151 -0.0014625333 2.5446540630 -0.7207533354 -9.6412081273
9.660000 0.0097944335 0.0110036925 0.0002004008 2.4758716369 -0.7822335378 -9.6681385255
9.670000 -0.0071030818 0.0022632811 0.0067329317 2.5413585433 -0.8117812875 -9.6733053931
9.680000 -0.0062181971 0.0129690289 0.0041570186 2.5506126196 -0.6809423015 -9.6093980766
9.690000 0.0031929852 0.0167909455 0.0020623854 2.5408704470 -0.7442890681 -9.6392136122
9.700000 0.0116713574 -0.0003642061 -0.0053043590 2.5687392087 -0.7977718760 -9.6478218305
9.710000 0.0046635356 0.0143952028 0.0029160217 2.5490763161 -0.7534468915 -9.6604810239
9.720000 0.0024900868 0.0148082390 -0.0001799033 2.6135866513 -0.7117394037 -9.6504314676
9.730000 0.0038187187 0.0079766426 0.0043479064 2.5522353565 -0.7475042680 -9.6041373919
9.740000 0.0150423105 0.0076530988 0.0068448278 2.5761090962 -0.7855224203 -9.7843310886
9.750000 0.0142512385 0.0044947031 -0.0044383687 2.5477995393 -0.7884645822 -9.5824800077
9.760000 -0.0041940393 0.0069462645 0.0008395950 2.5072196656 -0.7837456239 -9.7339188596
9.770000 0.0019463864 0.0126237460 0.0037388756 2.5752354593 -0.8126882687 -9.6832458108
9.780000 -0.0061685949 0.0145469143 -0.0036738209 2.5341523106 -0.8052213332 -9.6274704944
9.790000 0.0117777491 0.0029752390 0.0031822312 2.6031155875 -0.8251821480 -9.7406479659
9.800000 0.0059508563 0.0202674244 -0.0041588025 2.4991779513 -0.7689671830 -9.6531555926
9.810000 0.0113325772 0.0072666482 0.0048932372 2.5360391631 -0.7875682229 -9.6823673429
9.820000 -0.0012303926 0.0096658578 -0.0081158585 2.6032530044 -0.7996297501 -9.6175807578
9.830000 0.0003603763 0.0020295179 -0.0073196470 2.6486103101 -0.7901463762 -9.6696143322
9.840000 0.0013137246 0.0111969406 0.0074394232 2.5798067803 -0.7555210294 -9.6796889565
9.850000 0.0039444573 0.0096261550 0.0029586084 2.4946648920 -0.8126125149 -9.7371824618
9.860000 0.0036405396 -0.0013791221 -0.0018528354 2.4919820864 -0.7890792783 -9.6905202415
9.870000 0.0191412984 0.0032077440 0.0085839482 2.5128794540 -0.7656727705 -9.6001743676
9.880000 -0.0005761167 0.0019626861 0.0002046069 2.5792722235 -0.8196848351 -9.7183751333
9.890000 -0.0159776517 0.0049280100 -0.0031106569 2.4848711807 -0.7801449790 -9.6809367597
9.900000 -0.0104796289 0.0001602907 0.0038864224 2.6280074853 -0.7670575119 -9.7362882420
9.910000 0.0108583150 0.0097065343 -0.0094039270 2.5825571424 -0.7451525362 -9.6715378609
9.920000 -0.0004453849 0.0040917326 0.0024558756 2.5353500477 -0.7913702983 -9.5603748940
9.930000 0.0089974464 0.0210097756 -0.0128099654 2.6442009695 -0.7891511420 -9.7357071108
9.940000 0.0003427004 0.0026108173 -0.0116483005 2.5828610251 -0.8359903156 -9.6120273268
9.950000 -0.0003938775 0.0069981914 -0.0037866486 2.5305538853 -0.7903866906 -9.5871591009
9.960000 -0.0095804333 0.0241320345 -0.0077313806 2.6308695697 -0.7702463262 -9.6740307695
9.970000 0.0018169733 -0.0056521493 -0.0019410970 2.6073469369 -0.7622995617 -9.6094445267
9.980000 0.0016589229 0.0086962446 -0.0059726718 2.5263394052 -0.7723526377 -9.7082547323
9.990000 0.0017007646 0.0124321619 0.0064684332 2.5754553768 -0.7670345049 -9.6961711910
10.000000 0.0201459956 0.0057229203 0.0018786138 2.5276047087 -0.7780505776 -9.6059213990
10.010000 0.0085459131 0.0034996240 -0.0036017385 2.5594356896 -0.8403369077 -9.6634291532
10.020000 -0.0051302226 -0.0003207400 0.0054111073 2.5523789046 -0.7388562027 -9.7130929050
10.030000 -0.0054001949 0.0068368783 -0.0005401828 2.5637924749 -0.8284730940 -9.6458584826
10.040000 0.0054344168 0.0130467528 -0.0020384076 2.5385396370 -0.7614675674 -9.5744816306
10.050000 0.0046844480 0.0166986536 0.0100993681 2.5923532145 -0.7782459103 -9.7423208331
10.060000 0.0192783383 0.0042597853 -0.0057520636 2.5599349654 -0.7732577635 -9.5712539474
10.070000 0.0020439845 0.0029194137 0.0085226327 2.5604657216 -0.8349098924 -9.7420240381
10.080000 -0.0079504717 0.0088137079 -0.0004049655 2.5365976946 -0.7651323425 -9.7649267132
10.090000 0.0145807528 0.0092983148 -0.0043133998 2.4771134047 -0.7418397658 -9.6227558787
10.100000 0.0085004427 -0.0017018777 -0.0056986490 2.5886833855 -0.8341723312 -9.6921071273
10.110000 0.0020599405 0.0101096694 0.0040802498 2.5419361817 -0.7976996704 -9.6475451278
10.120000 0.0073221426 -0.0009031894 0.0007929241 2.6128923794 -0.7241162261 -9.6266612227
10.130000 0.0001386636 0.0113146312 0.0005617422 2.6197201407 -0.7955880666 -9.5666329876
10.140000 -0.0043146959 0.0151448650 0.0082798673 2.5885113237 -0.8053406081 -9.7755116696
10.150000 0.0021785674 0.0146418933 0.0048176502 2.5873356067 -0.7942022701 -9.6010082058
10.160000 0.0056868430 0.0132063366 -0.0074749757 2.5520350454 -0.7903533755 -9.5982448597
10.170000 0.0046854042 0.0226460858 0.0088959254 2.6481510826 -0.7885056869 -9.6587335864
10.180000 -0.0019007000 0.0120855754 0.0060774412 2.6371400903 -0.7841933172 -9.6494739112
10.190000 0.0106115521 0.0047559050 0.0018449010 2.5853062604 -0.7589868712 -9.7240907864
10.200000 0.0013559348 0.0058469297 0.0025167167 2.5372116088 -0.7850902808 -9.7607899700
10.210000 0.0000948922 0.0022108581 -0.0027060218 2.5805452041 -0.8619265378 -9.7229656290
10.220000 0.0070061780 -0.0012887537 0.0062473643 2.6165404482 -0.7259499454 -9.5854125289
10.230000 0.0039177352 0.0011646990 0.0006500361 2.5375285510 -0.8138355691 -9.6396604244
10.240000 -0.0025424580 -0.0014959636 0.0099503893 2.5871010058 -0.8723459799 -9.6761323200
10.250000 0.0055957310 0.0061940446 0.0138164404 2.6245126074 -0.8018440745 -9.6044005645
10.260000 0.0027801486 0.0035719836 0.0052762518 2.5653995261 -0.8394084128 -9.7365369273
10.270000 0.0034252790 -0.0019806031 0.0118776905 2.5930666010 -0.8589228023 -9.6691170534
10.280000 0.0079794456 -0.0008823101 0.0095748972 2.5901520540 -0.8449220780 -9.6375238648
10.290000 -0.0018256568 0.0083818942 0.0011125634 2.5940203677 -0.7525026760 -9.6650411694
10.300000 0.0129192637 0.0115548912 0.0056479918 2.6683840945 -0.8581281098 -9.6686025882
10.310000 -0.0140332649 0.0007386031 -0.0099339922 2.5534810668 -0.8197591620 -9.6362263786
10.320000 -0.0196226478 0.0210002950 -0.0011248327 2.5372572643 -0.8676628286 -9.6688860993
10.330000 -0.0051324836 0.0161853736 -0.0088688598 2.6060317362 -0.8109047050 -9.6381172091
10.340000 -0.0060155298 0.0102496122 0.0006130929 2.5241861638 -0.8376588041 -9.6428254472
10.350000 0.0044992591 0.0081109790 0.0121379296 2.5691503867 -0.8481642532 -9.6588078225
10.360000 -0.0046132746 0.0035979663 -0.0116378286 2.6175957119 -0.7459863485 -9.7008502979
10.370000 0.0126222394 -0.0011969873 -0.0030328416 2.5795514306 -0.8061762058 -9.6886514643
10.380000 0.0084431133 0.0148655265 -0.0066136475 2.6230387063 -0.8196109876 -9.7655365460
10.390000 -0.0082611882 0.0128928548 -0.0114547650 2.6126563440 -0.7391732979 -9.6664451317
10.400000 0.0070835989 0.0085237424 -0.0178047070 2.5914250802 -0.7887901479 -9.7870561464
10.410000 0.0027707399 0.0063687761 0.0029959357 2.6656293536 -0.8001350467 -9.6332746649
10.420000 0.0109708539 0.0030526309 -0.0015252223 2.5805303111 -0.8201914392 -9.6113839349
10.430000 0.0170249430 0.0053920070 0.0019293397 2.6454730002 -0.8122708357 -9.6663819931
10.440000 0.0060034687 -0.0000131435 0.0031979536 2.5943782700 -0.7696482304 -9.6393914208
10.450000 0.0063419373 -0.0008677012 -0.0047892313 2.5912059484 -0.8430811158 -9.7098915552
10.460000 0.0107708364 0.0081499930 -0.0011811213 2.6200557660 -0.7949522990 -9.5086564932
10.470000 -0.0120188692 -0.0013376943 0.0038996088 2.5500787316 -0.7706011641 -9.5928655106
10.480000 0.0085571588 0.0074941632 0.0026379917 2.5554708313 -0.7455594171 -9.7067665598
10.490000 0.0080905003 -0.0064963681 -0.0026117921 2.5789389185 -0.7996671415 -9.7407395837
10.500000 0.0171186102 -0.0080587740 0.0016444703 2.6011991704 -0.8315010339 -9.6015716440
10.510000 0.0064047802 0.0090572346 0.0083606303 2.5747909230 -0.7263607835 -9.6528762368
10.520000 0.0138026440 0.0030383493 0.0023105696 2.5653753882 -0.8008347372 -9.7003742237
10.530000 0.0080597161 0.0116606008 0.0064534552 2.6140012354 -0.7478656610 -9.6556870788
10.540000 -0.0069346112 0.0042336906 0.0069501884 2.6685484403 -0.7799263403 -9.6709344417
10.550000 0.0038320009 0.0063999960 -0.0025297228 2.5542278707 -0.8573102724 -9.7332624184
10.560000 0.0080173822 -0.0085285703 -0.0034254143 2.6061300006 -0.7440295685 -9.6606947767
10.570000 -0.0040793264 0.0023419070 -0.0032207874 2.5589517717 -0.8183705286 -9.7139108407
10.580000 -0.0080013644 0.0064736457 0.0029751130 2.6514080422 -0.8236645922 -9.6268115122
10.590000 -0.0050253733 0.0139432971 -0.0040860687 2.5545607426 -0.8045804815 -9.7015635451
10.600000 0.0087554316 0.0195878326 0.0038117860 2.5938826809 -0.7454988583 -9.6255496682
10.610000 -0.0067182927 0.0120958262 0.0013615913 2.5891884052 -0.7363440018 -9.6303554611
10.620000 0.0145890477 -0.0024118399 -0.0160287256 2.5572981117 -0.7151138145 -9.5821475815
10.630000 -0.0095958412 -0.0027179706 -0.0108624587 2.6150500973 -0.7863758211 -9.7609361160
10.640000 0.0063223833 0.0042797076 -0.0005024237 2.5849072695 -0.7670017316 -9.6615530550
10.650000 -0.0055180360 0.0087071314 -0.0006040553 2.5828789581 -0.8245330149 -9.6607358889
10.660000 0.0146178631 0.0139510236 0.0055703350 2.5820070185 -0.8254531687 -9.6467569798
10.670000 0.0078678128 0.0037998969 -0.0105174957 2.5501845874 -0.7686983543 -9.6441056568
10.680000 0.0143383775 0.0270814099 0.0112918664 2.5790117018 -0.7440663257 -9.6499564134
10.690000 0.0005139936 -0.0116670699 0.0027185259 2.6460169919 -0.8283059797 -9.6915023088
10.700000 -0.0088345157 -0.0113476449 -0.0081470952 2.6328389752 -0.7624855242 -9.6015845074
10.710000 0.0024367374 -0.0036920015 0.0032948127 2.6702270844 -0.8091841247 -9.5953941520
10.720000 0.0049076602 -0.0008009371 0.0080059917 2.6448714904 -0.7457106824 -9.6074745055
10.730000 0.0040298716 0.0051440597 0.0022332633 2.6590097911 -0.7003289751 -9.6204648664
10.740000 0.0082980984 0.0002401673 0.0058572996 2.6378639398 -0.7456301109 -9.7067404263
10.750000 -0.0025560262 0.0070879678 -0.0028825022 2.6038682972 -0.7970829723 -9.7285153322
10.760000 0.0026319612 -0.0024999101 -0.0086953328 2.6525059439 -0.8611353639 -9.7020726445
10.770000 0.0042426281 0.0181885086 -0.0046503264 2.5814289963 -0.8070701842 -9.6681793691
10.780000 -0.0032402644 0.0036070421 0.0033894838 2.6212802927 -0.8065974474 -9.6049609951
10.790000 0.0109246698 0.0092392717 -0.0039622390 2.6456198232 -0.7286322780 -9.6450573277
10.800000 0.0011578588 0.0082838685 -0.0149500408 2.5849388047 -0.7964432944 -9.7560662676
10.810000 -0.0027258413 0.0065185833 0.0018731033 2.5748884663 -0.7641468147 -9.6341884892
10.820000 0.0050666532 -0.0031070489 -0.0037515342 2.6137592085 -0.7506663119 -9.6508258458
10.830000 0.0104521642 0.0059437684 0.0035940469 2.6127831731 -0.7433880314 -9.5582246205
10.840000 -0.0056391886 0.0039827908 -0.0023492696 2.6681421049 -0.8250619008 -9.7815159302
10.850000 -0.0084076843 0.0016266747 -0.0005440786 2.6223256717 -0.7712695069 -9.6247103463
10.860000 0.0038754217 -0.0024044671 -0.0017198872 2.6283071493 -0.7531817519 -9.6301387485
10.870000 0.0061095953 0.0126277573 0.0077357419 2.5721686603 -0.8530210355 -9.7165048366
10.880000 0.0092563498 -0.0010240164 -0.0032582424 2.6736730863 -0.8267475022 -9.6716424746
10.890000 -0.0027225417 0.0014983943 0.0047365613 2.6181746348 -0.8148921287 -9.6577147769
10.900000 0.0077443335 -0.0011059182 0.0079256961 2.5838325830 -0.8085384974 -9.7081121709
10.910000 -0.0062106688 0.0079705639 0.0026975308 2.5566616415 -0.7473341945 -9.6160568474
10.920000 0.0079131541 -0.0057110635 -0.0098845769 2.6638567736 -0.8387356072 -9.7697865558
10.930000 -0.0005561550 0.0133340357 0.0043496224 2.6348906618 -0.8254240126 -9.6215458922
10.940000 -0.0079376719 0.0048098413 0.0115327943 2.6521985836 -0.7925990174 -9.5723046392
10.950000 0.0185518330 0.0035460141 -0.0034879800 2.6281072875 -0.8390964034 -9.6287551800
10.960000 0.0081812751 -0.0021264487 0.0108859070 2.6956731216 -0.7874251585 -9.6205585605
10.970000 -0.0001370471 0.0085255511 0.0078107690 2.6004249061 -0.7879795217 -9.6423155574
10.980000 -0.0001947870 -0.0003417653 0.0158964906 2.5821196510 -0.8026258362 -9.6633859289
10.990000 -0.0153798177 -0.0032098362 -0.0062394884 2.5870487927 -0.8097419601 -9.5803175430
11.000000 -0.0011388080 -0.0013297279 -0.0024352087 2.6482781472 -0.8128099580 -9.6169656543
11.010000 0.0135783547 0.0057273109 -0.0071924922 2.6960414175 -0.8461924617 -9.6049553562
11.020000 0.0071746775 -0.0019041608 -0.0018281378 2.6092899958 -0.8158491402 -9.5727651625
11.030000 0.0068876174 0.0057225028 -0.0142008377 2.6071366894 -0.8129245069 -9.5637724677
11.040000 0.0056135051 -0.0023241266 0.0002588384 2.6689039956 -0.7644446487 -9.6861608211
11.050000 0.0091000990 -0.0085053237 -0.0066553187 2.6435772947 -0.7445559781 -9.6323026655
11.060000 -0.0051679017 0.0008138772 0.0010336831 2.6153420125 -0.8169863074 -9.7293414115
11.070000 0.0079340995 -0.0063563742 0.0070352961 2.6753503404 -0.8489193706 -9.7159445190
11.080000 0.0036460919 -0.0062713148 -0.0137564226 2.7018297805 -0.8444134078 -9.6580659986
11.090000 0.0013287930 0.0021653790 -0.0038240982 2.6311632378 -0.8093867573 -9.6164369256
11.100000 -0.0004953289 -0.0026034091 0.0138704669 2.6523855549 -0.7978639190 -9.5710408514
11.110000 0.0160204002 0.0050054360 -0.0005946755 2.5700374812 -0.8233479146 -9.5921953965
11.120000 -0.0035404030 -0.0027304650 -0.0109332802 2.6094128656 -0.8152856131 -9.6033522165
11.130000 -0.0010135549 0.0031607250 0.0003003700 2.6339924158 -0.8352812058 -9.6018488419
11.140000 -0.0074609030 0.0081118271 -0.0066432330 2.6375343246 -0.8693461021 -9.6125109695
11.150000 0.0122680987 -0.0000573062 -0.0064043636 2.6794294347 -0.8005872164 -9.6706526853
11.160000 0.0127685891 -0.0017466017 -0.0129852756 2.6515494163 -0.8560074663 -9.5783957803
11.170000 0.0005395953 -0.0037540716 0.0019573587 2.6450317094 -0.8177991122 -9.5983087852
11.180000 0.0068411228 0.0081340616 0.0082339654 2.5977277187 -0.7776905708 -9.7065595410
11.190000 0.0007682272 0.0012696873 0.0043014336 2.6554563983 -0.7880201590 -9.6568430182
11.200000 0.0036811748 0.0009842253 0.0053654213 2.6340935027 -0.7737550657 -9.6634069627
11.210000 0.0008758846 -0.0037312847 0.0054996622 2.6263130498 -0.7886853100 -9.6232372747
11.220000 0.0144734471 0.0042929482 0.0033540970 2.5707820714 -0.7833846539 -9.5852646666
11.230000 0.0108360996 0.0037535193 0.0017222561 2.6643896031 -0.7641005169 -9.8122373851
11.240000 -0.0008249330 -0.0047887922 0.0006146358 2.6295685430 -0.7979689848 -9.5459506079
11.250000 0.0031217730 0.0005867597 0.0028050933 2.6931726677 -0.8562520558 -9.7016017413
11.260000 -0.0025754835 0.0043299780 -0.0108713867 2.5458111679 -0.7885986515 -9.6555593109
11.270000 0.0119403528 0.0015586604 0.0063613582 2.5527832892 -0.7596938169 -9.4989051249
11.280000 0.0038341890 0.0072629271 0.0057293028 2.6483834023 -0.8193541625 -9.6799292174
11.290000 0.0170416529 0.0048790626 0.0127744760 2.6863678785 -0.7489723745 -9.6785997946
11.300000 0.0063997214 0.0035835795 -0.0000130046 2.5796022252 -0.7471442618 -9.6394322131
11.310000 0.0027912199 -0.0022169514 -0.0050515538 2.6300829247 -0.8283140937 -9.6304458077
11.320000 0.0027901595 0.0039248807 -0.0010957925 2.6739846090 -0.8304644725 -9.6316726540
11.330000 -0.0003025367 0.0071139977 -0.0098045306 2.6388393257 -0.7497988456 -9.6139797883
11.340000 -0.0026237207 -0.0056319905 -0.0031879147 2.5861359145 -0.7861719942 -9.7977806150
11.350000 0.0134693738 -0.0054409921 -0.0093024404 2.7003904182 -0.8667785149 -9.5619764556
11.360000 0.0062902217 0.0072099947 0.0030710071 2.6804804708 -0.7964050894 -9.7324366776
11.370000 -0.0117136016 0.0024404029 0.0136185981 2.5996971926 -0.7901785097 -9.5829454307
11.380000 -0.0072654211 0.0010063423 0.0042636857 2.6632688793 -0.7206155745 -9.7293804737
11.390000 0.0016721870 0.0109302446 -0.0010412886 2.6857361893 -0.9041098772 -9.6257874385
11.400000 0.0015721633 -0.0077514893 0.0027736389 2.7071939187 -0.9178760422 -9.6585594255
11.410000 0.0101288692 0.0067634746 0.0024053219 2.5962990073 -0.7878161193 -9.6281698559
11.420000 -0.0006489356 0.0111173207 -0.0072873346 2.6403783926 -0.7854331997 -9.7365307380
11.430000 0.0063755616 0.0087189254 0.0013047354 2.7239088884 -0.8735807607 -9.6526682163
11.440000 -0.0116173464 -0.0068652255 0.0023044113 2.6272479933 -0.8098372894 -9.7100272617
11.450000 0.0105700794 0.0066341888 0.0079102726 2.7319128530 -0.8508605371 -9.5422212333
11.460000 0.0050077478 -0.0032956680 0.0023113703 2.6533409922 -0.8193216808 -9.7091970292
11.470000 0.0091917453 0.0111269667 0.0001879266 2.6101223973 -0.8525406632 -9.6693305869
11.480000 -0.0019592871 -0.0102144669 -0.0010285966 2.6489078498 -0.7799849296 -9.5607165516
11.490000 0.0051104266 -0.0056913489 -0.0002019753 2.6349540633 -0.8226077816 -9.6901849598
11.500000 -0.0017343434 -0.0067964084 0.0017802969 2.6991288094 -0.7874283739 -9.5922082881
11.510000 -0.0040425196 0.0086402022 -0.0101058982 2.6498232505 -0.8413237552 -9.6481319614
11.520000 0.0024225048 -0.0041530881 -0.0001010209 2.7231003385 -0.7512496497 -9.6775177337
11.530000 0.0003625811 0.0110683124 0.0012015232 2.6346816887 -0.8345863479 -9.6048212836
11.540000 0.0092245546 0.0102633565 -0.0046475062 2.6192685481 -0.7799684964 -9.6354423224
11.550000 -0.0033155325 -0.0013242774 -0.0119510663 2.5855694513 -0.7972484905 -9.6351366319
11.560000 -0.0100223094 0.0024755116 0.0004486213 2.6093525169 -0.8032041852 -9.5463378233
11.570000 -0.0145819285 -0.0032487556 -0.0046262896 2.6147464024 -0.7902974789 -9.6690735124
11.580000 0.0063136826 -0.0110195196 -0.0048322545 2.6705220156 -0.8702853741 -9.7216038783
11.590000 -0.0020476305 -0.0026727112 0.0079330396 2.6471096348 -0.7381976745 -9.5138963870
11.600000 0.0002639880 0.0020577213 0.0069513957 2.6601600420 -0.7296772262 -9.5860194587
11.610000 0.0116064055 -0.0038064550 0.0029176617 2.5669369242 -0.8325398502 -9.5862726955
11.620000 0.0032036537 0.0080406137 0.0008178291 2.6237109632 -0.6890011722 -9.6945574967
11.630000 -0.0027747030 0.0126745300 0.0162164002 2.6965096133 -0.8032745793 -9.7829914443
11.640000 0.0044331437 0.0061807383 -0.0063820912 2.6131236513 -0.8204259860 -9.6032751275
11.650000 0.0049241910 0.0077041767 0.0042114087 2.6252724223 -0.8517551861 -9.6657674159
11.660000 0.0073626998 0.0121787594 0.0146723569 2.5739090732 -0.7336731708 -9.6292553917
11.670000 0.0010771227 -0.0023558657 0.0034587461 2.6683437644 -0.9215515342 -9.6413740534
11.680000 -0.0041136186 0.0078350292 -0.0077629814 2.6341333501 -0.8531253087 -9.7043381236
11.690000 -0.0050418578 -0.0027944843 0.0093984835 2.6421121650 -0.8218680119 -9.6418888714
11.700000 -0.0071890512 0.0037204741 -0.0005493154 2.6968773670 -0.7836354563 -9.7120179104
11.710000 0.0026976295 0.0107159639 -0.0121536598 2.6758837327 -0.8198597183 -9.5654553336
11.720000 -0.0026252757 0.0161347773 0.0097348251 2.6552545618 -0.8005947944 -9.7450884517
11.730000 -0.0045768918 0.0034679922 0.0014279850 2.6630848932 -0.8160455738 -9.6403079786
11.740000 -0.0053424739 0.0005217102 -0.0059882926 2.6495008526 -0.7907097848 -9.5850038665
11.750000 -0.0085477514 -0.0015594451 0.0009758176 2.6682979281 -0.8413685203 -9.5995423497
11.760000 -0.0007044965 -0.0059987482 0.0022110792 2.6670660226 -0.8656515412 -9.6843655791
11.770000 0.0060783849 0.0005416869 -0.0094860745 2.5798007776 -0.8831824932 -9.6230273067
11.780000 -0.0063052282 0.0070178987 0.0017588113 2.6245512353 -0.8232793032 -9.7164777509
11.790000 -0.0015046246 0.0029144431 0.0068943691 2.6826067583 -0.8477249070 -9.6095687395
11.800000 0.0037144293 0.0025473468 -0.0034836268 2.5875682822 -0.8513527553 -9.6128646085
11.810000 -0.0059301355 0.0044933513 -0.0045893576 2.6950030749 -0.7587706092 -9.5797292695
11.820000 -0.0011462980 -0.0014629589 -0.0049263432 2.6315372281 -0.8235784251 -9.6449555858
11.830000 0.0065745408 0.0049958257 -0.0128325819 2.6408305456 -0.8498817522 -9.6591897036
11.840000 -0.0019629052 0.0041603394 -0.0075615640 2.6644782821 -0.8646863246 -9.6547545338
11.850000 -0.0123242613 0.0057736784 -0.0017699139 2.6635627268 -0.8358558311 -9.6325295303
11.860000 -0.0038190249 0.0002467224 0.0055832290 2.6462608712 -0.8018471300 -9.7407054401
11.870000 0.0091625178 0.0089654170 -0.0155046686 2.6715899831 -0.8180393577 -9.6733808257
11.880000 0.0031087773 0.0029791240 -0.0017542141 2.6071512613 -0.8084533427 -9.6007637172
11.890000 -0.0064713426 -0.0012789052 0.0052803365 2.5576770827 -0.8572069291 -9.6324883084
11.900000 0.0045454427 0.0018406289 0.0016076969 2.6805722170 -0.8327970069 -9.6567742909
11.910000 0.0011665123 0.0039150610 0.0022195728 2.6478789450 -0.8105196167 -9.6885955200
11.920000 -0.0004525526 -0.0006127857 0.0085490617 2.7085648363 -0.8017376273 -9.6699913960
11.930000 -0.0018261556 0.0088081690 0.0150780040 2.6045814097 -0.7999258449 -9.5842400640
11.940000 0.0008750875 -0.0038190405 0.0147884023 2.6472394460 -0.8133935088 -9.7217291326
11.950000 -0.0179071509 -0.0054626621 -0.0023488934 2.6398660228 -0.8159524107 -9.6635007263
11.960000 -0.0049770422 0.0130893001 -0.0093658958 2.6926688745 -0.8402457291 -9.6744754073
11.970000 -0.0087868405 0.0084700562 0.0012686500 2.6557419839 -0.7660816843 -9.5653053242
11.980000 0.0040684317 0.0033825415 -0.0045123874 2.6904109569 -0.7780055484 -9.6490989605
11.990000 -0.0052359653 0.0085835244 -0.0079585852 2.6550060250 -0.8957756535 -9.5801837748
12.000000 0.0022947078 -0.0050143652 0.0025840839 2.6752177136 -0.7594833784 -9.6411301962
12.010000 0.0189271720 -0.0016754049 0.0018816140 2.6030752841 -0.8417868228 -9.6117385458
12.020000 -0.0113402879 -0.0000572067 0.0065686829 2.7261210771 -0.8591368026 -9.6236777427
12.030000 0.0017160533 0.0010433516 -0.0021762225 2.7603611378 -0.8530866253 -9.7001637070
12.040000 -0.0026133315 0.0146000705 -0.0012028050 2.5834355061 -0.8058740180 -9.7138015914
12.050000 0.0084201800 -0.0090594526 0.0038575610 2.7264460345 -0.8851181445 -9.6466902975
12.060000 -0.0007405441 0.0059565558 0.0017874829 2.6282923741 -0.8195309555 -9.6591835150
12.070000 -0.0049064705 0.0093742131 0.0058439900 2.6984261261 -0.7665304663 -9.6311851942
12.080000 0.0044718916 0.0048091205 -0.0039311637 2.6766472366 -0.8747451780 -9.6731390523
12.090000 0.0030225380 -0.0112044730 0.0135291061 2.6645594880 -0.8460126201 -9.5535590064
12.100000 -0.0005975910 0.0098621932 -0.0007677633 2.6882651739 -0.7924892798 -9.5707663772
12.110000 0.0081846259 0.0007024290 -0.0031532559 2.6505236005 -0.8513879841 -9.7237849383
12.120000 0.0040850778 0.0012012552 0.0095568136 2.6616477946 -0.8097484301 -9.5930982779
12.130000 -0.0023343414 0.0038372389 0.0102892489 2.7200548951 -0.8342807388 -9.6139315849
12.140000 -0.0108276949 0.0050876811 -0.0036930511 2.6623992493 -0.7392116539 -9.6595223195
12.150000 0.0117746998 0.0077936451 0.0055507699 2.6552895102 -0.7724460981 -9.7145786133
12.160000 -0.0046050581 0.0083465407 -0.0041198745 2.7483161319 -0.7460032209 -9.6896490265
12.170000 -0.0022899544 -0.0031531413 -0.0009819183 2.6778812658 -0.8472615524 -9.5917338240
12.180000 -0.0022244767 -0.0059333968 -0.0005294514 2.6412293956 -0.8715210972 -9.7292154948
12.190000 0.0015141918 -0.0049135412 -0.0054776662 2.6744441254 -0.7771781913 -9.6467052153
12.200000 0.0013140325 0.0025429991 -0.0010245919 2.6386272734 -0.7526963219 -9.6513532808
12.210000 0.0092371434 0.0075668940 0.0134286923 2.6861240322 -0.8239582206 -9.7840358708
12.220000 -0.0022838745 0.0030531687 0.0046192622 2.6360529420 -0.8448125248 -9.5895017312
12.230000 -0.0082560196 -0.0004875028 0.0215468635 2.6787200400 -0.8704600421 -9.6024019866
12.240000 0.0008495583 -0.0106499256 0.0089211218 2.6650943394 -0.8844369229 -9.5957128937
12.250000 0.0002310847 0.0151136375 0.0009559859 2.6721695047 -0.8273390017 -9.6733267681
12.260000 -0.0012717268 -0.0000126898 0.0095630943 2.6902420043 -0.7309197236 -9.5287924915
12.270000 -0.0073826409 0.0006714813 -0.0005789526 2.7004111928 -0.8514074021 -9.6856050504
12.280000 0.0069241641 0.0060044459 0.0008863123 2.6848710505 -0.8662749299 -9.5431268736
12.290000 -0.0015513623 -0.0085565506 0.0086286329 2.6562558550 -0.8307277414 -9.6184642806
12.300000 0.0118946723 -0.0105145922 -0.0038886816 2.6822790433 -0.8435117814 -9.5445220710
12.310000 0.0089655949 0.0128871139 -0.0053167309 2.6848970254 -0.8000172302 -9.6715954926
12.320000 -0.0057733086 0.0069022540 -0.0009121306 2.6869604764 -0.8845618862 -9.4687654751
12.330000 0.0009921093 0.0118140899 -0.0026753588 2.6647064115 -0.7800712902 -9.7149561641
12.340000 -0.0024354214 0.0021330397 -0.0096350014 2.6468033090 -0.8451699809 -9.7052221563
12.350000 0.0015254256 0.0026190195 -0.0008285075 2.6552543551 -0.8335042416 -9.7270637886
12.360000 0.0024056850 0.0051529639 -0.0082135836 2.6805055040 -0.8120856329 -9.7880047939
12.370000 -0.0033293395 0.0028180378 0.0093897028 2.7302096776 -0.7812166793 -9.7247777032
12.380000 0.0078786961 0.0002486947 0.0037434543 2.6707754310 -0.8186692626 -9.5971488768
12.390000 -0.0044173618 0.0000509817 -0.0026029163 2.6790071418 -0.8824290234 -9.7114803549
12.400000 -0.0099551720 -0.0038958494 0.0070227192 2.6779345873 -0.8342397314 -9.4189466403
12.410000 0.0011280417 0.0088426608 0.0050135204 2.6210621112 -0.8135795498 -9.6519686120
12.420000 0.0068948998 -0.0044642095 -0.0066548184 2.6468377612 -0.8432401401 -9.6592539030
12.430000 0.0086267776 0.0106222027 -0.0020334005 2.6490233534 -0.8084705487 -9.6677160182
12.440000 -0.0048011607 -0.0026640518 -0.0036447660 2.6455439031 -0.8511810704 -9.6555782432
12.450000 -0.0119154314 0.0075617157 -0.0060313503 2.7253808201 -0.8996074038 -9.6522933661
12.460000 -0.0006897481 0.0067149525 0.0161687731 2.6974439105 -0.7895299995 -9.5836663538
12.470000 -0.0045940237 0.0060913829 -0.0029931892 2.7226846162 -0.7968446239 -9.5202637684
12.480000 0.0089264563 -0.0016822448 -0.0179732637 2.6524858151 -0.8101717341 -9.6214070199
12.490000 0.0047998890 0.0056412231 0.0063485987 2.7465585968 -0.7574902663 -9.6161883140
12.500000 0.0097899536 0.0119309235 -0.0012399328 2.6729722904 -0.8852851930 -9.6347372123
12.510000 0.0127574704 -0.0078075381 -0.0030974013 2.6454279015 -0.8112292399 -9.6213943673
12.520000 0.0055881398 0.0029916835 -0.0095192944 2.6801729108 -0.8484365107 -9.6417588666
12.530000 0.0125076594 0.0126539282 -0.0053398241 2.6939333809 -0.8873774464 -9.5992690994
12.540000 0.0018954019 -0.0062472669 0.0054603042 2.7037303305 -0.8567695041 -9.6373060598
12.550000 0.0010103585 0.0024692759 -0.0060551373 2.6604506999 -0.8564095437 -9.6742978015
12.560000 0.0017132516 0.0049922681 0.0174986532 2.6643160529 -0.7832786290 -9.5855399596
12.570000 -0.0040117973 -0.0039309484 0.0113239743 2.6707404211 -0.8090353299 -9.5511072602
12.580000 0.0087001451 0.0024452396 -0.0035847506 2.6479127495 -0.8230366865 -9.5886886601
12.590000 -0.0090727412 0.0054158275 0.0062052487 2.6551102214 -0.8014266705 -9.6631082530
12.600000 -0.0089915449 0.0012270680 0.0073437184 2.6881281469 -0.8480791648 -9.6960214351
12.610000 -0.0041276252 0.0036450155 0.0066937661 2.6452978857 -0.7870501921 -9.6679506232
12.620000 -0.0051057353 0.0009642890 0.0021370736 2.7166996843 -0.8456076978 -9.7651365726
12.630000 0.0054440307 -0.0009056310 0.0013248329 2.7042213689 -0.8628651487 -9.5961382882
12.640000 -0.0020880518 0.0120849841 -0.0149710308 2.6568178720 -0.8156742325 -9.4880894088
12.650000 -0.0130867339 -0.0011484898 -0.0007744815 2.6779399935 -0.8719279878 -9.5618601234
12.660000 0.0016456873 -0.0018640517 -0.0149290491 2.6474695770 -0.8430678805 -9.5665904123
12.670000 -0.0067336427 0.0018477959 0.0028661700 2.6454202872 -0.7912912314 -9.6993016210
12.680000 -0.0044630581 -0.0036293561 -0.0106787405 2.6791781941 -0.8153620849 -9.6053936935
12.690000 -0.0046129988 -0.0055333374 -0.0027167390 2.6794563354 -0.8650233658 -9.5026818326
12.700000 -0.0010923767 0.0040778515 -0.0040101232 2.6908447512 -0.7626570919 -9.6756164304
12.710000 0.0135930020 -0.0031830872 0.0088258197 2.6226754374 -0.8524447671 -9.5782869849
12.720000 0.0033560100 0.0011056162 -0.0034958873 2.6568370411 -0.8331803035 -9.6755552373
12.730000 -0.0024996682 0.0040066123 0.0043426549 2.6475228883 -0.8010319820 -9.6411562885
12.740000 -0.0048213639 0.0050492565 0.0026491601 2.6762801422 -0.8092557365 -9.6754532448
12.750000 0.0121733528 0.0040908962 -0.0051577978 2.7198046957 -0.7806034279 -9.5612359167
12.760000 -0.0137286741 0.0051901304 0.0039511302 2.7096725352 -0.8255751179 -9.6129167384
12.770000 0.0081490253 0.0024850019 -0.0063759360 2.6368993049 -0.8117958084 -9.7234885116
12.780000 -0.0053466917 -0.0078080324 0.0132107042 2.6159726083 -0.8330872252 -9.6887013286
12.790000 -0.0024242376 0.0016043385 0.0061800049 2.6492693555 -0.8699376674 -9.4905848932
12.800000 0.0087933630 -0.0075603978 0.0077038729 2.6372369112 -0.8521757069 -9.6313931418
12.810000 0.0157787740 -0.0065465143 -0.0026912239 2.6527286043 -0.7750892899 -9.6669721701
12.820000 -0.0042236757 0.0044463586 0.0113154560 2.6956525020 -0.8380100816 -9.6105227214
12.830000 -0.0050962275 0.0070015059 0.0005977496 2.6643306524 -0.8948126358 -9.7373540360
12.840000 0.0063274432 -0.0023071043 0.0067698775 2.6361604864 -0.8086797135 -9.7119429157
12.850000 -0.0070406105 0.0005456191 -0.0044689129 2.6329403704 -0.8044749787 -9.6479305919
12.860000 -0.0063563298 0.0036970076 0.0044683963 2.6873023259 -0.8035591922 -9.6454259525
12.870000 0.0069345826 -0.0092205661 -0.0096708132 2.6244723802 -0.8653654144 -9.6722501602
12.880000 -0.0037607442 -0.0046327729 0.0058491507 2.6571443971 -0.9330147503 -9.6204479526
12.890000 0.0078403031 -0.0012103493 -0.0022885009 2.6760402401 -0.8786441054 -9.6260368357
12.900000 0.0025018645 0.0022003532 -0.0021504802 2.7168712849 -0.8726889218 -9.7046455208
12.910000 0.0003979863 -0.0009210094 -0.0071664348 2.6800055939 -0.7990810038 -9.5848809790
12.920000 -0.0003079706 0.0030252982 0.0012767044 2.6405298133 -0.8599122660 -9.6408840223
12.930000 0.0012713362 -0.0009292330 -0.0089753275 2.7026488953 -0.7949715522 -9.6577453785
12.940000 0.0040522789 -0.0083666254 0.0109496682 2.7210246758 -0.7404063852 -9.5671477848
12.950000 -0.0032692992 -0.0078154380 -0.0072328358 2.6775284278 -0.7989284676 -9.6445206065
12.960000 0.0172682355 0.0073502520 0.0023367287 2.6870841310 -0.8454869963 -9.6117814140
12.970000 -0.0009500546 -0.0071536680 -0.0003437204 2.6854817316 -0.9190828797 -9.4940577641
12.980000 -0.0113687315 0.0179538397 0.0007637031 2.7121339986 -0.8816410183 -9.5309152188
12.990000 0.0108663564 0.0032894558 0.0048380918 2.7178637822 -0.7933870262 -9.6001408797
13.000000 -0.0066875577 0.0012094252 0.0065439827 2.7181927455 0.2902190329 -8.5303438073
13.010000 -0.0151551398 0.0005505591 0.0088410078 2.6351231759 0.2683293511 -8.6736324886
13.020000 -0.0135936451 0.0005012343 0.0088965950 2.6427139523 0.2881239191 -8.7737233788
13.030000 -0.0058662414 0.0177920088 0.0215565426 2.6284989520 0.3694600098 -8.8151616130
13.040000 -0.0253793687 0.0201213150 0.0079079158 2.6961527272 0.3497862015 -8.7962537307
13.050000 -0.0297827525 0.0183476161 0.0286801349 2.7488757128 0.4454402972 -8.5733698926
13.060000 -0.0364280833 0.0300170873 0.0380022383 2.6693711950 0.4123280775 -8.7677293614
13.070000 -0.0387192205 0.0327807327 0.0375783857 2.6610824298 0.5040986833 -8.9033821458
13.080000 -0.0637856975 0.0344570989 0.0410564362 2.6907633975 0.5112536534 -8.9267944341
13.090000 -0.0483404801 0.0261824048 0.0419184692 2.7004792302 0.5212202332 -8.9882561227
13.100000 -0.0683782692 0.0216456985 0.0506139386 2.7043803458 0.6262583815 -8.9488289669
13.110000 -0.0740297293 0.0401547997 0.0607928523 2.7640276050 0.6687914098 -8.9527033018
13.120000 -0.0748781098 0.0359663417 0.0641798430 2.6959258641 0.6852551204 -8.9400969948
13.130000 -0.0858094739 0.0276216806 0.0508765134 2.7126410954 0.6946603849 -9.0222786694
13.140000 -0.0789977970 0.0226941271 0.0737011377 2.6739200656 0.9073955809 -9.0669009153
13.150000 -0.0987381118 0.0486767869 0.0755038139 2.6991984370 0.9219035610 -9.0460444996
13.160000 -0.0971194373 0.0418851055 0.0847936002 2.6630058960 0.9679223760 -9.0422700238
13.170000 -0.1074427384 0.0420383942 0.0892237090 2.6781800534 0.9823542529 -9.0059898835
13.180000 -0.1024092272 0.0500513993 0.0870941870 2.7075631590 1.0018632098 -9.0320211080
13.190000 -0.0987856608 0.0466948673 0.0840611303 2.7437095496 1.0352703364 -8.9288147649
13.200000 -0.1133949692 0.0694426908 0.0935966593 2.6949103314 1.1042851295 -9.0250381303
13.210000 -0.1222798672 0.0482738815 0.1041987119 2.7249301738 1.1646501814 -9.1060676296
13.220000 -0.1267341767 0.0442783206 0.1056525544 2.6559847072 1.2452932961 -9.0134189692
13.230000 -0.1188494234 0.0441894123 0.1079009425 2.7114752078 1.2697443023 -8.9596525846
13.240000 -0.1393135502 0.0520581001 0.1236890726 2.7057008341 1.3056486556 -9.1407379679
13.250000 -0.1366661584 0.0329870227 0.1270016585 2.6900172737 1.3990636002 -9.1148402199
