accel_x (m/s^2),accel_y (m/s^2),accel_z (m/s^2)
1.000079241638026417e+00,2.075217967676450115e-03,-9.789210508399801114e+00
1.893847299350172930e+00,4.476568412704793297e-03,-9.788864045291823857e+00
2.706579323925191183e+00,-1.556398204144308678e-04,-9.801934684781123508e+00
3.437481558240298440e+00,-4.369664301831257570e-03,-9.797985488946972410e+00
4.095313402983999929e+00,3.478238912898000065e-03,-9.790721154642685775e+00
4.689358639592353661e+00,-6.718497006691207842e-04,-9.794521079222338500e+00
5.221206690109311488e+00,-1.095539442153970529e-03,-9.798934596719094614e+00
5.698515361005046742e+00,5.890863505429358611e-03,-9.793971363594351942e+00
6.132257120365863123e+00,-1.079631464614936535e-03,-9.790507708701792211e+00
6.511540457461281406e+00,-2.940765964686695242e-03,-9.784438215289778640e+00
6.860993773294099540e+00,-6.401843245449561660e-03,-9.803504816051699322e+00
7.173858169085898240e+00,3.395366631087574048e-03,-9.802790206585457966e+00
7.455174226351735989e+00,-7.645967190952925388e-03,-9.792395083723350879e+00
7.716309227089634959e+00,-6.782380525180333863e-04,-9.791100155623793100e+00
7.946724436848344730e+00,1.624818412846271588e-03,-9.807258567616861100e+00
8.139382284021660752e+00,1.166562771849335121e-02,-9.796187167253131989e+00
8.327694791135526131e+00,-2.871681939668374421e-03,-9.781975162635152543e+00
8.492465398265155230e+00,-7.356304457906535747e-03,-9.791088816872182576e+00
8.638813155040065084e+00,-4.714948782241290028e-03,-9.788582011382914061e+00
8.786361494183488219e+00,5.350476396443166333e-03,-9.787669038615389283e+00
8.899832119551737364e+00,-4.034286280656104035e-03,-9.789195180943160324e+00
9.021507154850471721e+00,9.863736470146534235e-03,-9.784243836664456850e+00
9.112539730017854112e+00,5.059491817694731532e-03,-9.784942667874345190e+00
9.203435854502403757e+00,-7.722569171122032651e-03,-9.798452248105087747e+00
9.282601328029084442e+00,-4.549693556789022493e-03,-9.783285508832765487e+00
9.353162864640649943e+00,2.905288526821239638e-03,-9.793753616106199544e+00
9.418453746921919389e+00,2.196843376958839116e-03,-9.781580176865084297e+00
9.477849530870303241e+00,-6.464925322566345001e-03,-9.804324185368074041e+00
9.514033555673776732e+00,-1.593939716638915474e-03,-9.798196558584656657e+00
9.578607781615113836e+00,5.842408671514723491e-03,-9.785271284661030577e+00
9.614479225620019776e+00,-6.881213972535943010e-03,-9.790509677755922624e+00
9.668204676250690355e+00,5.258754476638452698e-03,-9.803166930474306540e+00
9.699770411206058540e+00,-1.877534922859212373e-03,-9.793745832341084423e+00
9.726929145733656412e+00,7.314976834747827445e-04,-9.789560239640666239e+00
9.750500833568660042e+00,2.898967369241529837e-04,-9.791667678685627152e+00
9.776398114549321505e+00,1.195880757231136812e-03,-9.778823474339013444e+00
9.801122468065759819e+00,-6.675695414461807475e-03,-9.806515174169463833e+00
9.820283166695285004e+00,1.754773802873991519e-03,-9.777563426853214779e+00
9.840562071925102572e+00,4.027791562340210171e-03,-9.796507466634238881e+00
9.850768731924945953e+00,-4.486738504700235261e-03,-9.798507370295819641e+00
9.870682953751153121e+00,-3.696507319675306977e-03,-9.783623285850536533e+00
9.875149245533034303e+00,-3.426504591445058974e-04,-9.793833828718462087e+00
9.889598832094817382e+00,5.162603996656749518e-04,-9.804889734234695453e+00
9.899937436888436082e+00,1.484776295134360678e-02,-9.775529392635016634e+00
9.905593413209471620e+00,3.483270434615610544e-03,-9.781542136628251782e+00
9.912025040776235585e+00,3.041159954052894288e-03,-9.800359683861207927e+00
9.931652042443738893e+00,-6.422939255408613435e-03,-9.796243547712215616e+00
9.943762298067927219e+00,-6.987529085168887703e-03,-9.805420533789643400e+00
9.943487141690523501e+00,-2.806056093955432325e-03,-9.809798866884499091e+00
9.939837685115161747e+00,3.614530275809748949e-05,-9.790466985562503055e+00
9.956612801838293336e+00,-2.273020845985761641e-03,-9.783105226732953241e+00
9.961649697729924924e+00,1.342792190374000189e-03,-9.804193065489380743e+00
9.956785188334473347e+00,7.902508445074642868e-03,-9.790292146978929466e+00
9.968099744156903697e+00,-4.776648851039983802e-03,-9.799927615249467650e+00
9.960248549271616625e+00,-9.335825613659892502e-04,-9.792008109418281592e+00
9.972375953787675940e+00,4.687872064254350150e-03,-9.804851267370256807e+00
9.971744737317385088e+00,-1.724466718091959829e-03,-9.779766006590167038e+00
9.982744280279767679e+00,-5.404669651144830729e-03,-9.786593366230023960e+00
9.976852228698703584e+00,6.428529473784277319e-04,-9.800040322754494326e+00
9.984618003334126968e+00,1.115372995138778564e-03,-9.793367557333178652e+00
9.980104053482225623e+00,-6.358545467169393617e-03,-9.803163939271904326e+00
9.972793252728511249e+00,3.642148831215926818e-03,-9.785893573206964291e+00
9.990298393187991621e+00,2.162236132816441111e-03,-9.795263738282118382e+00
9.985030886194492084e+00,2.034271028219706342e-03,-9.792669802169243098e+00
9.992351245445975749e+00,6.833791559479903896e-03,-9.798222911708812433e+00
9.988565561458027986e+00,-8.808665612989567337e-03,-9.783352226057859369e+00
9.991861574708071458e+00,1.111436761661370801e-02,-9.818147131203483369e+00
9.990349502037290108e+00,6.101444410999625097e-03,-9.805451625296438323e+00
9.999264167223071098e+00,1.845382956702791544e-04,-9.793328690388008795e+00
9.996039777046467734e+00,2.460739796953082502e-03,-9.797662418244312832e+00
9.996247799048841642e+00,-1.930464502684967851e-05,-9.790987178062257712e+00
9.996495397913836456e+00,7.036948410897134361e-03,-9.795411604147563622e+00
9.990023407577085734e+00,2.021086089246543378e-03,-9.790449727545642133e+00
9.996778845720282192e+00,-1.821030683769941927e-02,-9.792099978110440972e+00
9.999460733504603738e+00,4.327519995023359871e-03,-9.805202613866415007e+00
9.997042704141271940e+00,-3.771977084756964176e-03,-9.787920370425053918e+00
1.000316900931278141e+01,-2.717258477572220225e-03,-9.786463343894128641e+00
9.995589087769081615e+00,6.806641582546130685e-03,-9.803694685833592715e+00
9.992280813797476569e+00,2.219186084893605328e-03,-9.800463739062553969e+00
9.994136507224796517e+00,3.968442210742034043e-03,-9.797930786940600711e+00
1.000330643210982551e+01,9.191838521122742967e-03,-9.787944975057399688e+00
9.995152578949623390e+00,-8.767829029639132715e-03,-9.787275865411274367e+00
9.994383670375325934e+00,-2.208684667784778901e-04,-9.794170065015892490e+00
9.995064901808213165e+00,-1.281658245302880542e-02,-9.775234050287634702e+00
1.000183499533617137e+01,4.000129547903864477e-03,-9.803151994278918480e+00
9.995983815163281605e+00,4.694851121321445830e-03,-9.813001426457173437e+00
9.994001022932609501e+00,7.469085593909591302e-04,-9.791663535014313524e+00
1.000310036255543444e+01,-7.777963099240133189e-03,-9.801856321684228490e+00
1.000379791581739575e+01,-6.632507835010328402e-03,-9.799060357631788065e+00
1.000224566177649344e+01,1.509516512518458255e-03,-9.801083517545787771e+00
9.987899392991044678e+00,3.891282886115248699e-03,-9.808922358257007090e+00
9.990839185288118429e+00,-7.017127477601639400e-03,-9.783218364299017367e+00
1.001054232487843976e+01,-1.319063538855233314e-03,-9.796470345511396616e+00
9.994748900373741307e+00,-2.063499444847600051e-03,-9.801628812950678338e+00
9.999086581295179244e+00,-3.816202027938469989e-03,-9.795212906793674179e+00
9.995788580211909746e+00,3.397175794425216474e-05,-9.795276269452735107e+00
9.998175492510135598e+00,4.324275095910459082e-03,-9.808092506413618850e+00
1.000177872273458135e+01,-1.620869333479088570e-03,-9.778832361422598041e+00
1.000130639609866456e+01,2.094568409154707288e-03,-9.796209542536205461e+00
9.997982203628609454e+00,-2.213878603044852622e-03,-9.807482780161432601e+00
1.000838827995698388e+01,-4.767660896134045395e-03,-9.793714046577861154e+00
1.000011355964898918e+01,-1.104127222577748479e-02,-9.809045966622017332e+00
1.000399651607413531e+01,-7.307842807342833152e-04,-9.792637064251605850e+00
1.000828179382992644e+01,-1.054691948042695872e-02,-9.791332032182404888e+00
9.998218541347764443e+00,1.212891505994359272e-03,-9.791574783682730043e+00
1.000250788242085065e+01,-1.587244683966869928e-03,-9.788744848738719639e+00
1.000478569455876610e+01,-6.149519327233245701e-03,-9.781114539976945466e+00
9.996028539505115162e+00,7.734338051971760553e-03,-9.795252972572367156e+00
9.991929403257605813e+00,-3.374886472530739916e-03,-9.792819171405866996e+00
1.000491841737042442e+01,1.170722758723726116e-02,-9.795272315806444752e+00
9.999247926377353934e+00,-7.916849074010096554e-04,-9.784435455198893905e+00
1.000052311315954867e+01,-4.331199028224399367e-03,-9.800305682453267053e+00
9.999002222214263824e+00,3.816148203373237197e-03,-9.793893335682241741e+00
9.997215223268083761e+00,-1.701617932303438113e-03,-9.776655259542891940e+00
1.000598525633925284e+01,3.507222218369928420e-03,-9.786071240193257026e+00
9.994323123271326992e+00,3.441655689365431987e-03,-9.787526452913240860e+00
1.000018795803684490e+01,-5.759081948398145703e-03,-9.780104400862432712e+00
1.000204142432355603e+01,-8.355754913081140170e-03,-9.777702711790889012e+00
9.993197067104057751e+00,-5.842062878976509062e-04,-9.800057014500202612e+00
9.995994632819170889e+00,-3.103156242739372149e-03,-9.795794366134758846e+00
9.995165270999375906e+00,5.004556265472551342e-03,-9.801197038177480891e+00
1.000898685527725007e+01,-6.269651535061363488e-03,-9.801604871681004028e+00
1.000230240519930369e+01,4.103263656432962030e-03,-9.798749904773094599e+00
9.999909295169659984e+00,-7.526173006965166876e-03,-9.803695277657020313e+00
9.998042317428938119e+00,3.158672656184980439e-03,-9.787248999805704841e+00
1.000138131918676088e+01,4.288837713296448154e-03,-9.795960342680897881e+00
1.000762776428819301e+01,-7.421211995476705015e-03,-9.796856319922564893e+00
1.000259771677471399e+01,5.517127130485876586e-03,-9.811482031976408891e+00
1.000445564962746658e+01,1.201147453803988636e-02,-9.794734915076894310e+00
1.000608153181596371e+01,1.977201984461242606e-03,-9.790557420197462335e+00
9.994131688894803744e+00,-7.736921326663944928e-03,-9.789872845086021513e+00
1.000172143582891771e+01,-3.807678352445870336e-03,-9.801395556828378375e+00
9.989114141942399883e+00,-1.799460393501298074e-03,-9.789476086180426861e+00
1.000591320544234542e+01,3.644518371266299191e-03,-9.789493307723095228e+00
1.000134825489772084e+01,3.519778552931703886e-04,-9.796840763504258476e+00
9.997050259939065597e+00,2.077126350869855028e-04,-9.793367710471567733e+00
9.996395308963720083e+00,-5.873897036384343774e-03,-9.784552972897438750e+00
1.000468294656546675e+01,-4.642305432625629114e-03,-9.808735505185047998e+00
9.995929480537517620e+00,4.893395413630778970e-03,-9.784399905557064514e+00
1.000086426899995473e+01,8.814292805608282821e-03,-9.808684450012334466e+00
9.992909563467131662e+00,2.028614009400423347e-03,-9.776481170876664351e+00
1.000105308818386796e+01,-1.638829343827187708e-03,-9.787132218225401914e+00
1.000206490776183088e+01,1.478384923081009104e-03,-9.790919801855435978e+00
1.000246554824168221e+01,7.817829515583116012e-04,-9.812149670784506839e+00
9.993452305461314467e+00,-2.956348144141659681e-03,-9.806137227600332906e+00
1.000465840345500901e+01,-3.100978161944522573e-04,-9.788121517527111237e+00
1.000334488033212388e+01,3.595897937180932927e-03,-9.794362955605230070e+00
1.000306898279866097e+01,2.488674379895665454e-03,-9.780683502163084242e+00
9.999106045753665128e+00,4.322929844350417369e-03,-9.800786758854629355e+00
9.994518351122938071e+00,1.540852357432764700e-03,-9.791913231351571767e+00
1.000152484222892113e+01,-4.770085116093533088e-04,-9.795316742974895519e+00
9.999508089846800729e+00,9.261379733286268651e-03,-9.786653694384408908e+00
1.000925597312052595e+01,6.379992435922965388e-03,-9.789736232382736603e+00
1.000010853108807751e+01,4.820405124469447598e-03,-9.782890788288476358e+00
1.000368518508632931e+01,2.489636315581577296e-03,-9.791231537282708786e+00
9.998168016829652061e+00,-1.867128296286618683e-04,-9.783454312524320073e+00
1.000564557926979070e+01,-3.146472745557702799e-03,-9.783594422206896013e+00
1.000009367117440995e+01,-5.010105123000903674e-03,-9.789892764631325406e+00
1.000000493471019603e+01,7.987694275673918199e-04,-9.799379420642441829e+00
9.994810472843102644e+00,-1.800026722278147808e-03,-9.808167563007147649e+00
1.000408472370977364e+01,-3.362846118226449094e-04,-9.795954196205135744e+00
9.996068985819714925e+00,-1.946931203293179652e-03,-9.796505124207291360e+00
9.997414200207240143e+00,-1.230490216317623852e-03,-9.789975370641771590e+00
9.996441818868110119e+00,-8.225168515854669894e-04,-9.794621622242194903e+00
9.999314734076005351e+00,4.583187171100659208e-04,-9.783182969474081503e+00
9.992915321368826653e+00,9.696049046485688550e-03,-9.792966547511470665e+00
1.000397798531304439e+01,7.069790965877194473e-03,-9.791681022672495516e+00
9.997485959140810508e+00,3.001915875913076844e-03,-9.800179193198449212e+00
1.001190860427394824e+01,-1.645691666011269046e-03,-9.796907926369010866e+00
1.000531111880764179e+01,-5.846336539431629294e-03,-9.797668700234961392e+00
1.000199953644562711e+01,-3.894642974407523228e-03,-9.795461193100045705e+00
9.998992061127429665e+00,-6.906034136433540811e-03,-9.803645508877723458e+00
9.992841776381089502e+00,-2.908031456779881004e-03,-9.812103564455485483e+00
9.996299461366616512e+00,-1.591092435565450791e-03,-9.807027337726953675e+00
9.999220740141865349e+00,-1.817446216272242641e-03,-9.800802944374531478e+00
9.999582907886145122e+00,6.634761235971830921e-03,-9.803942198603117220e+00
9.993019507356132536e+00,9.044399497418792629e-04,-9.790061143754606121e+00
9.999305366517340588e+00,-6.602602754892146139e-03,-9.792629452436584003e+00
9.998971434835434380e+00,2.754242895726828275e-03,-9.793005954874940855e+00
9.999717440952245795e+00,-3.689070584080648453e-03,-9.790462260690013352e+00
1.000110877374086193e+01,6.214742405786901139e-03,-9.794023267792598020e+00
1.000164918657152491e+01,-7.106106604192533732e-03,-9.799497297848768440e+00
9.997927252943069831e+00,-3.146266948604936782e-03,-9.799736837535483858e+00
9.998484468761063226e+00,4.732871453132037574e-03,-9.808067095713926875e+00
9.994100165997226171e+00,1.033475865505081512e-02,-9.784373358459259151e+00
9.999139034264171499e+00,7.140831537973949504e-03,-9.795688463973521110e+00
1.000260599995749722e+01,-6.549100780843497907e-03,-9.806900581762228342e+00
1.000391387390441444e+01,-3.082165536588164518e-03,-9.775868518353307834e+00
1.001477360828145358e+01,-1.548648527532335648e-03,-9.799540677013171219e+00
9.994958358614050908e+00,9.347232749972062341e-03,-9.808389894832162170e+00
9.994743237825526094e+00,-2.913469852920672152e-03,-9.794584624616753388e+00
9.996500831849038704e+00,1.112008802732438947e-03,-9.798168233170583719e+00
9.995796537730546660e+00,-4.759302926472929601e-03,-9.786774516812432267e+00
1.000906218089384758e+01,2.883748133386859064e-03,-9.800693806879150927e+00
9.996612531381032341e+00,-2.216249482088282919e-03,-9.785765203021941971e+00
9.999250708624437323e+00,4.760791999435392413e-03,-9.791370809699703415e+00
9.997742894199584285e+00,-2.666645303099346442e-04,-9.807667045922164206e+00
1.000780976227954433e+01,-1.492269810351710925e-03,-9.797110150118436778e+00
9.996002625674814013e+00,-2.908755720105328946e-03,-9.773024503590507450e+00
1.000466422824814217e+01,-5.541284854088540830e-03,-9.796652443924802611e+00
9.998005843755446875e+00,1.216085022375772238e-03,-9.794407480506885477e+00
1.000117631721337119e+01,-2.887729310931247233e-03,-9.785574629138025671e+00
1.000209649549537083e+01,4.042845066161896046e-03,-9.787592208224541679e+00
9.997424646657259828e+00,8.726584339981713692e-03,-9.785286090643301904e+00
9.996353531969209172e+00,-3.003340996697769633e-03,-9.794364765212396406e+00
9.997669399032353965e+00,-3.574620826464584410e-03,-9.796977870531497601e+00
1.000134445491129753e+01,-5.480846717567068420e-03,-9.789588458984210817e+00
9.992540823897620328e+00,-8.279285774855274071e-04,-9.806557360351362718e+00
9.995381708669057730e+00,-4.399294144946203251e-03,-9.803975011725645672e+00
9.998281302888504030e+00,-1.351241774391899811e-02,-9.795913785414512631e+00
1.000053817052659255e+01,1.704755901836556026e-03,-9.803099912352255529e+00
1.000295868458452553e+01,-8.907912218247524688e-03,-9.798528283935983296e+00
1.000842175192319061e+01,1.507230638193473140e-03,-9.801832338315122684e+00
9.997508613176496084e+00,1.824038372529046938e-03,-9.797899894696596945e+00
9.996283814688332825e+00,-1.335389337467274209e-04,-9.796054131793070496e+00
9.999070203719501393e+00,-2.280614657650302524e-03,-9.782849028850437278e+00
1.000242702053670207e+01,6.164974055313577651e-03,-9.796497144145254410e+00
1.000088234454788427e+01,8.623089076305217801e-03,-9.792111081843950515e+00
9.987210382619293725e+00,-2.535768294101398384e-04,-9.804125718379625098e+00
1.000168075398750389e+01,5.682362969317397879e-04,-9.788441645740922681e+00
1.001079207510467306e+01,2.058477209210777571e-03,-9.788282858156973631e+00
9.997535022062294274e+00,1.378868684890250686e-04,-9.783912261583616043e+00
1.000849079948130971e+01,-1.700626804621776546e-03,-9.780318272306764982e+00
1.000155922074007897e+01,-6.046778455256454111e-03,-9.786640793110045422e+00
9.998503514801253544e+00,-2.382157520203594375e-03,-9.792394767192810434e+00
9.997078741808277158e+00,2.230411512936202913e-03,-9.789443198907612498e+00
9.997090821949480954e+00,-3.709947855554926281e-03,-9.792143906163870426e+00
9.994314233721198093e+00,3.302071617680147220e-03,-9.786875985818840107e+00
9.998636220973853739e+00,-1.100911217865164051e-03,-9.786312788884204750e+00
1.000178753389209874e+01,-2.405359186992239544e-03,-9.801643271259406376e+00
9.997353671492366090e+00,-1.788511927621141040e-04,-9.799939367042146188e+00
9.995267030580635037e+00,9.683684523245248907e-03,-9.801903100822300985e+00
1.000138364811196823e+01,8.915114292327461307e-04,-9.787413506970278121e+00
9.995928731876411177e+00,-3.496553907095280300e-03,-9.798466903899084812e+00
1.001033309502949642e+01,-7.180341825447933988e-04,-9.800326243239920743e+00
9.996820039600484264e+00,-3.943408336363441249e-03,-9.786857032159325342e+00
9.997621255400453322e+00,-4.225394041761985735e-03,-9.780969227782023268e+00
9.987837452913584713e+00,3.184492621198425073e-06,-9.801425788445435217e+00
1.000249977483748864e+01,1.928318948973387764e-03,-9.793045359227786406e+00
9.989932391836864767e+00,2.230254225216117330e-04,-9.809626435678186596e+00
9.998232574846715792e+00,6.725260893867606934e-04,-9.801713558831522732e+00
1.000526322994518402e+01,3.227632589399334704e-03,-9.805394166826367552e+00
1.000335564951835110e+01,1.655124540907087138e-03,-9.788736841579368075e+00
9.997698128056160982e+00,-1.491076681299331654e-03,-9.792692248647167474e+00
1.000089636302686102e+01,1.847868563628538930e-03,-9.794032443853740943e+00
9.995297699185913487e+00,5.216246554913137913e-03,-9.809799425147851082e+00
9.994588659892190918e+00,4.184888743840017898e-04,-9.802672116464691499e+00
9.993248457502254212e+00,8.875071892760278899e-03,-9.802576627547804122e+00
1.000039057979053325e+01,7.327755300081333079e-03,-9.781098870973103487e+00
9.990112677234760596e+00,-2.147080435256334442e-03,-9.780043679445666882e+00
9.998261284663227499e+00,1.284933299437234378e-03,-9.805999067758154553e+00
9.993168740500481206e+00,-2.498673327584741317e-03,-9.795326456858699515e+00
1.000035690501633034e+01,3.115003951164856382e-03,-9.784191356037528209e+00
1.000143749719448039e+01,1.633818336900764870e-03,-9.800560817475165720e+00
9.993447779373898499e+00,-2.045444393573000140e-03,-9.794750596983416102e+00
1.000558710705422705e+01,-3.355375939332759429e-04,-9.798711078351681536e+00
9.999684158532220479e+00,-2.259853939763050833e-03,-9.795628513277495841e+00
9.999122258926387730e+00,-5.403365640388268706e-03,-9.789020857094383743e+00
9.995553056048267493e+00,-1.484376115855824425e-03,-9.794592684739873434e+00
9.998561568695194524e+00,4.982303893976493085e-03,-9.781478694911236005e+00
1.000676698986003110e+01,-1.203935087839927073e-02,-9.790123994317170286e+00
1.000341745687262218e+01,-5.811485206986237093e-03,-9.796859391510842840e+00
1.000462500492778162e+01,-2.850172641972586844e-03,-9.800589707047372201e+00
1.000059930172552924e+01,-3.213544594601145700e-03,-9.797127867269384893e+00
1.000332145533012351e+01,-1.006478895636855799e-03,-9.801519983014545190e+00
1.000364221207050086e+01,-3.243963709341871147e-03,-9.786336611953466047e+00
1.000192319712711786e+01,-5.945622192984886985e-03,-9.784435663019115381e+00
9.998899444402244541e+00,-6.517397589978924516e-03,-9.806807703742679294e+00
9.999879601964925868e+00,-5.635504107914427775e-03,-9.795928862835067363e+00
1.000016890300968520e+01,2.000544869929842613e-04,-9.789168129814045827e+00
1.000045214652931058e+01,3.872448158891958307e-03,-9.780586977762531831e+00
1.000551814419028140e+01,-3.298968536435157792e-03,-9.795010726473087459e+00
1.000123338353803248e+01,-3.024698982182999138e-03,-9.797062810455882342e+00
1.000043679911307493e+01,-3.642772665748756538e-04,-9.801264611973827812e+00
1.000018233882220464e+01,-5.331606889705979915e-04,-9.793080420052632462e+00
9.996623724493625573e+00,-8.781506228691123017e-03,-9.791537342563968238e+00
9.996451165168721786e+00,-1.842920065311540526e-04,-9.789543325217444192e+00
9.998690213923975278e+00,2.893623915832150683e-03,-9.791594193559030046e+00
1.000502945201127858e+01,-9.802053861335778551e-04,-9.797173613764579514e+00
9.996237581343450529e+00,-1.371267729418153107e-02,-9.807667359890217540e+00
9.995544981837323206e+00,-1.765956907286177777e-03,-9.806393328822025524e+00
9.989407583705617100e+00,-1.552216086542583138e-03,-9.805230139168227055e+00
1.000337599654717202e+01,3.116346268081704712e-03,-9.792859224700507070e+00
9.998198679385849275e+00,-7.347551000593101865e-03,-9.798590460884188502e+00
1.000330785483273033e+01,-8.003619770023761779e-03,-9.783649800670323415e+00
9.998737718216171189e+00,-9.678933216887846032e-04,-9.796916724423221368e+00
1.000487584945538977e+01,4.586069322939092911e-03,-9.791847142259420878e+00
1.000300807477183618e+01,-3.411682996608563986e-03,-9.791455323535968702e+00
1.001518083241802159e+01,-5.851679224197912010e-04,-9.796048190854817150e+00
9.999633042981018960e+00,-8.222644271880300698e-03,-9.798396244903793573e+00
9.993792625313011158e+00,-3.611798606258293833e-03,-9.799447477193353961e+00
1.000120725925954268e+01,-4.307317602225394296e-03,-9.798376083177760876e+00
9.990917797019454483e+00,-2.395352523644232474e-03,-9.790422559112618828e+00
1.000045187347375375e+01,9.338023445629086566e-03,-9.790018156709066943e+00
9.992894853781258746e+00,3.714304403343191615e-03,-9.793713905414266563e+00
9.998504322224093244e+00,-1.010533403364545415e-03,-9.808451626104272236e+00
1.000581313198417099e+01,2.806369568255861167e-04,-9.809191357800669309e+00
9.992764765169685148e+00,-9.812092852336766827e-03,-9.797021310012269169e+00
9.997998446484333002e+00,-5.402263765373589190e-03,-9.780328977584501260e+00
1.000691085394933211e+01,-6.097703329912424093e-03,-9.800647586066805417e+00
1.000159540550303916e+01,-2.595637897211224617e-03,-9.788900386879621607e+00
9.997444340563433229e+00,4.615717678722153217e-03,-9.785442630298421207e+00
9.998614793363229225e+00,-5.123531875639806069e-03,-9.802442977972326332e+00
1.000025454761936139e+01,-9.351706925149822630e-03,-9.791998119310969528e+00
1.000236259226949365e+01,5.476090141648448694e-04,-9.790271594002222244e+00
1.000547951910271038e+01,4.724572522210817790e-03,-9.795296447235649850e+00
1.000150724342440967e+01,-1.468814494578094682e-02,-9.796230564511073879e+00
1.000450872019645487e+01,-5.444422366969547608e-03,-9.803503223569956404e+00
9.997329580941165972e+00,2.367008193580897712e-03,-9.792341344133546954e+00
1.000163603794603873e+01,5.437980255897892530e-03,-9.792392169177976058e+00
9.992794109535907410e+00,-2.240984406630203585e-03,-9.788263392705292887e+00
9.994251597691430788e+00,-3.241600521876962515e-03,-9.811965333160701519e+00
9.991971636326328010e+00,-5.188231205078723714e-03,-9.792657443196750577e+00
9.999498854473163334e+00,7.948360797545664727e-03,-9.794226897855118352e+00
1.000213720047826627e+01,-4.773141824060103851e-03,-9.785014752927414960e+00
9.997145925212100437e+00,-3.238129412412740857e-03,-9.793795319280915734e+00
9.995560259999690444e+00,1.471812586194701060e-02,-9.804843457556097874e+00
1.000498335072136058e+01,-3.747102941375678783e-03,-9.809988543864815114e+00
9.998839923324894130e+00,-3.627453845192488147e-03,-9.777804205949855998e+00
9.992202461497027954e+00,3.293356007117429797e-03,-9.802586050178513588e+00
9.997589945826018010e+00,6.315005054881753059e-03,-9.800020368075022859e+00
9.999940965234349832e+00,-2.292443701605220881e-03,-9.779142688681840667e+00
9.999093559768944317e+00,-4.657109886432396874e-04,-9.800668918006294916e+00
9.995016398562670545e+00,-5.173600354369953724e-04,-9.792861764020026172e+00
9.997932740727351941e+00,1.051454477761673383e-02,-9.788858647349135467e+00
1.000986225575435462e+01,8.437580288738380507e-03,-9.807093912538915603e+00
1.000226107715709922e+01,2.762905040547872747e-03,-9.801646166838189345e+00
9.997448864841812721e+00,4.467289242923036877e-03,-9.800891991020455052e+00
1.000202508723742589e+01,-5.560410967369141394e-03,-9.793586930963625647e+00
9.999618460240156992e+00,9.320295288582554696e-03,-9.797775763034994867e+00
1.000487822810155158e+01,-4.681062792998635230e-03,-9.790281227493608185e+00
1.000615933807074320e+01,-8.748488107193272065e-03,-9.817914245940469797e+00
1.000020253477741328e+01,-5.401329807179560023e-03,-9.794319323764213436e+00
9.995788605045179409e+00,7.172513461985526376e-03,-9.794398866008037885e+00
9.997987113650021129e+00,4.631927059231243267e-03,-9.783241423396665581e+00
1.000448561893895949e+01,2.167886781462789823e-03,-9.787516873643342663e+00
9.999517031136731404e+00,5.354264168191839583e-06,-9.787483933444114825e+00
9.999725877259100670e+00,3.459478779052324159e-03,-9.790138008575320683e+00
1.000417772199968347e+01,-9.668783831236317863e-04,-9.802861000859653728e+00
9.998147018989385515e+00,-8.703791787086075787e-03,-9.792280381085554097e+00
9.996278790971086181e+00,-2.074031371306010296e-03,-9.789345684238007550e+00
9.997776198045100315e+00,3.147309950422389163e-04,-9.797311654982378215e+00
9.999668272448341000e+00,-6.989730547408240686e-03,-9.797515136925701640e+00
1.000344986296015115e+01,-1.767075211972115537e-03,-9.793363955871408066e+00
9.991279346187626587e+00,-2.240326688858391719e-03,-9.796349809122308017e+00
9.991081259108282708e+00,-6.726399113126808578e-04,-9.783064111514168104e+00
1.000417145793014484e+01,1.950297076273982931e-03,-9.797427225800040773e+00
1.000279896251742073e+01,2.731693525221547993e-03,-9.788763176514786224e+00
9.990298765064771658e+00,8.912178605054601674e-03,-9.797367938627399298e+00
9.999604560473553505e+00,7.381529527543230843e-03,-9.791406583312589618e+00
9.990387542398773135e+00,-6.076069628652864055e-03,-9.800450308557778101e+00
9.989814341792820684e+00,-4.806022980622466981e-03,-9.795834215710335968e+00
1.000028943823241612e+01,3.444599025866062775e-03,-9.793377193383626889e+00
9.999666082834195890e+00,4.863547474443512438e-03,-9.784207950152147504e+00
1.000230068243504711e+01,2.393308847273872397e-03,-9.807250289811777932e+00
9.997243504546728943e+00,9.390162128612449324e-03,-9.803781929458841304e+00
9.994922820357091453e+00,-3.239530533991609625e-03,-9.793596968834940242e+00
9.998968317519125293e+00,8.978505256698672858e-04,-9.788499082571219034e+00
9.990547497146312850e+00,-1.660128061097234287e-04,-9.801518631464507081e+00
1.000076808445285970e+01,3.101796667475301139e-03,-9.787278230865249284e+00
1.001285278369209664e+01,2.282130180445485646e-03,-9.789688739513422888e+00
9.998676174935871686e+00,-4.810126126280374684e-03,-9.798308894676431180e+00
1.000803648233999787e+01,3.995883450258302418e-03,-9.800811114714480965e+00
9.998723586621267145e+00,-4.648848378474125867e-04,-9.800762465146869218e+00
9.995011450062420977e+00,1.688193892771763143e-03,-9.801110764578954360e+00
9.999307645033031378e+00,3.946514793830893306e-03,-9.806029438458349290e+00
9.998686079279591965e+00,2.580985104661354720e-03,-9.787672201511304237e+00
1.000460458926753837e+01,-1.269905546748866009e-03,-9.784518993380247665e+00
1.000815842244483811e+01,-4.446593773944920724e-03,-9.807354951774341245e+00
1.000313160673857915e+01,-2.056428224131249920e-03,-9.799585541932058774e+00
1.000412136552786180e+01,1.514603110202579050e-03,-9.791623659496362819e+00
9.993884226201796395e+00,5.770440332652396892e-03,-9.795688560597989536e+00
1.000066002007721799e+01,-4.055427774881750248e-03,-9.796437554328349506e+00
1.000029794196300514e+01,-6.837066284302604179e-03,-9.815924719493914097e+00
9.995958821963775165e+00,7.347003467372208163e-03,-9.793543503834303721e+00
1.000142538337427212e+01,-2.707598429330431312e-03,-9.773146852324353873e+00
1.000039213623803569e+01,5.374396860489818323e-03,-9.791294307543312314e+00
1.000212321145925820e+01,-4.483397238377441127e-03,-9.784726869455653286e+00
1.000204431542376504e+01,-4.480139111623789375e-03,-9.795481611681724488e+00
1.000222860611540909e+01,8.718559518855712592e-03,-9.785433138578834900e+00
1.000437060675975687e+01,-2.510657359904018386e-03,-9.800291894647324753e+00
9.996738853337618025e+00,6.421440920459997766e-03,-9.800043004434121130e+00
9.991453386514631774e+00,-4.372267610196159220e-03,-9.792603171403342799e+00
9.999259587735874533e+00,-5.431451429800956228e-04,-9.796080303386666799e+00
1.000157406979939090e+01,-5.860628821579005887e-03,-9.801751374700019781e+00
9.994293778704484765e+00,-1.039297683662371947e-03,-9.805091951641538017e+00
1.000504840794599737e+01,-1.077812734693519604e-02,-9.790484186906668995e+00
1.000100595647536927e+01,4.099296354174468068e-03,-9.788384489041984438e+00
1.000579672860485125e+01,-7.270508205716091042e-03,-9.797219932144015431e+00
1.000330515705573831e+01,-5.527799872092395601e-03,-9.797342505180667516e+00
1.001145458413178702e+01,1.057378889748216821e-03,-9.797539117447307433e+00
1.000016161657414671e+01,1.147649476983851613e-02,-9.789921663535341878e+00
1.000808870860950428e+01,5.144032897576199985e-04,-9.775068743677771010e+00
1.000236160257184892e+01,-1.254347834613939649e-03,-9.797673182499416100e+00
1.000033605676007831e+01,1.034300206892737641e-02,-9.806706026289614186e+00
1.000359879879004765e+01,1.097200633976204952e-02,-9.797528953955081832e+00
1.000421295532788868e+01,-1.831111813492041808e-03,-9.789720223915336916e+00
1.000266425791005176e+01,2.881475789092707938e-03,-9.792472453030338642e+00
9.989936306512579023e+00,1.786904369358379352e-03,-9.803616676263059659e+00
1.000455075421452733e+01,-9.478974101137136246e-03,-9.792860946071664685e+00
9.997848280090018136e+00,-5.329419564373459595e-03,-9.801615061728595535e+00
1.000367965612680621e+01,-8.090165958667055318e-03,-9.788522824126365762e+00
1.000286467636599141e+01,5.478958172192066947e-03,-9.798397715106208494e+00
1.000479519563344866e+01,4.979048087389343832e-03,-9.789299885954212854e+00
9.994592835182656287e+00,-9.342393957078549494e-04,-9.789983990361937671e+00
9.995921188049068817e+00,-8.477407018944929998e-03,-9.783883830928681746e+00
9.994814486571412360e+00,1.117942228086346405e-02,-9.795230941220351539e+00
9.997324467218222210e+00,2.100944854658475056e-03,-9.800137549172569962e+00
9.994176404420308302e+00,1.872893426373394314e-03,-9.808039920507894749e+00
1.000243725727995248e+01,-4.459767559601568107e-03,-9.783313613811420950e+00
1.000759801816224837e+01,2.316865744997527465e-04,-9.785566146658979392e+00
9.999272543253580281e+00,1.037747189526348063e-02,-9.811214373938122790e+00
9.995442756109111926e+00,-7.509813375301788510e-03,-9.798779829441981448e+00
1.000826473715134490e+01,5.649658281927134526e-03,-9.800048671752360718e+00
9.993069532827561829e+00,2.138698723961691452e-03,-9.791357545477421098e+00
1.000314185870460015e+01,1.913086464353609207e-04,-9.800113652980007473e+00
1.000056153435970607e+01,-2.271370646114142643e-03,-9.791771608513679226e+00
1.000160840929338946e+01,-8.198361859723878389e-03,-9.786557188188382383e+00
1.000500444868159100e+01,-1.893324494582709558e-02,-9.794529964286521562e+00
1.000192022711453177e+01,-1.749885902545580876e-03,-9.801978395756236750e+00
9.999043266359722182e+00,-6.946417973147072777e-04,-9.788435768789211622e+00
9.989123796605234418e+00,9.517409909711312902e-04,-9.810952742658852088e+00
9.990952181254343145e+00,2.631564925415083838e-03,-9.809408024311164098e+00
1.000274152026868357e+01,-2.595025449648197071e-06,-9.782424491530361976e+00
1.000177937277677742e+01,1.082450022230061100e-03,-9.790926632449611589e+00
9.998981656590384404e+00,4.529336502681262193e-03,-9.803687825034804959e+00
1.000444904279443392e+01,8.953298203358177679e-04,-9.803969066013994649e+00
9.991247488804903654e+00,1.446776019299013871e-03,-9.782231849344235286e+00
9.994982971733328725e+00,3.470303561843420415e-03,-9.790689034044534722e+00
1.000345192583960596e+01,6.082434227180388495e-03,-9.802326529567530145e+00
9.991267061468624533e+00,1.107864677658242439e-02,-9.803432416348602629e+00
9.998521459345456108e+00,-7.652381462369907753e-03,-9.791683277593588031e+00
9.999687000405108606e+00,3.644499492474455142e-03,-9.790216943121480497e+00
9.996377642608971215e+00,-6.431384906858903135e-03,-9.790904662124424007e+00
1.000344937572851478e+01,-2.928219311985962373e-03,-9.802320200309145193e+00
9.993091185118156972e+00,1.168668784553698143e-03,-9.790473678514432621e+00
9.995391307714795559e+00,-7.754565215422294308e-03,-9.788947050172717823e+00
1.000799362348118571e+01,8.472361508246305586e-03,-9.786816605999421270e+00
1.000514172419193137e+01,9.714428667950443866e-03,-9.790363964229495508e+00
1.000250977129919860e+01,-1.266937868905893515e-03,-9.788386426675147689e+00
1.000091786982396158e+01,7.005362622008182161e-03,-9.785638096710828293e+00
9.992637210954587346e+00,-2.824977189761776388e-03,-9.809826240654562213e+00
1.000372236891435662e+01,4.968176442663653491e-03,-9.810448930335796902e+00
9.992270227325681375e+00,-2.621244862445263214e-03,-9.800434021723519962e+00
9.997874742030660400e+00,-1.527315039759056950e-03,-9.790112484738443754e+00
1.000296603936341278e+01,-1.615233117975106237e-03,-9.803157180486675060e+00
9.997561534685967644e+00,1.036996845823001147e-02,-9.782420848215682696e+00
9.996274743179204947e+00,3.417945857526860642e-03,-9.792536504988316182e+00
1.000220096534561343e+01,-3.173535643719963949e-03,-9.804909899907583437e+00
9.988532526120115662e+00,1.286447898000919222e-02,-9.788950785774993335e+00
9.998140210249882642e+00,3.645009594122236921e-03,-9.781812134153756944e+00
1.000165221530405546e+01,3.928472267948115645e-03,-9.807965624670769600e+00
1.000077345450407584e+01,5.048015964366659326e-04,-9.789807424920597967e+00
9.996912510040292688e+00,2.902819382391990093e-03,-9.792955379948436345e+00
1.000663251795313613e+01,-4.174043948529936564e-03,-9.794207068227093416e+00
1.000699810946383828e+01,-4.285049590806612051e-04,-9.787334899286260992e+00
9.995957746374335429e+00,2.074701760773346639e-03,-9.790920436558140594e+00
9.995494293992701174e+00,-6.904316944399187077e-03,-9.797410965285685336e+00
1.000132531295398763e+01,-3.623856145121727521e-03,-9.782607343841867475e+00
9.999509699843573074e+00,-6.169426347782784766e-03,-9.798446755259229590e+00
9.990948622014425240e+00,1.174364176670334835e-03,-9.797218996314200012e+00
9.999478803542487526e+00,-5.323630112175476142e-04,-9.791055624003508484e+00
1.000566340773389840e+01,6.553419483096040599e-04,-9.793673213344032291e+00
1.000046000555783365e+01,-3.652094450499784005e-03,-9.816356441654448872e+00
1.000216808470773699e+01,-4.404859690507472066e-03,-9.786453172712709758e+00
1.000106459217268018e+01,-4.717841465793932466e-03,-9.796192549651754788e+00
1.000707419333505932e+01,-6.538585738933775683e-03,-9.789124266799106522e+00
1.000321677945860444e+01,-1.779051926553608821e-03,-9.787396763080611350e+00
1.000673109948832540e+01,5.452601739418998748e-03,-9.794611905165734100e+00
9.994616767181936368e+00,6.603289215007307998e-03,-9.792395876098233032e+00
9.990546314675560424e+00,-9.175277376165840901e-05,-9.787929327595458417e+00
9.997012532046236188e+00,3.728448645570001628e-03,-9.772925923836796258e+00
9.996858418235044397e+00,6.975090147210220339e-03,-9.793014918129047786e+00
1.000387834390593333e+01,-4.838602267459427876e-03,-9.794680957758616913e+00
1.000056840498245059e+01,3.122739750017525760e-03,-9.793954511130367635e+00
9.995678049333855952e+00,6.588488090241061135e-03,-9.793752422188013895e+00
1.000201827460052861e+01,-2.576606079295210537e-03,-9.791111982210892961e+00
1.000251348404080609e+01,-1.357555677873485732e-03,-9.800073577587566476e+00
9.998789510452985141e+00,-2.791418504998620549e-03,-9.811569681596997938e+00
1.001004448375086575e+01,4.452113851331111023e-04,-9.796293824684017437e+00
9.996157289614236774e+00,6.933833354681620369e-05,-9.791245447223948517e+00
9.999408779142783033e+00,-5.734702397649053818e-03,-9.788337702670087737e+00
9.990141798322573763e+00,-3.760294868853850375e-03,-9.798954151101410659e+00
1.000144002343579075e+01,8.186943519457449189e-04,-9.797002609785016247e+00
1.001103310455594553e+01,-6.961683844056430412e-03,-9.790509788870183527e+00
9.995678902349528272e+00,5.309248765718531902e-03,-9.783150846881904172e+00
1.000653613969365985e+01,2.970058491003281682e-03,-9.782190108039628740e+00
1.000275867438134192e+01,8.471659128748535578e-03,-9.800363816491948654e+00
9.996937553121169273e+00,-7.807267156753370380e-03,-9.777869094418370821e+00
9.994631507790602498e+00,1.378114294980750925e-03,-9.793661643101897241e+00
1.000850566938075836e+01,8.799157882527008229e-03,-9.800763015737054218e+00
1.000265638011934932e+01,1.058576073292192936e-02,-9.804451873294443232e+00
9.990444307690719228e+00,-2.040442210398424761e-03,-9.791011733871451739e+00
9.990085810358502627e+00,-2.424012415290860097e-04,-9.804310341940796647e+00
1.000044035778756957e+01,3.563290345348623604e-03,-9.792297571031795655e+00
9.998792688921202654e+00,3.290115564704666415e-03,-9.772270761184453036e+00
9.997753682397718222e+00,8.944196034580924673e-03,-9.791437661937438364e+00
1.000076563922575446e+01,-1.990030303955452170e-04,-9.798027171693656001e+00
1.000133629094260002e+01,-9.899632452122804696e-03,-9.789623937724952540e+00
9.996166882080963489e+00,6.589483773655488777e-03,-9.797983005067569806e+00
9.999909374883603874e+00,-2.908089658404511887e-03,-9.779382168977900136e+00
1.000003700825864605e+01,7.080236035606724335e-03,-9.796599265701116721e+00
9.995530619603941958e+00,-1.737964323247802919e-03,-9.786537337547621007e+00
1.000621488055150010e+01,1.970581309517679611e-03,-9.803596703204918938e+00
9.994071385223190163e+00,3.316792023227644031e-03,-9.788430810208422983e+00
1.000372138395726829e+01,1.080672642142595577e-02,-9.794250874632437487e+00
9.991034179973006246e+00,-1.870234198315026642e-03,-9.795017609267858916e+00
9.997442867960252499e+00,-1.398992164067831096e-03,-9.797817660850514088e+00
9.999632305141480160e+00,-1.372713292552527921e-02,-9.786090837916356477e+00
1.000717457755255957e+01,-2.618138333944946671e-03,-9.796001842538608173e+00
9.995305738517906491e+00,1.771187813383486237e-03,-9.788137596549274733e+00
1.000210324955638619e+01,-9.477409293931000206e-03,-9.801116157296597464e+00
1.000441973238618232e+01,-4.011338181188286306e-03,-9.797242036268212217e+00
1.000425903483789369e+01,-3.018949736466538733e-03,-9.799870004379203081e+00
9.998352474777837173e+00,2.857401927917729064e-03,-9.800373878355658874e+00
9.995185599007866628e+00,3.300915666306450304e-03,-9.784651378073872863e+00
1.000538730580760927e+01,3.417926530939836317e-03,-9.805550961736134497e+00
9.999260643172366514e+00,-3.628796601458741966e-04,-9.796762825039374789e+00
9.997006521702848758e+00,5.551828407926620405e-03,-9.807360369873162398e+00
9.990637171883591350e+00,1.474415631864087932e-03,-9.782931294649932497e+00
1.000295644040004994e+01,2.291793352934218611e-03,-9.790680104770592251e+00
1.000124671370160456e+01,9.000294576642755076e-03,-9.799706248220955374e+00
1.000450675442814052e+01,-6.560728939272039099e-04,-9.804237870311382608e+00
9.997324258771087102e+00,-3.424423408797653179e-04,-9.781689788964936128e+00
9.998560063784850627e+00,-1.673939310484150915e-03,-9.806447284534884901e+00
1.000248168600719367e+01,7.896902209800162400e-03,-9.813403139573534162e+00
1.000960696104302805e+01,-1.872529378994898129e-03,-9.797020485407072599e+00
1.000302216101748876e+01,4.258274881046610061e-03,-9.790119524446804888e+00
9.998798529437317839e+00,2.708763137347708610e-03,-9.793796985442725145e+00
9.994370586056872341e+00,-1.409052640858304622e-03,-9.786979066753834999e+00
1.000053102608692335e+01,-2.902690346888098846e-03,-9.797337282676753745e+00
1.000110287443347801e+01,6.979755404482290357e-03,-9.797498241586957590e+00
1.000630957735263848e+01,1.634745143833741523e-03,-9.809551306217789701e+00
9.994229165880151200e+00,3.020716202701267776e-03,-9.792195078760292049e+00
9.987564596373243120e+00,4.802902162144203832e-03,-9.784716198881842075e+00
1.000568254544703883e+01,3.096238608595863664e-03,-9.801348692930616835e+00
1.000628669988078023e+01,-3.583617391214923616e-03,-9.807759497928687509e+00
1.000664449928883037e+01,4.874932750319306042e-03,-9.787724493933229297e+00
9.999124598327082225e+00,-2.049391822367558832e-03,-9.798867246874994663e+00
9.995471285175787202e+00,1.848847147080666040e-03,-9.795916640295684985e+00
9.999601240253509715e+00,-1.235061640296578099e-03,-9.786916755869432549e+00
1.000411503821214865e+01,-2.124651308289087805e-03,-9.797010380448355704e+00
9.997895954368422267e+00,-2.361145881399867954e-04,-9.791736776281762644e+00
1.000626867158370992e+01,6.359708163571705167e-03,-9.800732421859752463e+00
1.000264329938855390e+01,-4.868042331734001756e-03,-9.809922457213199110e+00
1.000211334641317151e+01,1.208066155859510715e-02,-9.797348417012367250e+00
9.997763748952896989e+00,2.734789571821074489e-03,-9.796252413027922046e+00
9.995941858353340592e+00,-4.038991271926090608e-03,-9.790707404663789859e+00
1.000514532107207799e+01,7.806278028879010990e-03,-9.781925010957660760e+00
9.998928612116408488e+00,1.970285848257825097e-03,-9.802767254798670393e+00
9.998414168986217376e+00,7.519269373017442755e-03,-9.798073943555737131e+00
9.999970728924214569e+00,-1.194381559940071376e-05,-9.806453985389271821e+00
9.999478543934301911e+00,2.961219052881990631e-03,-9.798124869787704583e+00
9.995812373260250183e+00,5.892027969187588025e-03,-9.782504931736413667e+00
9.998582915689979700e+00,-8.004831157706501082e-03,-9.779186933250967328e+00
9.997149291712947416e+00,3.894478465686894691e-03,-9.795122060681560328e+00
1.000039077419404876e+01,5.929458277229665737e-03,-9.805572620586708865e+00
1.000247430319626041e+01,2.955333864473829852e-03,-9.788875663645599801e+00
1.000245165818862425e+01,3.778963558618578461e-04,-9.775243182996629088e+00
9.999507392609828571e+00,-4.164864167812054943e-03,-9.795210950640438341e+00
9.997512438561997783e+00,4.282157349203735350e-03,-9.801488436265016091e+00
9.999944501934635355e+00,-1.388521662416724971e-03,-9.797523017123447531e+00
1.000230366989565134e+01,-1.031922735713553321e-02,-9.805110861943466816e+00
1.000213541493169522e+01,2.486135215732266680e-03,-9.801182124955646557e+00
1.000572925234329702e+01,3.099344331760090290e-03,-9.791788775318979177e+00
9.999164553580573767e+00,-7.660857461180021338e-03,-9.796680030059768285e+00
1.000029083449720524e+01,8.599489321450514952e-04,-9.802594649680418826e+00
1.000603261320667769e+01,-2.393597611991999524e-03,-9.788772257494263940e+00
9.997180602738909627e+00,2.567310500051624405e-03,-9.792091609449849798e+00
9.998720242352780119e+00,-2.039524748282172360e-03,-9.782423732408723538e+00
1.001412043363172089e+01,-2.503885745849704445e-03,-9.808418168537775372e+00
1.000266314734551010e+01,-6.867988616696266754e-04,-9.801913924749168672e+00
1.000312656451134607e+01,-4.480202320753735173e-03,-9.791671217944138306e+00
1.000274241856804203e+01,-1.901250482761367069e-03,-9.805215145939833121e+00
9.992358329197852385e+00,3.153263993602773308e-03,-9.787799967168277604e+00
9.997552544628728555e+00,4.989423065741741686e-03,-9.791010040711183748e+00
9.989679155685539769e+00,-3.459373301457271867e-03,-9.787233275350079253e+00
9.999377205489116349e+00,-1.523744059330727233e-03,-9.784100483621614330e+00
1.000390052723836654e+01,-8.208003819158459988e-03,-9.802630385054674989e+00
9.994361148426085251e+00,-6.815832258760411502e-03,-9.803470627093181733e+00
1.000168211478418279e+01,-7.637301961637817105e-03,-9.796190507711751039e+00
1.000548921707814820e+01,-7.680778364229342951e-03,-9.800310207297988185e+00
1.000010492405950302e+01,-2.214532057032795546e-03,-9.787855832124796152e+00
1.000143216816326053e+01,-4.955618433076523603e-03,-9.769442270646004900e+00
9.998160449846871245e+00,-7.738551481405173192e-05,-9.806500000005001993e+00
9.998604321023391250e+00,-1.726854864832920498e-04,-9.786727746423308005e+00
1.000515155441167359e+01,1.643849842341385840e-03,-9.799066910891584214e+00
1.000874434913527722e+01,1.747790288353508756e-03,-9.802252232667537868e+00
9.998779581125095461e+00,-5.019852643644014817e-03,-9.779872901421956755e+00
1.000560216620736576e+01,2.606835227175714493e-03,-9.794710668173616241e+00
1.000728558137154955e+01,5.435813336005654132e-03,-9.797799577285022821e+00
9.997948777377455798e+00,-2.658908066791010848e-03,-9.793516193826818039e+00
9.998298673468807962e+00,-4.084319933611465364e-03,-9.776178184946498817e+00
9.994350761805277372e+00,-1.710163408738524151e-03,-9.796404490727478986e+00
9.998364193211978446e+00,7.985594323065146188e-03,-9.805517674438275932e+00
1.000092730155833110e+01,2.675903070570253943e-03,-9.795740220751609328e+00
1.000097615314244237e+01,-2.274153472590789531e-03,-9.787963497149922532e+00
9.997747307076966905e+00,-4.258256343454241803e-03,-9.788552118276298231e+00
9.996057913585447707e+00,-2.645403272888105506e-03,-9.797093529331545980e+00
9.995248850859065115e+00,-1.627832460611333210e-03,-9.792197607460824571e+00
9.996497322384986006e+00,-7.115698388448787187e-03,-9.802231710384059937e+00
1.000357927361747912e+01,4.821452505229108058e-03,-9.805798842475539345e+00
1.000435369220881476e+01,-3.340124457818077590e-03,-9.795783480971660850e+00
9.988219169872925463e+00,-4.196461221967423029e-03,-9.790423148231040429e+00
9.999278412206477284e+00,2.937094049164991859e-03,-9.792182242454630980e+00
9.998087403019551900e+00,5.067195848314667676e-03,-9.795807451690372147e+00
9.990636977494380844e+00,-4.052737883534321059e-03,-9.790768058339292423e+00
1.000383975432374761e+01,-5.852359392506326606e-03,-9.798037435127541883e+00
9.998292748909328509e+00,-1.736540365430081553e-03,-9.780963665069638324e+00
1.000160296434929919e+01,-7.470050610684578207e-03,-9.786862237749407001e+00
1.000373229963645016e+01,-2.672932150860582532e-03,-9.791355125614233046e+00
9.998913919104344572e+00,-8.015336281708107221e-04,-9.787196232294782305e+00
9.994465154641780202e+00,-3.682941021581948807e-03,-9.801990544019142604e+00
9.999553731851223759e+00,-2.904797059640155856e-03,-9.787674118963774816e+00
1.000063925796441389e+01,-6.782026265259454186e-03,-9.805143088543836427e+00
9.998175558267080376e+00,-1.653544587164412858e-03,-9.798077410843148982e+00
1.000961096026025388e+01,3.554728478941618624e-03,-9.801694151780274922e+00
1.000696450639256341e+01,6.024987508608675886e-03,-9.794869459294158531e+00
1.000338355027406223e+01,8.013238981844992680e-04,-9.793001182274034377e+00
1.000843340026963624e+01,-4.848102601868408378e-03,-9.785506151830182020e+00
9.997063274989749004e+00,1.372169748546310996e-03,-9.798214127770169313e+00
9.994009688903837230e+00,-2.935240916682513735e-03,-9.811643515470320764e+00
1.000079527966274284e+01,4.320152979949356750e-03,-9.798120088015050300e+00
9.998896752018330503e+00,2.099343371268998660e-03,-9.813791917175771928e+00
9.995387873057103079e+00,2.011500584745608104e-03,-9.774439105550513318e+00
9.998218138778145914e+00,4.503508211609600319e-03,-9.781974089740920419e+00
9.998904506086233823e+00,1.133327437754760771e-03,-9.793387610313384783e+00
9.990442170955038392e+00,-3.416074278052413406e-03,-9.792941572893198554e+00
9.995043890680221921e+00,-5.429020090815769514e-03,-9.786801651834608151e+00
1.000346187518375274e+01,2.118011208452556804e-03,-9.794350459752372728e+00
9.988935067835825521e+00,-4.154958170274695973e-04,-9.780322891083256920e+00
9.996870700750791983e+00,-2.698998076084335208e-03,-9.792940084507629095e+00
9.993862539752013774e+00,-1.978980088659209723e-03,-9.793402889794144528e+00
1.000644355681777853e+01,3.199710214047614409e-03,-9.794972564711381224e+00
1.000228535860824941e+01,-1.473571922926917525e-03,-9.789818779911508173e+00
1.001233537193239975e+01,3.014459289149021282e-03,-9.786819519181889859e+00
1.000817467065903621e+01,6.443095487319638014e-03,-9.785194533367276293e+00
9.997081802579810272e+00,-5.869997536790244261e-03,-9.791910207239375552e+00
1.000401003607745309e+01,9.278375325003449664e-03,-9.788776459510316386e+00
1.000300067371559365e+01,-7.954427885381249244e-03,-9.781851864927649132e+00
9.998454605938876583e+00,5.509966047186174928e-03,-9.799910398572832193e+00
9.997101463431938839e+00,-8.520517991217502196e-03,-9.798958496433257892e+00
1.000512010810277630e+01,7.022170335165775663e-03,-9.798785365655433566e+00
9.992829893830487364e+00,2.080695935742730290e-03,-9.798223150491333300e+00
1.000198345755107887e+01,-6.963493889254283344e-03,-9.795754228669970587e+00
1.000038798879627677e+01,-1.190735149497293942e-03,-9.798025383548829126e+00
9.993768883169678929e+00,-3.949779137182365778e-03,-9.796647793567474949e+00
1.000055852587378169e+01,1.292751756783264063e-03,-9.790909538451883165e+00
1.000543749256658366e+01,7.905208829262362277e-03,-9.789390576785098830e+00
9.999568581703650594e+00,-6.219829345601411708e-03,-9.793367098693540385e+00
9.994079614294482994e+00,-5.458851974174371187e-03,-9.785791055123910454e+00
9.991248677890135710e+00,4.437536277970566441e-03,-9.794413228029933194e+00
9.993890908472266688e+00,3.755711621487563788e-03,-9.793463279433135327e+00
9.997782554068262328e+00,2.456021297952356436e-03,-9.786960543617500008e+00
9.994167875503112697e+00,3.736904791244291318e-04,-9.801983780234296617e+00
9.998196754371228678e+00,3.298952668014831346e-03,-9.791170664826886139e+00
1.000243782253386549e+01,1.903842302044766576e-03,-9.789374431191143699e+00
1.000202101018531131e+01,-1.457562505066456893e-03,-9.787318776666140252e+00
1.000481526905556073e+01,-2.504094165937784024e-03,-9.801834902316807430e+00
9.999754892067146628e+00,-4.837602051536537932e-03,-9.795318384146302293e+00
9.997049976054382725e+00,-6.132994769769873830e-03,-9.805367921667677678e+00
9.999799513880672563e+00,-7.686258216903724214e-04,-9.790284046795873607e+00
1.000098991415561400e+01,-1.980175472695791614e-03,-9.804895614068751541e+00
9.993593958598497196e+00,-1.833683194334302788e-03,-9.794869822918890634e+00
9.993724160586847205e+00,-2.192797697772216545e-03,-9.798621868202610941e+00
9.999104699727372036e+00,-1.079288160838273117e-03,-9.801901346371405310e+00
1.001007705493746869e+01,2.164749810904374999e-03,-9.782638109551200500e+00
1.000132678783134921e+01,4.921578524705156298e-03,-9.788321281410318875e+00
1.001228416611218464e+01,5.852556900116054686e-03,-9.797423251263463584e+00
9.998237604673334999e+00,-1.604465260640293000e-03,-9.801691186122715393e+00
1.000291701481365791e+01,6.953580817402566861e-04,-9.799847228540587096e+00
9.999514286679817232e+00,3.187079975454340779e-03,-9.799080136203841107e+00
1.000498480140169022e+01,-7.276541447066377059e-03,-9.790290339681703813e+00
9.993911616038920087e+00,-2.908565678830536596e-03,-9.793818477351560858e+00
9.992088218830877722e+00,-1.717293535557975299e-03,-9.816448795037665320e+00
1.000308092675019189e+01,3.401344904420350399e-03,-9.809189009916305935e+00
1.000417346660044515e+01,-3.530974531643972427e-03,-9.793939355247488265e+00
1.000364115326759240e+01,-4.916813423437799493e-04,-9.795497987633073222e+00
9.999673773009845945e+00,4.941578804806428388e-03,-9.783937306680076773e+00
9.992396772591728649e+00,3.566840698117852530e-03,-9.789327047373330259e+00
1.000236231334373294e+01,5.439650500289593826e-05,-9.803365642701882265e+00
1.000270939808886794e+01,-6.062368789582942919e-04,-9.798497929866860190e+00
1.000628715418429948e+01,2.755384059640238621e-05,-9.795672540381048066e+00
1.000124115547053094e+01,5.925417012974820534e-03,-9.797707826759681993e+00
9.995614944078681674e+00,3.045234602419762907e-03,-9.793967149447579956e+00
9.995164213448449075e+00,5.180742652343490106e-04,-9.799847435899456727e+00
9.999709119231784626e+00,3.763626627704915774e-03,-9.791950135587358162e+00
1.000714751828495785e+01,-3.690092681065575315e-03,-9.793353169422633897e+00
1.000281832622217237e+01,5.472954040545392924e-03,-9.788706386578862606e+00
9.990445627701770803e+00,-1.125211224851750376e-03,-9.792035190940241662e+00
9.999453896956039145e+00,-4.504130863784643057e-03,-9.792704192745590674e+00
9.993093524283908735e+00,-5.058622274310752530e-03,-9.789995664634767891e+00
9.996515917081179481e+00,1.884460538851378793e-03,-9.798276510181558763e+00
1.000343063113838582e+01,6.431002411326524823e-03,-9.814516870723435815e+00
1.000294169098814656e+01,-2.886249322703172797e-03,-9.797814782670856815e+00
9.998223684186655191e+00,2.850688483104886484e-03,-9.791343860844584412e+00
1.000507424481863517e+01,-5.125650936089836546e-03,-9.791656123850733806e+00
9.996996407433423215e+00,1.078115854934330597e-02,-9.795771439035201311e+00
9.997460397120541131e+00,-4.356670199561061239e-03,-9.796311289673521827e+00
9.995586393229077160e+00,1.787755832117735207e-04,-9.789652480999640360e+00
1.000010712492548848e+01,-2.468823236447336518e-04,-9.797232621696819521e+00
1.000421111444381062e+01,1.001022671766860521e-03,-9.782611404468120497e+00
1.000802253470386205e+01,1.659308237901476911e-03,-9.789209405907746131e+00
1.000621522245711326e+01,7.356916733644219613e-04,-9.794004451466030048e+00
9.999775808072602246e+00,3.286410534907197988e-03,-9.788197421124559483e+00
9.994345246926240378e+00,2.534025157553731426e-03,-9.810612282906625126e+00
1.000633456611258687e+01,1.236101837190332550e-03,-9.794239806439483331e+00
1.000195981935201317e+01,-7.660952280917038932e-04,-9.798158421868501833e+00
1.000297609019175304e+01,-6.487809424883842716e-04,-9.787945009706481514e+00
1.000035688885728291e+01,2.685940512083337048e-03,-9.793863617729563487e+00
9.995511188450855400e+00,2.917113348310827921e-03,-9.798309506244828881e+00
1.000155555121313000e+01,8.527844618298521459e-03,-9.784012741850311556e+00
9.993296203589689952e+00,2.190293487856374063e-03,-9.772694143665653144e+00
9.995235218185751336e+00,-1.239010841140823901e-03,-9.781553336984270430e+00
9.998615351407725171e+00,-2.235689812918060029e-03,-9.797987324004155951e+00
9.991004374658858822e+00,-4.373680076844832162e-03,-9.792750649926748707e+00
9.999282561051336060e+00,1.812767701133992295e-03,-9.790983928975714790e+00
9.999698067183338424e+00,9.742753994405368642e-03,-9.785351084282808642e+00
1.000686729016626053e+01,-5.521217824352557708e-03,-9.798051174827259402e+00
1.000538707724516740e+01,4.299333449829732291e-03,-9.805213690038939944e+00
9.997054045045144832e+00,-1.847975517111130140e-03,-9.792885562947326150e+00
9.996726934148947308e+00,2.974467508816681666e-03,-9.803883232651314117e+00
1.000948327416648276e+01,-4.886229271430668486e-03,-9.789884497960649412e+00
1.000311304455815531e+01,2.766774350233096595e-04,-9.791600585362809639e+00
9.998943247606527862e+00,-4.594712068181619133e-03,-9.783709641509245714e+00
9.995749602376600151e+00,-5.260630463963909473e-03,-9.795195717043091221e+00
1.000255338326264720e+01,-2.342870092700727672e-03,-9.787428265945010253e+00
9.999395654581226367e+00,-2.199511289677658077e-03,-9.792292066549547869e+00
9.997639716903035989e+00,-8.935346373303029374e-03,-9.790593925476718695e+00
9.998587092339205284e+00,-6.346420780035992582e-03,-9.791868690057896174e+00
9.988919609086631013e+00,-7.170626074158403633e-03,-9.818918885979774913e+00
1.000437219473686135e+01,9.338704979616450214e-03,-9.793615908677269388e+00
1.001301731363113490e+01,-5.591844640296962914e-04,-9.798735285958837693e+00
9.994365234395603537e+00,-6.143319583486056296e-04,-9.794657444531944535e+00
9.998040135286888841e+00,-6.047133660629751099e-03,-9.781497632218792759e+00
1.000441100606506062e+01,5.904296184317960050e-03,-9.799570465972035294e+00
1.000178497309041603e+01,3.129727788017585329e-03,-9.808196466071910535e+00
1.000129020434902927e+01,-2.603954032118828334e-03,-9.795227843885715657e+00
1.001174638308970266e+01,-4.089129405410482469e-03,-9.786942777155049455e+00
1.000424182834956710e+01,-3.149355831883489127e-03,-9.804088958856906899e+00
9.998183786854200505e+00,4.966787823018423663e-03,-9.812869990732117742e+00
1.001243437377228673e+01,-2.674462572940721188e-03,-9.800437918442218788e+00
1.000682120206698400e+01,4.189162375630915008e-03,-9.789902601910187130e+00
1.000393547001643135e+01,-2.052649862819240294e-04,-9.799081851276900679e+00
1.001392724685901570e+01,3.283993176968022509e-03,-9.795423388384676855e+00
1.000156787863132912e+01,5.231351901948047903e-03,-9.789265893242065530e+00
1.000259347876182581e+01,1.099784830063529027e-02,-9.801848308950196653e+00
9.993966857973504148e+00,-4.553511764876631319e-03,-9.810820505123052371e+00
1.000256961760311292e+01,4.600731267750899842e-03,-9.782570320984744328e+00
9.996174018204431633e+00,-4.666766706057483022e-04,-9.791107086586549713e+00
9.998864402420771569e+00,2.153338618756976512e-03,-9.787838889825525968e+00
1.000501193752191931e+01,4.472943324130124708e-03,-9.787183113299223081e+00
1.000138486508378755e+01,3.687726366492137206e-04,-9.791747087009385453e+00
9.996445953979772980e+00,9.275389501944798429e-04,-9.799235180227844566e+00
1.000450195724487479e+01,4.495710063266818634e-04,-9.810991718600050149e+00
1.000185650360953815e+01,-3.630581862905423677e-03,-9.770295587874139542e+00
9.996992109907647972e+00,1.142940927349077795e-03,-9.782983599487176107e+00
9.987606349255983673e+00,-2.562103238698056149e-03,-9.801221431615672941e+00
1.000639242138606555e+01,1.796906505549586376e-03,-9.790594305190772673e+00
1.000488386982476108e+01,7.509765167706660902e-03,-9.797720676209568325e+00
1.000729497578153371e+01,2.416098348530735292e-03,-9.789376124768121912e+00
1.000200633914099591e+01,1.085701943583850491e-03,-9.807807839360174640e+00
9.995700654611093583e+00,-1.676276806927113434e-03,-9.794624751554174225e+00
1.000033724993919115e+01,4.118880639987380042e-03,-9.780932741859846402e+00
9.996667023324850021e+00,-3.989422651274182434e-03,-9.790365975677589816e+00
9.990753193210192507e+00,-1.149354332623506170e-02,-9.786212882023839654e+00
9.996460499273398526e+00,-7.418075613229420471e-04,-9.786980796573581998e+00
1.000398394679533531e+01,7.284236584477290707e-03,-9.787675376102132674e+00
9.999298565712861020e+00,5.003109707000723098e-03,-9.797840792394005405e+00
9.993458445465508433e+00,2.001499715591956250e-03,-9.809351004895997761e+00
9.999207114140924446e+00,-5.021471801798067184e-04,-9.795940945704488811e+00
1.000523405913618724e+01,1.552838825831359204e-03,-9.774920956052673304e+00
9.992959542259150396e+00,2.013022159972645535e-03,-9.788664156516995618e+00
1.000070973706159094e+01,-1.654432524365928017e-03,-9.795068291721991116e+00
9.996194551892171987e+00,9.418070321619176778e-04,-9.800169408895957446e+00
1.000319538517069162e+01,-4.427811752997876105e-03,-9.793849805849031753e+00
1.000467377061831797e+01,2.787379566042308496e-03,-9.803034850774714926e+00
9.997455332913181891e+00,5.850272972308571441e-03,-9.797060566903546430e+00
1.000500766775563477e+01,5.668602813996861250e-03,-9.810417977392123845e+00
9.990153031664663175e+00,5.460945104175357178e-04,-9.780031457168576026e+00
1.000739113764020161e+01,-4.283212978267372274e-03,-9.795389832183442280e+00
9.999303499324870614e+00,-4.510373367027654609e-03,-9.797973964728354801e+00
9.994684048205158433e+00,-3.853090112760575170e-03,-9.789158239094263081e+00
1.000304000685366645e+01,3.822451707313960045e-04,-9.804122369395086523e+00
1.000373764123504472e+01,3.069171865949136928e-03,-9.788085629099544605e+00
9.991400969501455620e+00,6.615072627337309106e-04,-9.806199235467341069e+00
1.000266830265836049e+01,-1.413424837855021187e-03,-9.795870303777656218e+00
9.997504819557132549e+00,1.454604155239677416e-03,-9.808309371539202459e+00
1.000345214288900131e+01,1.030726217296397277e-03,-9.771987763387148362e+00
9.993733164421440662e+00,9.308672837913912557e-04,-9.801193503506061333e+00
9.998604389683233507e+00,-3.876114502018595913e-03,-9.796711435483192787e+00
1.000628733172860052e+01,1.952403446616874250e-03,-9.806264936665147758e+00
1.000374086423882680e+01,-2.681001298852408229e-03,-9.792975172436269915e+00
9.998749392257950674e+00,-3.089902252424961849e-03,-9.779813977641463651e+00
1.000273249682331844e+01,-1.109754391081493511e-04,-9.798924090168190659e+00
1.000637614255909824e+01,1.396225078980439880e-03,-9.784149442591328238e+00
9.993105627797218560e+00,-5.613308889312153445e-03,-9.788341919681410985e+00
9.994238125173701803e+00,3.067806995211106846e-03,-9.804771375280562751e+00
1.000057992648387817e+01,2.660531658526686031e-04,-9.795981703709571775e+00
9.996380932892611426e+00,8.673179722045557287e-04,-9.797285004808051312e+00
9.998039075068232862e+00,-1.067645128573920486e-03,-9.793330137892816367e+00
9.999474148477759172e+00,3.129118721867520363e-03,-9.804940141926492103e+00
9.999245559241456860e+00,-5.207001547383557916e-03,-9.791289868390105511e+00
1.000510381778018854e+01,-2.419775558595209462e-03,-9.795340570996843965e+00
9.994376073403856253e+00,-2.930547185527410635e-03,-9.791356903270356682e+00
1.000116670251002127e+01,-4.452688064140277076e-03,-9.793342465549734754e+00
1.001076976888996128e+01,-3.753097978882759082e-03,-9.802073339732361390e+00
9.999530394928420662e+00,-3.864965995552499100e-03,-9.792106171282439320e+00
1.000014833262690317e+01,-3.567979589918074228e-03,-9.786192486272145885e+00
9.996580493779802623e+00,1.413767287913838405e-03,-9.775021616097749444e+00
1.000218311968067120e+01,-8.041568188367830905e-04,-9.779530459379456531e+00
9.997090010410698113e+00,-5.598823660960375629e-05,-9.803436152317599905e+00
9.998776483235026546e+00,3.882966040637968099e-03,-9.800570512738238094e+00
9.998198102361994799e+00,1.686673574635489010e-03,-9.793407070707800699e+00
1.001352088121671180e+01,-3.495140744656800944e-03,-9.791421356759501649e+00
9.999439412483480893e+00,-4.007387439693430378e-03,-9.793736643262750619e+00
9.997968908418361167e+00,-4.684533951897822991e-03,-9.794289969066774404e+00
1.000185340122485300e+01,3.232212276457910750e-03,-9.799373725590177386e+00
9.993678391858386689e+00,2.034025923725797744e-03,-9.796957921121641988e+00
1.000212108926664456e+01,-3.131818706095771017e-03,-9.795843675374689141e+00
9.993763920951803215e+00,-6.856823059698478537e-03,-9.785427342638744364e+00
1.000438948092523894e+01,-2.332314665735405867e-03,-9.803789789199083060e+00
1.000573105908606486e+01,2.581080159824750142e-03,-9.797862864602169708e+00
1.000337209323463483e+01,-4.970565781705502117e-03,-9.790018275917587331e+00
1.000224151132483641e+01,-2.528711869098390044e-04,-9.781135498915105586e+00
1.000094391220368095e+01,1.419924077144692730e-02,-9.791875353961312811e+00
1.000269472458050757e+01,-6.024524690645041008e-03,-9.785871080524184862e+00
9.999318327896595804e+00,1.242297965017674991e-03,-9.795516746762181981e+00
1.000521500543769271e+01,-3.182555669898368979e-04,-9.806322044956608863e+00
1.000076383758736043e+01,4.633493834811588594e-03,-9.779382325257561348e+00
1.000490923855867464e+01,1.265521703688083635e-03,-9.788241279673236761e+00
1.000368934684437683e+01,9.297645123235633718e-03,-9.803638050959310846e+00
9.996029550679740083e+00,-3.300506606412227650e-03,-9.803691482100266086e+00
9.999216554598277185e+00,4.216892437770094343e-03,-9.804096979478133633e+00
1.000318028088400624e+01,2.312562927747771613e-03,-9.799738097339753651e+00
9.994231917706873247e+00,3.125953081176685491e-03,-9.792413214051835624e+00
1.000905153177528284e+01,-9.529846007284922468e-03,-9.802716214892585711e+00
9.997226843786510386e+00,3.739714084920498036e-03,-9.793696187170967349e+00
1.000001866034062914e+01,9.746474280896076994e-03,-9.801720358773916786e+00
9.996783748586530294e+00,5.018186314519693277e-03,-9.801842415794382646e+00
9.997342598202092034e+00,7.245006480890372677e-03,-9.782953162242391087e+00
1.000203144781920983e+01,-6.541490562744787900e-03,-9.791632128209490915e+00
9.998096304177428451e+00,5.918638424982820140e-03,-9.796817351689691478e+00
1.000040069153353706e+01,-2.245261851956183684e-03,-9.788928166212471638e+00
9.995106359985431510e+00,-5.390848436579618111e-03,-9.800297984325345269e+00
1.000259714829185853e+01,-8.467152910922800006e-04,-9.794920544458330269e+00
1.000548180314724434e+01,3.237392620869078766e-03,-9.799878130656811237e+00
1.000698536603102440e+01,-1.226566099150422796e-03,-9.791468849816107323e+00
9.999499852454697191e+00,6.442919184353274042e-03,-9.795687326058720501e+00
9.995691110399542723e+00,-6.855478424158582308e-03,-9.799112149069120647e+00
9.995561159597141199e+00,2.359733134626664126e-03,-9.779929787774017669e+00
9.991951043868770199e+00,3.834608380673982121e-03,-9.811420586271799138e+00
1.000767579820703013e+01,-5.432284121626223747e-03,-9.798595442065439087e+00
1.000626549921415709e+01,6.232951796377281424e-03,-9.790135218280614282e+00
1.000141123888997008e+01,1.955103432823953897e-03,-9.797626908558926928e+00
1.000208918927777368e+01,-2.401220330019117419e-03,-9.800418542423379620e+00
1.000124801299557653e+01,3.851435326796289089e-03,-9.794695807258460007e+00
1.000225513353241524e+01,-2.518904980996120903e-03,-9.809315146695984922e+00
1.000025771799399976e+01,1.852822466625622319e-03,-9.786505107809444937e+00
1.000076647521705020e+01,-2.674269277969203704e-04,-9.785006122434840137e+00
9.990953992857075860e+00,-1.655010102308274644e-03,-9.788249070670893559e+00
1.000903317291598960e+01,-3.868965809787179837e-03,-9.793100077687483918e+00
1.000133500346353799e+01,-3.925315298239119566e-03,-9.805653324649048486e+00
9.997938738284240401e+00,-3.272973343934033798e-03,-9.787113031319126577e+00
1.000870415152903448e+01,-3.799100302975279980e-03,-9.801744375528006259e+00
9.996323458023240960e+00,2.906780235612527186e-03,-9.801993332730447150e+00
9.998160676577162675e+00,-1.086056899151615317e-03,-9.797136955568740646e+00
1.000096034755584284e+01,3.687005351308243924e-03,-9.785068675125767612e+00
1.000506824406690676e+01,-2.927479172307288855e-03,-9.793113692960595529e+00
9.998585192336962635e+00,-1.204360990284429947e-04,-9.793330398047899621e+00
9.993195160866527260e+00,-3.871724012345910751e-03,-9.805164856098540938e+00
1.000858867457573886e+01,1.848144944629535533e-03,-9.779359062410366121e+00
9.997804047501434255e+00,5.758732351037227845e-03,-9.792026102174739677e+00
9.998484103464841510e+00,8.288319867416108280e-03,-9.797841072019240372e+00
1.000026682516118726e+01,3.287653237527130966e-03,-9.798801856097881569e+00
9.995556707207404301e+00,-2.941505236104772093e-04,-9.793634292872658520e+00
9.999022307884541050e+00,-2.978632790613802879e-03,-9.796464307067733301e+00
9.992168390215249829e+00,-4.380913873300705356e-03,-9.776385715553351119e+00
1.000443613383922781e+01,6.184827691009076728e-03,-9.789004724015240910e+00
1.000179165630151701e+01,-2.200348236354032674e-03,-9.791038556167189100e+00
1.000213905470097409e+01,-5.148732290071842028e-03,-9.799062255428047763e+00
9.984363241512529186e+00,6.113217679635850853e-03,-9.786753315453394109e+00
9.995568928253829810e+00,2.936488898403312366e-03,-9.797355858190419653e+00
1.000654974465723157e+01,-5.103166966620432260e-03,-9.815431715660057677e+00
9.996427474516444533e+00,2.949097546053014354e-03,-9.794171189436443825e+00
9.989016695028700710e+00,3.380638298621162566e-03,-9.794941855604205827e+00
1.001041712822256713e+01,3.735446080839335565e-03,-9.790107090439178705e+00
9.992129494679209856e+00,8.305097076513737187e-03,-9.789551405273144269e+00
9.999068845796672989e+00,6.253466223739861550e-04,-9.777567005289217406e+00
1.000152794466533379e+01,-2.451668652432896067e-03,-9.788800674364036780e+00
9.998196732356515071e+00,3.165237040981694599e-03,-9.801594841173384864e+00
1.000035321974847413e+01,6.629376996028604405e-03,-9.797337683761929483e+00
1.000685233876945546e+01,-7.496438388923385484e-04,-9.799826237703758380e+00
1.000940056777075426e+01,6.196798183785884838e-03,-9.807045743409622318e+00
1.000068195349538058e+01,-7.628401913126072950e-03,-9.806494463412139595e+00
9.997509653696967646e+00,2.915013389437203124e-03,-9.801146949215628013e+00
9.990634277164819110e+00,-1.207220112300645860e-02,-9.802253621687825103e+00
9.988692643045535391e+00,3.596121624364943077e-04,-9.798034486287264144e+00
9.988109560849048663e+00,1.022816339200869175e-03,-9.800559485627093892e+00
9.993449930951619820e+00,-1.085835018215888705e-03,-9.794800942181733916e+00
9.997746114913828919e+00,1.875054504207293235e-03,-9.803795898102917405e+00
9.996461723321830917e+00,3.197952727390230079e-03,-9.803629660812452684e+00
9.999991431523698182e+00,-5.544767587482187822e-03,-9.800043209239657216e+00
1.000325584473023177e+01,-4.988053987625225630e-03,-9.783365643876715367e+00
9.996897596946956455e+00,-5.286872995734651602e-03,-9.794679430436964651e+00
1.000393476964339712e+01,-1.175104739071928823e-03,-9.799752427939338872e+00
1.000278511435640461e+01,-4.007603750327927493e-04,-9.781168437303524144e+00
9.996103857827733918e+00,-2.261363668826341274e-03,-9.790450127393532043e+00
9.988863746238520136e+00,1.077583788528258815e-04,-9.798927241102957097e+00
1.000829462356085209e+01,-4.015246260874124479e-03,-9.801078116518951333e+00
9.999107781263358419e+00,-2.739753146166409425e-03,-9.795291601887447186e+00
1.000310266514533808e+01,-1.037467483618029034e-02,-9.797860756498396384e+00
9.999785833803075619e+00,1.913839461153250430e-03,-9.792533077299568234e+00
9.991392853104457572e+00,1.039169682093077493e-03,-9.795877447487725931e+00
1.000411404181965835e+01,1.629148776392232807e-03,-9.801494755927071978e+00
9.993092545165557894e+00,-5.583117440878423467e-03,-9.806996731181790494e+00
9.999133205092860521e+00,-6.121472894537516307e-03,-9.792916182036684347e+00
1.000196754097206586e+01,-2.855434201536471983e-03,-9.796511554976321534e+00
9.995600099282466289e+00,-5.732357013965194877e-04,-9.784993448824193862e+00
9.997876548540689967e+00,4.337983132309885387e-03,-9.783845559641566325e+00
9.994295593313969661e+00,1.208908303446191643e-03,-9.797532215405935219e+00
9.991441843921418098e+00,9.936955292241124015e-04,-9.799574791054757483e+00
1.000128360482367995e+01,-3.435379490788344984e-03,-9.794106728169300169e+00
1.000195118421974705e+01,5.163848302112011585e-04,-9.782058258833503217e+00
1.000679742452300403e+01,-1.005528886302461782e-02,-9.800487745924305827e+00
9.988935347870684822e+00,-3.455198771324810049e-03,-9.784075926561310865e+00
9.999146354078371601e+00,2.850200438080747675e-03,-9.795207581904861627e+00
9.997109476347471713e+00,6.379312673808645211e-04,-9.797544110077858193e+00
9.999384295035223857e+00,7.476255965192772288e-03,-9.791901053411155686e+00
9.996123162355647906e+00,-7.869125544152011164e-06,-9.781095042964443209e+00
9.986576561327053625e+00,1.086716778557511413e-02,-9.784152831729473476e+00
9.994272651860502066e+00,4.032053622703085129e-03,-9.784992082834399696e+00
1.000353887110548357e+01,-3.777214949674705721e-05,-9.787170370004728781e+00
1.000222819841691013e+01,-2.089720586971068744e-03,-9.790847491449087059e+00
1.000772426359631062e+01,4.020248538937381405e-03,-9.804856147244082720e+00
9.990697125264579981e+00,2.944190759974730999e-04,-9.795591835056953300e+00
1.000971192538593435e+01,2.427372592394182876e-03,-9.788949114101260562e+00
9.998152102008077691e+00,1.311145060868172674e-02,-9.800038052453169612e+00
9.999482957255304783e+00,2.148466001832495011e-03,-9.803785454772752317e+00
9.998695491093339882e+00,2.896687405300048517e-03,-9.788525596354931579e+00
9.990655164141514888e+00,1.047590496095362859e-03,-9.793671768337739891e+00
1.000080902846009145e+01,1.224153380476608079e-03,-9.800116028819484626e+00
9.999332742120540019e+00,-7.926990343894276198e-04,-9.797458536028630149e+00
9.992786025935426863e+00,-4.429163848739413670e-03,-9.774156056588502395e+00
9.999244477635587103e+00,-1.685573764368021891e-03,-9.807695749423620768e+00
1.000505345319938755e+01,6.042759683109145616e-03,-9.779481848283843703e+00
9.996662675501356787e+00,8.904403887161927225e-03,-9.786992845554200571e+00
9.999043323936112060e+00,9.084223371072947320e-03,-9.804518554258191188e+00
9.996692896463649447e+00,4.114447549826039975e-03,-9.781552420128873493e+00
9.999176940451269147e+00,-3.980869548306550931e-03,-9.804258442424261588e+00
1.000011881826949534e+01,8.191910278995235065e-03,-9.782206694705145367e+00
1.000087256298140659e+01,-1.654891138339172822e-04,-9.786240116742375150e+00
1.000091004629342528e+01,-3.643046192475201187e-03,-9.795094337663707407e+00
9.989250286220405783e+00,2.747569421162592701e-04,-9.788681335068385891e+00
1.000209998679958368e+01,9.788843143592185214e-04,-9.796572366839763291e+00
9.999498233354424670e+00,1.336528647604206393e-03,-9.799941629690685829e+00
1.000445770776673449e+01,3.162796244372568458e-03,-9.797092216535752129e+00
1.000122368159354913e+01,9.720979287841083252e-04,-9.797312975657819223e+00
1.000388667917124330e+01,1.606885056885177295e-03,-9.790667505232393708e+00
1.000904764141664138e+01,-3.159958763303671609e-03,-9.779505489638886218e+00
9.991987450105995094e+00,-7.066745643593697578e-03,-9.798521243090236865e+00
1.000450988248435813e+01,3.727622087643383750e-03,-9.795438449473095943e+00
1.001057829583781000e+01,5.832009629901093936e-03,-9.782554101175666261e+00
1.000337925455375299e+01,-4.197751732792985579e-03,-9.806496953381923731e+00
9.996013579948199279e+00,3.875518321486055872e-04,-9.784975213441128972e+00
9.999083544618756036e+00,2.235330403427012065e-03,-9.804469891902503065e+00
9.997661061182469666e+00,5.599197194217312573e-03,-9.788288218210542624e+00
1.001163649088785057e+01,-4.200956931564235955e-03,-9.794464916453673453e+00
9.989734215092745728e+00,4.819499262403408556e-03,-9.782110706970087222e+00
1.000091411699549582e+01,3.751720456337093168e-03,-9.793694736599931616e+00
1.000633788952501391e+01,1.186559525968366741e-03,-9.793910109286724008e+00
9.994616479103978435e+00,-6.078151007719987363e-03,-9.793358909887592390e+00
9.997479246637112738e+00,-2.680789598299748114e-03,-9.796531015831877909e+00
1.000704750583572356e+01,1.337745257723299943e-03,-9.803819970814865670e+00
9.998294331198630758e+00,7.286081864760270144e-03,-9.787330306445106487e+00
9.998840877755675649e+00,1.714921553197595048e-03,-9.792274214366551988e+00
1.000011337031825320e+01,-1.167073750556018403e-03,-9.796796811427563867e+00
1.000217858321139452e+01,-6.192936867365267731e-03,-9.773645802710852593e+00
9.999829770686325503e+00,3.008419529460385280e-03,-9.804409755199463561e+00
9.991711024689239551e+00,-8.426942802683825640e-04,-9.796665283979899996e+00
9.991943581864607182e+00,-2.250579121408019002e-03,-9.801419437371587051e+00
1.000190982598723544e+01,2.418733846360608555e-04,-9.781032550337215525e+00
9.999801118665462951e+00,-2.865932914362085901e-03,-9.790929595827698506e+00
1.000380308080681502e+01,4.434377227523056799e-04,-9.795914238842623689e+00
1.000317915543993585e+01,9.934051043489671232e-03,-9.798907324456259005e+00
1.000597134565323110e+01,9.928066941262671252e-03,-9.809349741836250303e+00
1.000806813858490152e+01,8.342827615372512204e-03,-9.805595769213622859e+00
9.996630426106879241e+00,9.301859491970095734e-03,-9.809340014101024963e+00
9.991409961682714780e+00,-3.653228877683049186e-03,-9.783061207874544252e+00
1.000527797213486636e+01,-1.823511781289750659e-03,-9.794269089886467938e+00
1.001029396620548795e+01,-6.817564484099186218e-04,-9.807875957821950763e+00
1.000394353235212641e+01,-2.678293086436263088e-03,-9.800107362580593673e+00
9.993289449665404334e+00,1.210103376014752020e-03,-9.814473459246528364e+00
1.000419495845322970e+01,3.466399838575128824e-03,-9.774659483849454489e+00
1.000663608230343016e+01,5.401744886291055293e-03,-9.784968763645894185e+00
9.997395967343635448e+00,-3.493229440973686858e-03,-9.789519783002065267e+00
1.000361268324323127e+01,1.020627031455059773e-03,-9.795815089239210849e+00
1.000497791649312695e+01,-5.606458328432922279e-03,-9.807176475556996564e+00
9.999302310795357585e+00,4.298039126248928872e-03,-9.796663048080629821e+00
9.994371080223100279e+00,-7.006196538396508924e-03,-9.788741909305269218e+00
