accel_x (m/s^2),accel_y (m/s^2),accel_z (m/s^2)
-3.958218450121659023e-03,-2.951733486452137040e-03,-9.805859493819426120e+00
-8.619769808218790937e-04,3.679205674589259949e-03,-9.788937442846574299e+00
-9.816031095394354110e-04,-6.751298534273458135e-03,-9.798895008204311807e+00
8.237828027809108306e-03,1.230016115638698929e-03,-9.805937324848093439e+00
6.166241421198857299e-03,1.351831123415552253e-03,-9.810326271439755885e+00
-6.462912128375128580e-03,-6.022932181585918983e-03,-9.800276141619386649e+00
7.366136782063701901e-04,-5.410098024642055227e-03,-9.797799551961910325e+00
-4.496167299463386295e-04,-1.740899287356742096e-03,-9.797740210529127580e+00
-4.274394715911973520e-04,5.365837035282586785e-03,-9.802492784333548315e+00
2.091683432160324884e-03,-3.188285630312271465e-03,-9.814273918144889919e+00
3.632750245752826800e-05,2.464322695262764588e-03,-9.814884358057939906e+00
1.779263353372783404e-03,1.504867431523342080e-04,-9.806051127812155599e+00
-3.933655500791236916e-03,-6.034923118731458022e-03,-9.787274395219982992e+00
-3.510317719847445752e-03,5.956293653440378720e-03,-9.800230451842256940e+00
-1.366913910014958119e-03,-2.675832065767800010e-03,-9.801636784933817736e+00
-8.352039422194430796e-03,3.263146922206144104e-03,-9.811223833491515833e+00
9.477002526562711832e-03,4.575694183482107054e-03,-9.801600778899993927e+00
-3.391314659044716243e-03,9.836795739263993511e-04,-9.789533924164691925e+00
8.817381324181442978e-03,1.029856028959851531e-02,-9.794933446838694380e+00
3.925605173769622369e-03,-3.735779950087350643e-03,-9.813546138594189117e+00
5.360480253670221046e-03,2.072122132535047200e-03,-9.787604962592865832e+00
-2.756218641045710387e-03,-4.409859156643416468e-03,-9.805489487636533497e+00
1.571304450280301690e-02,3.055684044964035017e-03,-9.806282247350246450e+00
6.658841571448431522e-03,-6.910067131968711121e-04,-9.810700028223884317e+00
-1.903689778058673555e-03,-2.976890320639796229e-03,-9.807146214530364503e+00
-3.715810087701250288e-03,2.333625377145440941e-03,-9.807031270408913315e+00
-4.020360297469360725e-04,2.333280057988164260e-03,-9.802624564199909685e+00
-3.797998927025221473e-04,-5.352299207492495874e-03,-9.805391181036300807e+00
-2.053815739524987756e-03,-4.376746891693069144e-03,-9.810208994823533146e+00
1.742107890497707158e-03,-3.254244065688214629e-04,-9.790374497970264045e+00
1.309369392303018527e-02,5.286577235616560753e-03,-9.804042238694048450e+00
1.859023363843242656e-03,-3.560763088466037656e-03,-9.815501285380022978e+00
5.888646981414008422e-04,-2.718424081857725126e-03,-9.813248804492038957e+00
1.516411836164914062e-03,-1.409270947126216712e-04,-9.799820240218343415e+00
-1.508438004930559833e-03,2.630200469484005130e-03,-9.798404702034497760e+00
-9.422951341477033005e-03,-9.434041736142253273e-04,-9.805071024720888317e+00
1.169104872041716635e-03,-1.644667566840266179e-03,-9.798583319188965746e+00
-1.532700127301869471e-03,3.908330612431289500e-03,-9.804035342056989677e+00
9.515657456368349643e-03,5.390852857188919468e-03,-9.818028809359921283e+00
-2.416513168410564102e-04,-6.751996977755580186e-03,-9.806093858744846514e+00
-1.128635625063716813e-02,9.131531255193916369e-03,-9.809868180035898888e+00
1.654063286171970773e-03,-2.116324868999371750e-03,-9.791402340505658941e+00
2.144842686695774727e-04,3.205541047066215411e-04,-9.805618982451811405e+00
-2.229448812283245200e-03,5.524928292897658515e-03,-9.815405545519631403e+00
1.075153043969519565e-03,2.819046175160434733e-03,-9.802338382488390067e+00
-2.998556017053165615e-03,-1.355279806895149253e-03,-9.814940110125922601e+00
-6.347686289550144231e-03,-1.315433203335340936e-03,-9.811132796248632104e+00
5.650098334874843233e-03,7.976826375683391743e-03,-9.780517221311363585e+00
-1.095456550207688732e-03,1.037046825127656453e-02,-9.787770236751290653e+00
-4.962490039919308267e-03,1.408148440214508634e-03,-9.805011624314763807e+00
-7.218670595925716707e-03,-4.649724613883583768e-03,-9.791164063683476471e+00
6.642970388958397386e-03,4.472907499126731190e-03,-9.807465470958980802e+00
1.976237888186175694e-03,-2.677134820103731737e-03,-9.795333884357507515e+00
3.225989561955305493e-03,-1.791704295145611810e-03,-9.805971774075599612e+00
-4.739918355365760664e-04,-1.777461477370798418e-04,-9.786166169838701023e+00
-3.037629778576328432e-03,9.111006747390707969e-04,-9.787663878992933775e+00
1.185540217154765034e-02,6.817685688392535227e-03,-9.804596383197964116e+00
-7.770266721195974967e-03,-1.141024724674512703e-03,-9.783172340271235612e+00
3.116928778960104465e-03,-5.721296595301733103e-03,-9.807684453634760047e+00
-3.531609972621066809e-03,6.487771945648414425e-03,-9.791073968843811315e+00
-3.069507170130059744e-03,-5.322225864887344775e-03,-9.808937078462863113e+00
3.095180813746601246e-03,-1.096523739690970223e-02,-9.801646516325099867e+00
-3.822066832284102579e-03,1.003811892484786231e-03,-9.789410613637670622e+00
-9.669075414748371997e-03,2.618479263887539370e-03,-9.810032017414753724e+00
3.536738531109986493e-03,2.310650176135080943e-03,-9.784968615888983479e+00
-3.449926847017493765e-03,7.200461421626644636e-04,-9.811925791041558043e+00
5.048687262979420845e-03,1.201469301882658125e-03,-9.799081382640608240e+00
1.305212456090215764e-03,-4.398333333959225655e-03,-9.799382520687982989e+00
3.833833205371119882e-03,2.394497049177319106e-03,-9.809582469235595070e+00
1.327188031406390054e-03,1.124678601607655495e-02,-9.794063341026784997e+00
-3.923125027803723262e-03,-1.029740744147554510e-02,-9.809367643141058579e+00
-1.650750387470575247e-04,-1.897704929227435723e-03,-9.803200819225935447e+00
4.420987547393272557e-03,-1.906082738448944703e-03,-9.798536080292125305e+00
-1.057402818208819963e-03,-3.900712098696658674e-03,-9.811241382987853754e+00
-4.660908235647530200e-03,4.399979047401066622e-03,-9.802028271093448097e+00
-2.995115224821995239e-03,-1.772320324188719461e-03,-9.799439228400812496e+00
9.542860738065863865e-03,2.806106460783065835e-03,-9.818683993458531489e+00
-2.148129015934848417e-03,6.393870832382933696e-03,-9.805646025352494632e+00
-3.433395897096849173e-03,1.170935082373731869e-03,-9.795758482997884542e+00
-4.446146525798869500e-03,-7.502936907696156066e-03,-9.798843869658744765e+00
-3.043817954962788411e-03,-3.661321480705968887e-03,-9.791001088470986602e+00
-1.618758521777639197e-03,-1.090638627987321370e-02,-9.792699853172571522e+00
8.407872982038369289e-03,-6.973719545327499488e-04,-9.802846044146990678e+00
-5.503479770264388220e-03,-7.755519991781675609e-05,-9.801745125325846075e+00
1.024338779011676201e-03,-3.604004869091008856e-03,-9.805321229602450117e+00
1.784420424378936176e-03,-5.288426870298677460e-03,-9.791703938819201980e+00
-3.858608071197224790e-05,2.803619233815271214e-03,-9.791201640999233291e+00
-1.324990653484551693e-03,1.477364284902196994e-03,-9.796756268394513967e+00
2.326176557796814925e-03,2.801160881367907498e-03,-9.793774845398278472e+00
-1.300998575864629027e-03,2.077101585439404888e-03,-9.808422517358202697e+00
-3.815479261098599540e-04,4.931847208550627776e-03,-9.800106887312830750e+00
-6.896869481517730986e-03,-3.087555559440019557e-03,-9.790067708134531088e+00
-1.960151939276346192e-03,-3.463846349320143583e-03,-9.806679528444803395e+00
-2.687636617164177160e-03,-1.548604783570643783e-03,-9.796688797384060621e+00
-6.145292678322604365e-04,1.292167990213871447e-04,-9.818127901764427179e+00
-4.141131366091543517e-03,9.503692135733486299e-03,-9.795483482465920488e+00
-7.705525218658587291e-03,-4.858210137826939924e-03,-9.808962002588499374e+00
3.136135695011795475e-03,-5.681689685971680684e-03,-9.791835209744110813e+00
5.195332991138095630e-03,1.649305100612257890e-03,-9.802471693000057940e+00
2.576266961613080195e-03,7.709484026332111793e-03,-9.817155940831751693e+00
-4.214913259731650937e-03,5.066283448022611616e-03,-9.795434528592663170e+00
-2.533327130243534747e-04,-4.184628621709215492e-03,-9.807951532027962216e+00
4.864351457635705638e-03,4.464423091673613495e-03,-9.812943628018524933e+00
-4.578600699162915441e-03,-3.762474566320016516e-03,-9.808729904940287625e+00
-1.373738668548701858e-03,-7.815865637594990659e-04,-9.802455479796556403e+00
-6.260158882323807157e-04,-6.118233284448301550e-03,-9.812027625897085770e+00
1.662323659046362244e-04,-3.708978388233691650e-03,-9.813805539200084027e+00
-2.039096628174185636e-03,-5.342768110803731985e-03,-9.791932593806917495e+00
-2.002824660570778903e-03,5.958482885673351253e-04,-9.813502749140269543e+00
-1.148116939205446729e-03,1.234830732464418891e-03,-9.798089583694968852e+00
3.424701623091288248e-03,-5.430464177565587532e-03,-9.813951780344972065e+00
-3.261191214254964121e-03,-2.190736464248554515e-03,-9.801694108835011576e+00
-1.012847596544267335e-02,-6.659156969260955627e-03,-9.813122227197418113e+00
-3.491347821060176125e-03,-1.072407098817017767e-03,-9.806367278646012764e+00
-5.476341968833148277e-03,1.612420799134806982e-03,-9.792550683497905695e+00
7.588688694982959754e-03,-7.245384690923410177e-03,-9.807195105055992457e+00
-6.949693419714120940e-03,3.224346627983426441e-03,-9.794533636759711115e+00
-5.350344079074488210e-03,6.042998646909846817e-03,-9.796446048462538414e+00
1.295031257055912020e-03,3.675433424502023028e-03,-9.807164339608796411e+00
8.704805805594994280e-04,-2.572030896917599542e-03,-9.801356157395735735e+00
-1.016753496869174204e-02,2.297375562180757613e-03,-9.795615802514497261e+00
-1.161118099698403008e-03,-6.564286568866437369e-03,-9.798006210536994942e+00
7.148843973652635291e-03,9.230333737053281000e-05,-9.807002361798382140e+00
1.641817698293074682e-02,4.282839172079078507e-03,-9.800490172478372841e+00
2.645341399679087841e-03,1.886771157155651100e-03,-9.810478706662713932e+00
1.820344357014906786e-03,1.614543897204242942e-03,-9.803006305353656913e+00
4.739509952422007837e-03,4.236488913924087185e-04,-9.803633984157698933e+00
-8.299570419286797160e-03,-1.359161209117180826e-03,-9.814197126014605033e+00
-3.333861648251858038e-03,-9.357936018742281023e-03,-9.809812392274299242e+00
1.445163701668566308e-03,-5.803041783416914776e-03,-9.804966306659638420e+00
-1.338170570640483635e-02,2.166787462723860410e-03,-9.801249055481042305e+00
4.305424571086498807e-03,-2.226988915235250058e-03,-9.813451679005277484e+00
-1.119635003423625000e-02,3.345078248366909531e-03,-9.805118675642031434e+00
4.439723354842883829e-03,-3.648835397284175622e-03,-9.796221719329828659e+00
-2.431394138803526749e-03,-1.586696588076449369e-03,-9.787600192343861139e+00
-2.484330537080821962e-04,6.743440103966121153e-03,-9.809491330736706871e+00
-5.824892374285102828e-03,1.958044845350944557e-02,-9.797101276431774863e+00
-4.664621897907540293e-04,-1.605217039716251267e-03,-9.794432518566098977e+00
2.157461784012540060e-04,-3.152711015307200267e-03,-9.818193971250867236e+00
5.223849206779224846e-03,4.891929488713688164e-03,-9.795804009423477510e+00
-6.500970099125691175e-04,-2.313461802318099707e-03,-9.806938639052345863e+00
-7.028186845951040623e-03,-8.203842109835561905e-03,-9.798031628281211880e+00
3.480088051033015592e-03,5.825133786196820887e-03,-9.802418712892626118e+00
-2.508464676425570250e-03,-1.346476225124500388e-02,-9.803886209011395181e+00
5.763659692976498203e-03,1.061430523491898193e-03,-9.806679688231783487e+00
3.156762257052504739e-03,-2.233255832465893057e-03,-9.794699920341646049e+00
2.236550689383036189e-04,7.372549271241940309e-03,-9.802610776173841245e+00
-1.020369144761573959e-03,2.048616036032123097e-03,-9.800916229802286495e+00
-2.505435527199430246e-03,-8.076017070435367179e-03,-9.792397886254763151e+00
3.740171149516684657e-03,2.276806816385511852e-03,-9.804925394765291458e+00
4.689986305498271800e-03,-2.524190334056505922e-03,-9.820944112801724302e+00
1.804813583763983931e-03,-1.844004031119033510e-04,-9.811155135003053473e+00
-1.977057161758061319e-03,8.067770772689945163e-03,-9.800245584186257020e+00
7.439067085936013459e-04,4.122669849018051856e-03,-9.803441557004656914e+00
-5.518444526103841001e-03,8.743347125410801156e-04,-9.805134041562670433e+00
3.064609077447421562e-03,6.842416951629717338e-03,-9.797154850512265867e+00
6.726475551464783061e-05,-3.711211919465011791e-03,-9.805264198204723058e+00
3.371917921593308386e-04,3.611199356845727279e-03,-9.826749202963716456e+00
-1.701323956014077826e-03,-6.780308207537126888e-03,-9.792025328672739448e+00
-8.679412773415309292e-04,5.792087742709456019e-03,-9.811972518226246720e+00
-3.614678861051628077e-03,5.946476481516314687e-03,-9.787257564782480657e+00
-1.345553990012289796e-03,2.257731102459924893e-03,-9.803127894260708075e+00
-6.702068464570381558e-04,4.619582885797769885e-03,-9.809347442401515238e+00
-6.136795718606419606e-03,-1.047311180474024689e-02,-9.790120501093896976e+00
1.485718247812334693e-03,-3.383086233708130532e-03,-9.798605320784576023e+00
4.518976003349437984e-04,6.121530904267296486e-03,-9.813311560060371974e+00
1.145730980564946483e-03,3.138103069754876080e-03,-9.782775013780272033e+00
-1.989837659930531171e-03,-2.674701050079118618e-03,-9.809496602673672072e+00
2.313495079646166446e-03,-4.628465655640946058e-03,-9.791950957999613792e+00
1.242616310340365071e-02,-3.124940391568094885e-03,-9.790324653740835714e+00
3.531881457062450123e-03,-2.530071987010425270e-03,-9.803610590167016525e+00
-4.178855940613175439e-03,2.319827715741005960e-03,-9.822077150616797425e+00
-1.905332934070397017e-03,-4.030649128529195180e-04,-9.808550161982628524e+00
3.117672714923064043e-03,5.878938412940801564e-03,-9.805106904412967950e+00
-4.313245783620172497e-03,8.335353986512639580e-04,-9.801169123053245613e+00
-1.183302227380654461e-03,5.921773183844816942e-03,-9.811243070312462677e+00
5.806510998395535486e-03,-6.050310770624775514e-03,-9.803641796195060820e+00
7.508360381350536600e-03,-3.604579596679950357e-03,-9.797984410051212123e+00
-5.388502967673369261e-03,-3.729834194833721219e-03,-9.805342573607239487e+00
-6.056659337068301917e-03,9.972315164776059809e-03,-9.791607591326320303e+00
6.746139483648130181e-03,-2.634863454734156130e-04,-9.810040017691996184e+00
-6.442610382548045198e-04,-2.214913779256936967e-03,-9.798117738475587757e+00
7.492005599932615562e-05,-9.770791135513476333e-03,-9.790411466243103433e+00
-6.847079474227297027e-03,1.982134949148973372e-03,-9.801182427020386001e+00
2.669316030368012061e-03,4.495655218344266589e-03,-9.796321678485092832e+00
2.754724408680302335e-03,3.932855749093203991e-03,-9.803586514142420327e+00
7.629906610182531773e-03,-2.722556864936714806e-03,-9.797608044841501496e+00
-3.827958384551633387e-03,1.288715763230530598e-03,-9.802579365518141685e+00
-3.007625375707526603e-03,-2.687551969433224605e-04,-9.804729218088207077e+00
3.787788672737519603e-03,1.018357263704247270e-02,-9.794064304797252873e+00
3.769407336314256184e-03,-4.950221471469669170e-03,-9.805978184573369560e+00
-7.679273381663113789e-03,1.479304140473640394e-03,-9.801322114392471363e+00
1.234916251294350311e-03,-7.976052797724245136e-03,-9.805975121191186972e+00
4.421960806563357722e-03,4.760382987847316602e-03,-9.798478348733382859e+00
3.224050717190053879e-03,1.119244042999688327e-02,-9.801298150754648830e+00
2.744506321234795564e-03,2.614364806506213040e-03,-9.801605400271785840e+00
2.866457838528119108e-03,-7.544138772911542640e-03,-9.795001314411850402e+00
2.380222434366348425e-03,-3.282254427324004815e-03,-9.799951487879400958e+00
-3.502696135399484181e-03,-1.330172744424593968e-02,-9.811272977219273272e+00
9.354418428637178030e-04,-4.995895653937796471e-03,-9.797225057326892639e+00
-1.640198981449305553e-03,4.582324205381221177e-03,-9.805892960150909943e+00
-4.445599833561737595e-03,5.484291349522788829e-03,-9.805917654720115451e+00
-6.150800850023742904e-03,8.116904126559805477e-03,-9.801120097536289322e+00
1.456875584310676937e-03,9.655064900310556452e-04,-9.799957408415666649e+00
5.851612688048483599e-03,1.653812600360914358e-03,-9.798555464791089520e+00
-1.255884174606193733e-03,-1.758194199281834774e-03,-9.805243971053648977e+00
2.085220491749707362e-05,-2.971284687336936316e-03,-9.803701947669964056e+00
-1.627185485840919538e-03,-6.065029069570205926e-03,-9.797730713639120737e+00
-5.848758120367007068e-03,-4.643653784441825055e-03,-9.800855121320534380e+00
-4.509130546211909986e-03,-5.105556079947615042e-05,-9.803633879107401583e+00
-4.329260354449886682e-03,3.951242379395363859e-03,-9.794850207588750024e+00
-4.745798955800000635e-03,1.059026525750103066e-02,-9.802277907323849959e+00
-5.361787467619224395e-03,5.848426626830583418e-03,-9.805753240373340063e+00
-1.875062171969192181e-03,-3.836757290725191852e-03,-9.785428885332970950e+00
1.739742676956591546e-03,2.373669760286984320e-05,-9.806422966470227820e+00
7.305365174474668516e-03,-3.404018581404335457e-04,-9.802840569303507223e+00
-3.252602020260373077e-03,1.004036989085962473e-03,-9.799430056401202904e+00
-1.466455412408374133e-03,-1.776000730883825918e-03,-9.816338770710189010e+00
-4.087543958030624355e-03,5.602951855547907804e-03,-9.815741128068678378e+00
-4.307757313066515694e-04,6.525112534305307910e-03,-9.793764034264805574e+00
2.109487514277582059e-03,-1.699165086026462740e-03,-9.801681970449727999e+00
-2.194058366093267279e-03,-1.441760962278689721e-03,-9.808983777322776376e+00
3.533157565884530952e-03,-2.873515743524053621e-03,-9.794119916051592156e+00
2.637053922028858959e-03,-3.033979964512295135e-03,-9.802013606141523283e+00
5.764626933619987001e-03,-1.066765833931218252e-03,-9.800507127630236681e+00
5.713097484927361601e-03,1.023299053632908311e-03,-9.789457316732589121e+00
1.394044041581768726e-03,6.348181578003748646e-05,-9.810161804811396991e+00
-1.099406855327139144e-02,-8.824403612539492413e-04,-9.799490816730452636e+00
8.988492042342376837e-03,9.183942311909937609e-03,-9.799016604847825107e+00
7.295023531607501381e-03,-4.885080836976160232e-03,-9.809634203480570136e+00
8.226089432322619341e-03,4.109502945134321621e-03,-9.808482718159060809e+00
3.847318332401813718e-03,8.353118144749640747e-03,-9.812804567970523806e+00
-9.612442722113662824e-04,4.219299099991231797e-04,-9.802779597191852545e+00
5.989931538340008410e-03,8.169131068345639526e-03,-9.813514724198594052e+00
8.505686723947813305e-03,4.319000928224253459e-03,-9.781945000235232612e+00
-2.838232660259977288e-05,4.721965032143095320e-03,-9.811963245336208672e+00
4.633310393754350165e-03,-1.822366509415017074e-03,-9.805285042183554012e+00
-4.989234021450622905e-03,4.120190249056896771e-03,-9.810752406232440492e+00
-2.177185754105665709e-04,-2.892044872358236728e-03,-9.802559653677620943e+00
-2.443353185074136676e-03,3.505688106634945959e-03,-9.793464254054667251e+00
-1.085230803766940033e-02,1.092353768198677313e-03,-9.813393550516858355e+00
-7.830771064980488264e-03,1.501315033325270783e-02,-9.820108563171915605e+00
-7.293222386332178300e-03,-1.400495666346058708e-03,-9.805739067878043613e+00
1.232535542903377516e-03,2.249478143865863734e-03,-9.807607464783767881e+00
5.080257388792051854e-03,3.496959618761665608e-03,-9.802006913864556026e+00
-2.661544234181984631e-03,1.287732877522940363e-03,-9.798736946733146880e+00
3.499045271177191486e-03,-1.858565743904722284e-03,-9.794115901271775115e+00
8.903785333105519078e-04,-7.155676130903258422e-03,-9.793381838128015104e+00
-3.620397268474307047e-03,5.531345196712707767e-03,-9.808024520568295657e+00
9.560487553309491432e-03,3.452003720340037982e-03,-9.809724891566139249e+00
-3.589092534171792193e-03,-7.302225125258216855e-03,-9.804241273950491831e+00
6.601206803444420457e-03,-2.988996772548990657e-04,-9.803764229356849214e+00
4.398333939562262124e-03,-5.248842162797992842e-04,-9.800700831313811534e+00
-3.619918714670559458e-04,2.947256099798696745e-03,-9.797682134890139949e+00
-9.317350400579882050e-03,6.526262082185966922e-03,-9.793916942533332559e+00
1.994283899274365817e-03,5.973944609635208330e-04,-9.802423410307545382e+00
8.341238089006364513e-04,3.569170868033420731e-03,-9.796827446328233435e+00
-1.296546459407579670e-02,-8.730612849611249851e-03,-9.796145053990333196e+00
-3.045444744254341331e-03,2.109782597018986915e-03,-9.807045896789295725e+00
2.157120829874771984e-04,8.004884915947276230e-04,-9.805297406602946353e+00
-1.138924716198350768e-04,-5.227205627432757185e-03,-9.812087838787082461e+00
3.267606508631407981e-03,-3.011472532781746952e-03,-9.796940289208320607e+00
5.367507426942952006e-03,-2.875580876518357004e-04,-9.811170927092700111e+00
2.649938618138488432e-03,4.632266370357119439e-03,-9.789059858167297179e+00
-9.306040770529754600e-04,7.556971240444286878e-03,-9.799649808261294837e+00
8.053403313851405579e-04,7.485957107872918828e-04,-9.807526033662467668e+00
5.673163140063227673e-03,-4.924909974857960733e-03,-9.815736540083449313e+00
-1.814892997689465572e-03,-1.193950154331846611e-03,-9.820250335249154361e+00
5.188241770450613150e-04,-2.663297413844291969e-03,-9.801594152013525019e+00
-2.231515522305291353e-03,2.498203260609066501e-03,-9.804234231748138129e+00
5.931880914760296643e-03,9.235831199760040225e-04,-9.795592213645772262e+00
-7.976706170623438466e-05,-6.366024387288040688e-03,-9.803673792051178282e+00
-6.478188175817936774e-03,1.467795851731554897e-03,-9.800477327445184628e+00
-7.961749400639616487e-04,3.942239199153341547e-03,-9.802394717823933235e+00
-6.022770603204564629e-03,9.347951233828232561e-04,-9.811464947942049264e+00
3.556801038657503907e-03,-1.358803788344785509e-03,-9.797765158871637681e+00
6.666491941833500162e-03,-5.732782273287131275e-03,-9.800396923938814453e+00
6.653741376938481205e-04,-6.569792913512618494e-03,-9.786200413717109470e+00
7.465539468609868126e-03,-7.377009959715907783e-04,-9.801273110712674708e+00
-9.661974189880313552e-04,-4.260462923566927379e-03,-9.807050929401770034e+00
1.053011426108360149e-03,5.019653988950044908e-03,-9.812118568229337257e+00
6.440331012021635300e-04,1.081556036335129881e-02,-9.798051042253115739e+00
-5.021464141048394975e-03,-1.283212720833378645e-02,-9.811080972109801124e+00
-2.219420501592687250e-03,-3.759398699103835752e-03,-9.800718345718802738e+00
7.047692682346257554e-04,5.527981572001725019e-03,-9.798626266735391610e+00
-3.800735524987525205e-03,9.169435439047212083e-06,-9.813841032469646564e+00
2.990303496322588642e-03,6.602265245332062348e-04,-9.809046585726846956e+00
-5.648015639827694452e-03,-1.926135091027032092e-03,-9.789378881968486823e+00
7.014725524112351909e-03,-5.985879404117276474e-03,-9.797354659954532252e+00
2.908693177951034072e-03,-7.028018850777234712e-03,-9.802431042571333464e+00
-4.545805682159046249e-03,7.699693873941151727e-03,-9.798651451982696159e+00
-5.994158479023300058e-04,3.511010862565571930e-05,-9.795944257877746253e+00
-2.632802345460325769e-03,7.252438903677118319e-04,-9.810007817165560695e+00
2.150988257868679480e-03,-2.539919682274982028e-03,-9.801844423006212281e+00
3.459769804369593194e-03,-6.278131107059188934e-03,-9.784403787824620835e+00
2.148079069933504521e-03,-5.281937060294070521e-03,-9.819473289555824991e+00
-4.284040931352339245e-03,5.803516646264802624e-04,-9.796369153531784946e+00
-2.644307766973937740e-03,5.249043713130187826e-03,-9.803077134839012885e+00
-3.822103414241238405e-03,4.988939958404654644e-03,-9.793766743159256549e+00
-2.208405448010562332e-03,-1.034158207967804301e-03,-9.797994057138211588e+00
1.258564413305080691e-03,-2.798766614234560624e-03,-9.823108449534398545e+00
-1.668161719175402426e-03,5.895247831717533547e-03,-9.809853005287164862e+00
4.885243050216496810e-03,-1.687950126524540104e-03,-9.806305400632647107e+00
-1.408179797253439336e-03,-2.827472712235342463e-03,-9.821167067001209006e+00
-8.116985036876019771e-03,1.485665443993659709e-03,-9.802457308000994018e+00
-3.148332173115188631e-03,-3.065260172117502749e-03,-9.795135543006793455e+00
3.743278725726184933e-03,-3.031323469292402078e-03,-9.800044029679025215e+00
-1.293561260285603113e-03,-4.608057854189491313e-03,-9.797080308018148997e+00
4.504792979217803932e-04,-4.950490221931682332e-03,-9.810158424099910235e+00
-2.231154990030948231e-03,-9.154624988608500713e-03,-9.802540560910609102e+00
-7.479948006216361345e-04,-1.509498723401279593e-03,-9.794664257270694563e+00
-7.757085089544665454e-03,5.239398043207383997e-03,-9.793775143089213486e+00
-1.814877212170903789e-03,5.696934671592554858e-03,-9.813744702382072305e+00
-5.319329845914010741e-04,3.218774772509496243e-03,-9.799655327465355725e+00
4.549732413137925688e-03,-2.103967695461870374e-03,-9.796071503037376615e+00
-6.313577776616700540e-03,-3.629315064252762110e-03,-9.814762749607574221e+00
-2.449409747796134958e-03,-1.692138003477847987e-04,-9.810312402637601181e+00
2.958767628285756813e-04,4.098292069111298189e-03,-9.804705786662244904e+00
-6.672227467481702846e-03,-9.665496613834659301e-03,-9.804798529838469889e+00
1.108489447334874050e-03,-1.506486569844254489e-03,-9.813582093994527966e+00
-2.996569309557269283e-03,8.506894309167241375e-03,-9.800371704289192465e+00
6.392207842594760901e-03,3.395163286046027663e-03,-9.810584002746214338e+00
6.006438834331254703e-04,-1.095027590894790369e-02,-9.796660255998324018e+00
7.747679783915165574e-04,-3.208176968010871197e-03,-9.792842999758406108e+00
2.403368638139520303e-03,-6.890516239976472029e-03,-9.808996990424068585e+00
1.033667726422914622e-02,2.609519322783547535e-03,-9.797043459459350956e+00
-1.190070294036500546e-02,-1.959368575851368286e-03,-9.811061682378841908e+00
1.391190079151542573e-03,3.241926350703896488e-03,-9.797372441246983144e+00
-1.968135238854903935e-03,-1.319269971465045915e-04,-9.787185367523548507e+00
-1.161608802394416794e-02,-6.605228592861437341e-04,-9.822450812461474001e+00
3.029672919769540659e-03,7.862618308887165883e-03,-9.811342097356021696e+00
4.416567595309906120e-03,-1.987009231302951269e-03,-9.805830074959226650e+00
-1.917925026551882449e-03,2.524882378875858632e-03,-9.803533777180058806e+00
-1.101596758124155293e-02,5.722917943631103919e-03,-9.799529085890654301e+00
8.724317671814125694e-03,3.633456325354873003e-03,-9.802787755543709736e+00
-1.806668517322536360e-03,2.143003314755677780e-03,-9.787729037528018594e+00
2.411485152234380805e-04,4.354294919610837873e-03,-9.829278483863470584e+00
3.910263359591894974e-04,3.113685143030670358e-03,-9.799878252909826060e+00
7.634253959867999019e-03,-4.434724624290819692e-03,-9.799123348643359321e+00
3.585789224885744825e-03,4.294117591918441418e-04,-9.803140580024296113e+00
4.765694738165861775e-03,3.554898630762042770e-03,-9.793695718995509836e+00
2.954785588899408975e-03,-1.190783584556278111e-03,-9.804126899747851454e+00
-3.566199519925829318e-04,-4.770738147453389838e-03,-9.818848176901903813e+00
-1.881168704505993159e-03,1.322424497492476246e-03,-9.807832521105741108e+00
-1.693882002137038012e-03,8.009089866363604607e-03,-9.817641221018615028e+00
1.358044477601116733e-03,3.843548320059439038e-03,-9.802684738061145708e+00
1.398350073904527230e-02,6.524685163042905252e-03,-9.804871882932037153e+00
-8.961209534498576837e-03,-5.583959166970378814e-04,-9.816416155646091823e+00
9.421352890910476277e-04,7.967496757006556091e-04,-9.798605662589878307e+00
7.316060534189837428e-03,-3.440531358904038903e-04,-9.797185730686670979e+00
9.364605923734828016e-03,3.025802984167578233e-04,-9.803522147518947349e+00
5.071239706601861179e-03,-1.413263599407079307e-04,-9.807828391737672291e+00
-6.296792067388861693e-04,-1.631511026816038525e-03,-9.802915324632785143e+00
-8.316338634658724388e-03,1.231864312294497820e-03,-9.798050833867455012e+00
-1.082517707650341825e-03,3.662411960087440070e-03,-9.799247436414068702e+00
-6.513150389690300530e-03,9.777281090957449985e-04,-9.805835120723928711e+00
-7.741012188509527672e-03,3.964883782361676087e-03,-9.798341159411952717e+00
-3.844429601742023299e-03,1.059162447865849566e-02,-9.811918144582829626e+00
6.045816662505885952e-03,-1.320543679248185887e-03,-9.796629372178413675e+00
-7.253744554893579340e-03,-1.146726299158901639e-02,-9.799465039509035691e+00
7.237102344988783666e-03,-1.679956410796913007e-03,-9.807913970355045308e+00
8.827130071999381589e-04,-1.442107554773553249e-03,-9.818141748696330495e+00
-3.269181704662874402e-03,-5.920593188465180130e-03,-9.788476193612819287e+00
-1.157722876574311666e-02,3.385032969524575698e-03,-9.798023850650155353e+00
-9.999314714964901984e-03,4.560240395061353549e-03,-9.800218448378517522e+00
-6.121865046953198480e-04,3.518483980028130030e-03,-9.805120901805850053e+00
-1.196678823215438156e-02,-1.732891410480468864e-04,-9.800655260546776049e+00
3.165078441709238076e-04,-2.082626616581615211e-04,-9.823808449263433218e+00
-7.999863461868768344e-03,-8.757859999070576051e-03,-9.801827536601617652e+00
1.026087670329459004e-03,-2.402968348559772743e-03,-9.800753249464339234e+00
1.019954530113807451e-03,5.956621709536005088e-04,-9.808490084592969893e+00
-1.560207653676204615e-03,-2.644407272002698237e-03,-9.799505864630978280e+00
2.292862574347153228e-04,-2.344165331015777339e-03,-9.794095519006130957e+00
-5.380217327450948807e-03,-3.454498820148477634e-03,-9.797593135649950824e+00
2.531320285454324338e-03,7.080251581031142549e-03,-9.800570621502336266e+00
-1.545919397878720621e-03,-1.179281731109080680e-04,-9.811057951971999813e+00
1.953351107744957359e-03,6.793591924410161999e-03,-9.805312860314785439e+00
-1.303423432514560793e-03,4.628741387314744965e-03,-9.806373649746278787e+00
4.693433804411077138e-03,-3.268167501259249593e-03,-9.806953634114798035e+00
2.115223197200326224e-03,2.136574705079916895e-04,-9.804170662647937462e+00
4.512098037302944564e-03,-6.467932403257021547e-03,-9.804240456125480563e+00
-6.577089730681825314e-03,8.552388241789209925e-04,-9.802640723619573393e+00
4.028482817808356521e-03,7.671728199697290008e-03,-9.798354847286855573e+00
9.261628769095491334e-03,-7.861236813795798722e-03,-9.798984902313145895e+00
6.469445213378601130e-03,1.075262014882614504e-02,-9.802403967140939756e+00
8.537253940531066079e-03,3.262956082737381198e-03,-9.794002036268189215e+00
4.963033326559214940e-04,1.250772955226079914e-03,-9.793507277516795284e+00
-7.059673173421023885e-03,4.407418437091937050e-03,-9.792960632795171705e+00
-4.212155238426152498e-03,3.235928589292888253e-03,-9.792185572208378375e+00
1.031514622282423240e-05,5.565034039850552281e-04,-9.796779209570129154e+00
2.207534881389489750e-03,1.037091170577121232e-02,-9.800573573545714012e+00
-1.738786744657414918e-03,-3.163236017960302342e-03,-9.810445914218654195e+00
-5.864623587819083408e-05,9.090185805409069491e-04,-9.814393720439646529e+00
3.151390232403692652e-03,8.289793634811579116e-04,-9.801286192322363533e+00
3.715127432851195351e-03,8.448963830486849302e-04,-9.806140232135970081e+00
1.222997615830430460e-03,-4.836588523705321468e-03,-9.795092687084325789e+00
-1.507322805577107584e-03,-4.313142116090021988e-03,-9.801920405897050159e+00
1.114463819042460675e-02,3.339552512432937634e-03,-9.808613097313733320e+00
4.186693858782795756e-03,-1.272885384478675969e-02,-9.808803863832604719e+00
-8.489335289313671958e-04,5.587003645472041376e-04,-9.787639516841226239e+00
2.748449604521201791e-03,7.836709688020434758e-03,-9.797122182821288661e+00
-2.031530848556756998e-05,9.783078893201983470e-03,-9.791959498761663383e+00
9.822812015653237597e-03,-6.410357409633485326e-03,-9.817033659077015528e+00
-2.121690954510071971e-03,-2.135941886574295456e-03,-9.802884910812535324e+00
-4.388323554494079196e-04,8.620648921055424491e-03,-9.792142527472796232e+00
5.580578440635943632e-03,8.264543932393508168e-04,-9.810905910898283011e+00
-5.152859476973505916e-03,8.372983995381135663e-03,-9.803813293247605642e+00
-3.118563690734885499e-03,-3.381654562628415642e-03,-9.810483676628342309e+00
-2.379559446149498696e-03,3.345498381581442468e-04,-9.813940606906506048e+00
3.588625033123746168e-03,2.736646062547410090e-03,-9.791134182516746165e+00
5.661094089364604454e-03,-9.243649770635797847e-04,-9.796611968954204386e+00
4.452550837428339615e-05,-1.328625052819592395e-02,-9.803634292294875152e+00
-4.111692121022521122e-03,-1.430032847239796727e-02,-9.799734346362889426e+00
2.765237552349897082e-04,-8.516195033292348103e-04,-9.812638862908045212e+00
2.167828542258609225e-03,1.238733222879881543e-03,-9.792167572297131528e+00
-7.192614330976561648e-04,7.672685753966656738e-03,-9.807358809382799691e+00
2.378796273836948638e-03,-3.675357804007920001e-04,-9.815625593523046533e+00
1.873451616836225913e-03,4.256579332861127468e-03,-9.802953520631538353e+00
3.718367733522074444e-03,-3.541621283478021010e-03,-9.804112609865072159e+00
7.686707264287360314e-03,1.626128759643242962e-03,-9.797266736247433272e+00
5.831879700623490530e-03,-2.079109871806726628e-03,-9.806479727779763067e+00
6.469651970097141380e-03,-2.911803906527860291e-03,-9.794507534963374340e+00
1.174714899448013345e-03,-1.018617435744864760e-03,-9.805583092016949109e+00
-1.573447336745288942e-03,-5.879000306290698211e-03,-9.799134247463854308e+00
-4.739594489215181138e-03,2.799793604021400678e-03,-9.795689568658376700e+00
6.013282972328916603e-05,-6.735478833822086502e-03,-9.815955289705501130e+00
-3.333391656347341279e-03,5.983344060389687857e-04,-9.794838365905061295e+00
3.578094368140746599e-03,1.266485111669097717e-03,-9.793210498388811303e+00
3.958052998226619518e-03,1.604836915631631009e-04,-9.808230747815121831e+00
-5.365534902408926159e-03,-7.345797996543308207e-03,-9.786743228240020187e+00
8.470447239518814377e-04,-1.009266278377423005e-02,-9.806223653600300239e+00
-6.683242919208333519e-05,-2.933248974690087600e-03,-9.816298176354253613e+00
4.521901645603907511e-04,7.929470811309657571e-03,-9.800768280966225987e+00
-4.317846508631018564e-03,-3.859326509834108687e-03,-9.806179227622203953e+00
-3.565602399708086689e-03,4.626534042813306791e-04,-9.807962143783852227e+00
6.307133136808331514e-03,4.710532291212030098e-03,-9.806546216982267694e+00
-3.086476596143234059e-03,1.925469957399449398e-03,-9.809651737284424300e+00
4.736025729039974701e-03,-1.411344792857753333e-03,-9.807945611399459196e+00
2.433269826042610239e-03,-6.185779136842144794e-04,-9.810132195403292954e+00
3.904538414530898689e-03,-8.077543929107546504e-04,-9.801964010709648178e+00
-2.566461449139291213e-03,-2.956632151296016784e-03,-9.797602847784984803e+00
-1.411230982920451708e-03,2.825380616757171542e-03,-9.812284430027434112e+00
-2.910339246972805122e-03,1.164867071735332417e-02,-9.800098629145884033e+00
-1.873149337110595358e-04,9.578435815195119035e-04,-9.806265159084315286e+00
-8.125877197651505072e-04,1.527286055517905906e-03,-9.810453538468594914e+00
-4.151806640015008837e-04,-4.012428265595554405e-03,-9.815203288930584691e+00
2.513875538082889927e-03,-3.687575448547604669e-03,-9.808481960224144203e+00
2.331483629931650325e-03,-9.689300071692809107e-04,-9.794289081765260363e+00
5.436335991120787477e-03,-5.820286632274274639e-03,-9.811594489176895806e+00
-1.899855121289336420e-03,-1.206906494732902860e-02,-9.803670328815503154e+00
2.610439033323800088e-04,2.805349205656711663e-03,-9.803620901298989665e+00
-1.715627934318510531e-03,-7.247292735703676596e-04,-9.797876307085838121e+00
2.862054078093913875e-03,-2.909593958848857333e-03,-9.818780837862048472e+00
-3.434047155471178867e-03,-4.053206701338676540e-03,-9.798073402850873137e+00
-1.460433703135824955e-02,-1.427644723187904141e-03,-9.799048355140818956e+00
-2.772691441643199747e-03,2.585938461840228252e-03,-9.797510312540243405e+00
1.877544510436256718e-03,7.258798748639654942e-03,-9.819240285130137025e+00
-8.529836252126686558e-03,-1.068280661319567955e-02,-9.817591531283826001e+00
-6.418309058790438310e-03,-1.571551836927203780e-03,-9.786356287199703630e+00
1.556195822722532913e-03,-6.213600326665406209e-03,-9.796316271827894440e+00
-1.021588054380138553e-03,6.009327882683089019e-04,-9.801877557768470695e+00
3.754387044277673630e-03,9.383975232587038300e-04,-9.811023708353976858e+00
-1.998185581377362029e-03,-4.062515621415699330e-03,-9.802874475661914389e+00
4.900714419114735564e-03,1.086395277512889473e-02,-9.800316794587077496e+00
-2.724391141892878575e-03,5.994100953534353508e-03,-9.797734089116259426e+00
4.524482866681799921e-03,-2.698057298450226571e-03,-9.790581945260285579e+00
-5.241780719867563700e-03,2.148435326889488323e-03,-9.811577831751939982e+00
-2.476333808744277543e-03,7.652476934864991696e-04,-9.812761428020580823e+00
-2.661229154116720886e-03,9.570266873820449825e-04,-9.801576280752497539e+00
-2.743657153501672784e-03,3.231692544759841822e-03,-9.791902251134327884e+00
-2.673428299718322472e-03,1.915449442627917666e-03,-9.790648091220061744e+00
-5.686328327217444155e-03,5.228151674177951638e-04,-9.802111410646759282e+00
1.767449854420772507e-04,-2.036222139608105750e-03,-9.803536032448503690e+00
4.952622142207558503e-03,4.451610454338383481e-04,-9.808447977282861885e+00
4.736920559904755738e-03,-7.032717143427200633e-03,-9.806465375240188465e+00
3.911021514309678815e-03,1.535278038420522569e-03,-9.798433500205078417e+00
-1.299225462935075202e-02,2.031757457176614629e-03,-9.799545097054027210e+00
4.602371708263087134e-03,-4.618758016947678222e-03,-9.809958364071032832e+00
5.301229795750994796e-03,-7.046044617910187052e-05,-9.798098070787226277e+00
1.009196977217818522e-02,1.526659162665979516e-03,-9.799369351807396100e+00
4.691410962517638533e-03,4.823117184890043409e-03,-9.797487430926747010e+00
-4.990623483800461519e-04,9.795185753543909218e-03,-9.806426378642111530e+00
-3.224065821277460452e-03,-3.957934445948290206e-03,-9.805172615549279769e+00
3.423725014006145711e-04,-9.412383487745592039e-03,-9.802000392864052003e+00
-7.469850702613340006e-03,-3.378574367152217123e-03,-9.782219651546766315e+00
8.888912619741307433e-03,2.881386912215518504e-03,-9.801752814843933237e+00
2.102457038991315669e-03,-4.768490882523298592e-03,-9.790542342789786190e+00
-3.789895595542173024e-03,2.280030619661274714e-03,-9.793224163252554959e+00
-3.763275312657586840e-03,2.078962618448713419e-03,-9.797043770177193522e+00
2.781305352536795087e-04,1.338405437737184150e-03,-9.814238666656358134e+00
3.137005723299494085e-03,1.127903063828091315e-02,-9.799739656218829253e+00
-2.901169172806599642e-03,-6.873945625772033378e-03,-9.809297398938474188e+00
-1.081996815827938408e-03,5.129402818402466376e-03,-9.783406842145266680e+00
2.076306813148312558e-03,-3.419266428557272367e-03,-9.792035506371606246e+00
6.427215941304865662e-03,6.507556899582994311e-03,-9.813998303845217208e+00
-2.892434367364169184e-03,1.293019845260695751e-02,-9.806617301655652597e+00
3.535181559445418030e-03,-2.338099243701605937e-03,-9.798121219780894009e+00
7.740399990642945517e-03,3.418095966228116135e-05,-9.797365390452688061e+00
2.368233208758730758e-03,2.504207577427501261e-03,-9.809757248157959353e+00
-4.288704733924404711e-03,5.020175085180183204e-03,-9.791014513821414411e+00
-3.749461441815476071e-03,1.065666648490430635e-02,-9.793240024657231757e+00
-3.554757975562144491e-03,-4.017226562875760368e-03,-9.805665946238484310e+00
-2.396695884023395187e-03,-2.657549365924694127e-03,-9.806038327091561868e+00
2.875448418005637982e-03,6.212231307614537491e-03,-9.794282579672186628e+00
6.043319738862486072e-03,-1.829105329896136591e-03,-9.811607579349084673e+00
2.044292553624892528e-03,4.755309798879109665e-03,-9.800219834047831924e+00
-2.910760643333764816e-03,3.603106632993205612e-03,-9.792537770280874909e+00
1.395611373993747807e-03,-4.575147606793985612e-03,-9.799880818383657655e+00
-2.499982943436336851e-03,-5.968550165024226473e-03,-9.801461462219252851e+00
-8.313161653239939039e-03,5.608340615440941118e-03,-9.813697115042080199e+00
1.037891013291347177e-02,-3.086687953155936841e-03,-9.809625470118129797e+00
4.887924877380131310e-03,-4.735947363110765422e-04,-9.810298380907536142e+00
-4.072928997931762364e-03,-9.201885230635146323e-03,-9.800616919334347088e+00
4.306937052840330467e-03,9.319097653360619224e-03,-9.793711719193268550e+00
6.156834024351727150e-03,-4.030492237948353831e-03,-9.799374772712486248e+00
3.662395004656776414e-03,5.723242631533874587e-03,-9.800429481963057299e+00
-4.197265204436593893e-03,-4.052397376926896062e-03,-9.798338940398124919e+00
1.650146708835087753e-03,2.160012172748481969e-03,-9.801253054394214459e+00
5.564235790799153215e-04,1.782595873534301633e-04,-9.793401901531442633e+00
4.656240322603989387e-03,1.119617865979664981e-03,-9.799359721363323672e+00
6.174294352718430511e-04,2.441216582445674115e-03,-9.801108091366186770e+00
2.924765061195327412e-04,-2.206274671922580928e-04,-9.808278556493885247e+00
3.286017446136687073e-03,4.551684088816936730e-03,-9.792262882473806940e+00
-6.998235458124161222e-03,1.017335306059006118e-03,-9.804637899345783225e+00
1.468317101184306609e-03,-5.940235081019732896e-03,-9.811314313859375247e+00
7.265387164106083644e-03,7.508345416222601994e-03,-9.790408111687677106e+00
2.573071475602308530e-03,5.082384286617227902e-03,-9.800295058276041971e+00
5.697868434604013398e-03,-6.313809326563948931e-04,-9.806700398761673654e+00
-7.747455847474842353e-04,-2.330807853604375830e-03,-9.820980741636519795e+00
8.431424471035377233e-03,-1.023614126761030266e-02,-9.804466333010324774e+00
-7.736797541616380336e-03,1.424470418809970374e-03,-9.796756371803519770e+00
4.592129195768316838e-03,3.885711223027852722e-03,-9.811213759046513161e+00
-2.596764550182781382e-03,8.348182950672486044e-03,-9.800776684408196715e+00
-1.186421732658326155e-03,-2.985903878262251808e-03,-9.796194097075028751e+00
1.424356128929926690e-02,-2.129019301723111997e-03,-9.794890744629979551e+00
4.994774854539418829e-03,-1.124210536186420403e-02,-9.789722580155055809e+00
-1.320133533681176969e-03,3.203768670725544616e-03,-9.788410332121099344e+00
1.839423466433371714e-03,2.881908338865645045e-03,-9.793338052883079570e+00
1.739054071412237962e-03,9.837097238098047730e-03,-9.798176582594095407e+00
-2.535314334566573548e-03,5.654747129072751517e-03,-9.804626395435512620e+00
-4.482901524601333801e-03,-8.728848578674520834e-04,-9.806841321372887776e+00
-8.667427842364749035e-04,-8.076531702994271811e-03,-9.812675955796983374e+00
7.242694250510208105e-03,-1.176048051210421821e-03,-9.802752309343464532e+00
-8.658648706702824424e-03,1.978466127672717356e-03,-9.802025007178075455e+00
-2.349269735371718563e-03,8.193335044401428222e-03,-9.795844630198827119e+00
9.926135291819456613e-03,-1.519042475061366726e-03,-9.802311935480444660e+00
3.519351409873525409e-04,-4.716141990727349201e-03,-9.810486705316417755e+00
4.806358995623673941e-03,-1.068572230678641218e-02,-9.809546890792926632e+00
1.943033520957080902e-03,5.430480805096581966e-03,-9.803417222041895585e+00
1.420175692326553591e-03,-5.339083048793360521e-03,-9.798019568707035276e+00
-4.281831467796489744e-03,-5.726700209097831430e-03,-9.817725621780486023e+00
-2.073682719762417938e-03,7.335620208796694505e-03,-9.807749387870359215e+00
3.923502443424122660e-03,-1.436605762665062050e-03,-9.804205072306094948e+00
2.018549100678120479e-03,5.681111352667284238e-03,-9.796254710038994062e+00
4.778836818131959596e-03,6.048284492808528486e-03,-9.802085591706019230e+00
6.216625318707614048e-03,-8.163988543050018643e-03,-9.789452712996947525e+00
-1.435032761096173646e-03,-3.447755363102504925e-03,-9.800971614623721351e+00
-5.128727508712991462e-03,-2.303778122235166249e-03,-9.790645217797006694e+00
-7.073971386470540544e-03,1.076879901555290045e-03,-9.786665734974192787e+00
5.972275526350818813e-03,1.718537734120438934e-03,-9.809599878955522101e+00
-4.716722339562167896e-03,1.238313851962510523e-02,-9.810609443383341954e+00
-1.213580115033115539e-03,-4.354320239348043620e-04,-9.795255064534170941e+00
1.701298583238185572e-03,-4.843409945860755079e-03,-9.809570717150254637e+00
-3.081599979079406061e-03,-2.617065900924313033e-03,-9.806180194419622964e+00
4.285421572492845860e-03,3.399672339405412913e-03,-9.804255001505085332e+00
1.824069227047694875e-03,9.819762299513457981e-04,-9.800103604114861255e+00
1.168580488978239202e-03,-2.997251168143032305e-03,-9.807574034440664335e+00
-1.887419468765147781e-04,-6.779878774999634379e-03,-9.792202932915930802e+00
-5.687669313500157489e-03,9.419762436408716383e-03,-9.799212952612101901e+00
-1.269535210919653292e-04,5.866499674105638343e-03,-9.800417868911246444e+00
4.733635695212652129e-03,3.236829371543922026e-03,-9.801772468198317156e+00
6.166809956646389368e-03,-7.501093057815114151e-03,-9.804857123707611422e+00
2.529079889459783653e-03,8.386496813022230930e-04,-9.794684188756834331e+00
-7.618633755444461850e-03,-7.692962368847522207e-03,-9.804485628964718202e+00
3.355471613570792759e-03,5.038025668970376935e-04,-9.814790790683122879e+00
-1.592277622706809309e-03,3.359248449701841312e-03,-9.804735724441341560e+00
-2.785033520314911942e-03,-8.114240916630858017e-03,-9.793924180451298867e+00
2.507413197410519792e-03,2.739585956627301356e-03,-9.800757257243962073e+00
1.351450179326868810e-03,-5.549002699404507327e-03,-9.793776391822776262e+00
-7.329738984493207148e-03,-7.563424529447550053e-03,-9.802275054451616398e+00
1.587889119973881621e-03,-1.109847964004072925e-03,-9.793531952268001106e+00
6.823741051153081258e-03,-2.372614997127604330e-04,-9.810730197426922317e+00
-7.850647289978746404e-03,7.061385631869003185e-03,-9.801260696612764889e+00
5.150959062561162941e-03,2.306820683968296287e-03,-9.803500219813829020e+00
-8.292127896465722667e-03,4.030774963995406926e-03,-9.797140473725061582e+00
5.401984195889057011e-03,-1.726507528741509772e-05,-9.805848114217997846e+00
-2.825688484971649130e-04,2.481462891801558199e-03,-9.807978040532626451e+00
2.884762386736556758e-03,-1.736113008814413458e-03,-9.807492232563328471e+00
-4.231811803612489306e-03,-8.367699834774432665e-04,-9.782985432250400848e+00
7.247359066707316630e-04,-2.999234946060496364e-03,-9.802145608805806987e+00
2.478828981977234964e-03,3.785567719723098926e-03,-9.800877004942334381e+00
-2.311785279158210665e-03,-7.621549464076077945e-03,-9.796387784105787588e+00
-6.968509361215335322e-04,9.486038177128109511e-03,-9.803090375272846657e+00
-4.393399672228866519e-04,3.146206604436741459e-03,-9.798302623821836477e+00
6.084319961778161812e-03,-8.481489312775708153e-03,-9.811229392009044759e+00
-3.318577897807613482e-03,2.944632802301810036e-03,-9.796804709717049420e+00
-3.880688885574258215e-03,-7.001791543154901529e-03,-9.803703771720176263e+00
5.942241934228475846e-03,1.213760610101475993e-03,-9.792568633350013485e+00
-2.969252950288157108e-03,-3.809565488004873924e-03,-9.809126654626192376e+00
4.655066529066280608e-03,3.689294592913486617e-03,-9.805144297004087406e+00
8.628793167430005243e-04,-4.550753609191974906e-03,-9.804052053489337837e+00
-5.344129435300578983e-03,4.297419522002427633e-03,-9.800281500554055114e+00
-4.057447937952197298e-03,-3.793692770708972754e-03,-9.812015911891418085e+00
-3.231259179289685309e-03,3.152425978942118706e-03,-9.791372574392308792e+00
1.028257681238509656e-02,-3.015646516081028905e-03,-9.804526438028613455e+00
3.636627663168023449e-03,2.740239553403352873e-03,-9.814023617025007695e+00
2.454641136318428131e-05,-6.824297435462752665e-03,-9.807588718116983628e+00
-3.450357187260047129e-03,-9.478199943662298996e-03,-9.804563468157240891e+00
6.446148436256997393e-04,-9.296620449747303866e-03,-9.800597423734210167e+00
-5.870727303426984123e-03,-2.089355063950527804e-03,-9.807506998929650166e+00
7.273136533297822059e-03,-8.698934834274235813e-04,-9.800225720783437566e+00
-2.437837730761917548e-03,-1.881935951627607606e-03,-9.825155056689174771e+00
9.147204921305005735e-04,2.247849187008433593e-03,-9.793806595904118950e+00
-1.798836773700190341e-03,4.753637618810922002e-04,-9.805966422607447441e+00
-3.135986063867106811e-03,3.532953457754558352e-03,-9.801861394856215881e+00
1.833798198149842219e-03,1.986382267319791034e-02,-9.792917950621097489e+00
-4.638075185960182333e-03,7.198107210123882299e-03,-9.791989881856581590e+00
-1.360186897832979828e-03,-8.993189786502716319e-05,-9.785828414792824503e+00
9.909700723394348240e-05,-6.018683551608407104e-04,-9.791493859436032565e+00
2.893073979506349640e-03,3.986613334972220063e-03,-9.810234716352658424e+00
5.415566368869137621e-03,-1.991143583272367377e-03,-9.809364056706449730e+00
-1.374168710449479892e-03,3.481829351055079191e-03,-9.811064235422223945e+00
2.691269128383774571e-03,4.170657313316261639e-05,-9.802935403852385932e+00
1.461591518255935061e-03,3.572158788008505861e-03,-9.793773310047253489e+00
-6.019616206289177566e-04,1.412115572863724584e-03,-9.795763305199061577e+00
-1.873831737995561861e-03,-1.052700479597175331e-02,-9.804236375485336552e+00
3.474529420345183212e-03,-2.586341426715915454e-04,-9.797889569276870603e+00
-3.753050156043187448e-03,-6.326912999226107313e-04,-9.796867311236487907e+00
-3.061108246205276103e-03,5.063032290022192539e-04,-9.804566823413450649e+00
-3.920518210404371449e-03,-1.207425036304997888e-04,-9.799651128239371900e+00
3.479540218966201658e-03,-1.306383954136506285e-03,-9.793987065778685164e+00
-3.703157259121436220e-04,2.227987822953145908e-04,-9.796524815862500901e+00
-4.329456754009474405e-03,-2.290692393262680222e-03,-9.789787314444438948e+00
5.784468003446466278e-03,9.319801084818942621e-03,-9.802758972059949727e+00
4.140862141779954133e-04,2.582518497731340311e-03,-9.798092497760755748e+00
7.141966816750775111e-03,-4.480617179495814152e-03,-9.801502297429525612e+00
4.275076381696107063e-03,-2.478130049836225687e-03,-9.805419811151146803e+00
-3.700057156630062304e-03,-1.075790714280938816e-02,-9.806797945079427592e+00
-2.683464270035585894e-03,-1.057998179754968994e-02,-9.803363710202770420e+00
1.020023781958395498e-03,-3.531345076902246694e-03,-9.795347532067582463e+00
8.092109354593018250e-03,2.366263522827380308e-03,-9.823509003141635887e+00
6.519502955747726557e-03,-9.290727351220254629e-03,-9.800799391124609627e+00
-1.627169231244764798e-03,4.725673701651779759e-03,-9.805997486009763620e+00
-2.630613947557093948e-03,5.027690039559909625e-03,-9.807039984781319220e+00
5.997125443086571625e-03,4.965337515726602922e-04,-9.791865038651703657e+00
-1.989777471252171699e-03,-9.362304062213938974e-04,-9.794722057031369999e+00
-1.574689222893173963e-03,4.751377008311395830e-04,-9.809205773784709592e+00
3.959902216087963014e-03,-6.473062990235555793e-03,-9.812946851194443099e+00
3.471860128509821064e-03,-4.560513271400847522e-03,-9.810006146088451118e+00
-2.380221314975144997e-03,-5.779515887745309381e-03,-9.808606240827943523e+00
1.118695502126436630e-03,6.645025322565328331e-03,-9.804305755763488506e+00
-4.801924146384318678e-03,2.750718628248353926e-04,-9.789777301101585394e+00
-2.780016719660283794e-03,4.281121051885222392e-03,-9.802909327616768920e+00
-4.062663073296357910e-03,5.678701048116270925e-03,-9.785348631852547996e+00
8.989806976917218487e-04,-2.004672323276037327e-03,-9.800642922775635313e+00
1.287753839366885013e-03,-1.247288161465807087e-02,-9.802528454100107425e+00
3.967678988040550074e-03,-1.394260940266324250e-03,-9.804504349223343240e+00
-9.483085875398257827e-03,-2.459634768602789092e-03,-9.785780360053989213e+00
1.081038528445689428e-02,-6.772466040211238408e-03,-9.795492113798061951e+00
3.113513610226106669e-03,-6.587652778045039684e-04,-9.801591286794286262e+00
5.191046248946616301e-03,4.387455870141043052e-04,-9.800785176751508843e+00
-4.304892548398624522e-03,-5.534741632570029483e-04,-9.790132138909079629e+00
-1.623833149994847362e-03,-1.363869210391019035e-03,-9.801310983519565312e+00
-2.480536679169513363e-03,3.172348812625350439e-03,-9.805907142711529190e+00
-3.367850651196445649e-03,-2.649344083527711315e-03,-9.805072812717861908e+00
7.585487404147254857e-03,-1.657062876783041514e-03,-9.801791694378637843e+00
-1.040490205244991653e-02,-2.306388797551445820e-03,-9.800503600887374489e+00
-2.327375476268226263e-03,9.591373993740470380e-03,-9.797327293785144775e+00
-4.142142304520830777e-04,-7.266470242100400842e-04,-9.801642605355523230e+00
4.109594568097356209e-04,-5.590767598744376954e-03,-9.812242125264395654e+00
-3.856516804087456712e-03,3.727636238264959295e-03,-9.796836840003585678e+00
4.430173710069695674e-03,-4.045182647319556062e-03,-9.785261604258117529e+00
4.102502465127173814e-03,1.451155787035874820e-03,-9.810091521603546028e+00
-6.178523037856702149e-03,-5.703107003061710402e-03,-9.794022104164135101e+00
-5.529219171264610280e-03,5.185512578710731874e-03,-9.785883894387652049e+00
1.006933968756585328e-02,-5.758313137635553275e-03,-9.809601978832601432e+00
3.124365765805341491e-03,-7.207362805427756751e-03,-9.810349272902922024e+00
-1.585454142686232922e-04,-1.891398964239098587e-03,-9.810244283767177720e+00
8.971725424798413298e-03,6.242194550375388664e-04,-9.812708458761957075e+00
-1.009536435538627326e-02,-2.572535269388569103e-03,-9.808905107340125440e+00
-5.686790509715344962e-04,2.280298786946768647e-03,-9.805483924919418115e+00
-1.194440467410389861e-03,6.562664155424416564e-03,-9.812996922044931125e+00
6.741470505665692753e-03,5.203978986747538442e-03,-9.796688806098387658e+00
4.147127565698361003e-03,-1.711419827574490321e-03,-9.816102932931046965e+00
-2.810044146305876525e-03,-3.526697991152186878e-03,-9.799572350515010299e+00
4.962495286991666470e-03,1.750181434295865722e-03,-9.802166121866711990e+00
-6.828752957895124764e-03,-6.893714175250795217e-03,-9.809680010389245197e+00
-4.776796757685087234e-03,1.846081260860139980e-03,-9.802717839465852734e+00
1.698910330427581437e-03,-7.799269055449119638e-04,-9.805327464025875628e+00
6.841247141534304412e-04,-1.784231316209631451e-03,-9.797157740444893292e+00
-3.858525642904423510e-03,-1.494759958042290050e-03,-9.785871363343437324e+00
-3.987281573393072244e-03,-5.607545264228254965e-03,-9.820954871733025726e+00
-1.606538312701587300e-03,-3.693994064116713598e-03,-9.789297235546918330e+00
-2.407655068202492997e-03,-9.309280530069545404e-04,-9.813407957084880451e+00
1.247675164694610119e-03,1.763902578756454788e-03,-9.803371129698492226e+00
-2.901679678859005358e-03,-8.974800533213918990e-03,-9.794656481012360416e+00
-3.506619772756170133e-03,-3.793312826685104559e-03,-9.789304851288559206e+00
2.069516255847365406e-03,-3.570711948712242730e-03,-9.800173024656468002e+00
2.364624896182996368e-03,1.328105931786666919e-03,-9.811392325919923607e+00
-2.457424906932207873e-03,2.603682883173846080e-03,-9.795353416522740275e+00
-9.069489265053297909e-04,-3.294823323321143405e-03,-9.815992310974850810e+00
4.723268486377906784e-03,-2.862813796938921507e-04,-9.798690026225113314e+00
-1.293482852259464702e-03,-4.173202973781648187e-03,-9.811412006048490397e+00
-1.340946187897297743e-03,8.724248231885875504e-03,-9.809028349100559652e+00
-4.599700917615573773e-03,6.978361228961585568e-03,-9.800130947866106723e+00
-1.749587017060303621e-03,-3.542818452106779193e-03,-9.805108092465221858e+00
-6.008698189914386117e-03,2.037052316039874526e-03,-9.792864229065058268e+00
-3.117020842236443209e-03,-2.434030762087011882e-04,-9.806178443824164148e+00
6.562975290855757420e-03,1.831921988320597697e-03,-9.807339190208288926e+00
1.538585452876819245e-03,-2.231637691746684096e-03,-9.802548664452466198e+00
6.934795141307355248e-03,-2.910031175495583333e-03,-9.814153319568685419e+00
1.036067390777685969e-02,6.751379431385975613e-03,-9.799074378295710375e+00
-1.290529234638101812e-03,-3.180948922132050254e-03,-9.803682859859193854e+00
3.823973859684447370e-03,-7.175074520515817549e-04,-9.809618793405114445e+00
5.564547020088662053e-03,-1.837483683807720569e-04,-9.809934109552694181e+00
4.612263004405964435e-03,-1.748918214103452676e-02,-9.807645436714205189e+00
4.421601299493121105e-03,-1.425284475869474220e-03,-9.778972556105864911e+00
3.560651548885395215e-04,1.125487967539418911e-03,-9.803128066606408453e+00
7.686696976773998297e-03,-1.950458859714563177e-03,-9.802345555620776807e+00
-2.574317381401195360e-03,-9.279131110645905123e-04,-9.812351553857141084e+00
-1.023736887254750273e-03,-1.975584968706398797e-03,-9.798329100696475891e+00
4.006055442180943456e-03,2.091579999176151200e-03,-9.788931723917777106e+00
-1.809829843605268427e-04,3.032743095726870078e-03,-9.795081214326108565e+00
-7.828856791362082124e-03,2.761833571919846114e-03,-9.800512804925253008e+00
6.094283484108821425e-04,1.514556805417605892e-03,-9.805702469841884650e+00
2.001691129514159267e-03,-6.919328472612980632e-03,-9.808403976197636709e+00
-6.503199299205639520e-04,-6.810139869187017167e-05,-9.793822971574808633e+00
-9.525973465210873375e-03,-6.429973112632726348e-03,-9.809107565895494929e+00
1.923773118784127432e-03,-5.055655161570904270e-03,-9.790573034956073784e+00
2.384797282100913941e-03,6.449978784743556903e-03,-9.805768584827179168e+00
4.085280519140006318e-03,5.328948047930992526e-04,-9.794765144249916844e+00
2.796035771981164857e-03,-4.432584558222850586e-04,-9.800322188749888142e+00
1.689096691890015507e-03,1.258823761013366099e-04,-9.801466123163631750e+00
1.714852568064099882e-03,-1.128002105171954173e-03,-9.793302748823375481e+00
6.708494035037463991e-03,6.487230965777877022e-03,-9.798081835883628798e+00
1.081926142201687646e-02,-4.989634992929822301e-03,-9.825461206877127651e+00
-8.984262433101148498e-03,1.034718257611050990e-02,-9.801572771875392220e+00
4.374904281779288910e-03,4.016511424942306556e-03,-9.805368071057484869e+00
5.522841152821409728e-03,-2.171415541799636729e-03,-9.815019723717917088e+00
7.707501938782403660e-03,-6.343232330943917967e-03,-9.805841515993364510e+00
2.215142681513508627e-03,1.127756819976633842e-03,-9.799643796749444746e+00
7.231340335823086517e-03,4.972661226854128980e-03,-9.800953608226407709e+00
3.337982480615825105e-03,-3.228419206292664867e-04,-9.800324380319167972e+00
4.388913225435460945e-06,-3.301961546150910913e-03,-9.794051873326385049e+00
4.458341784141374442e-03,-1.132068972927695403e-03,-9.788374909150352465e+00
4.470022393326033780e-03,3.357914466729985861e-03,-9.805113447931576687e+00
9.112737961626109565e-03,-3.395814291234344404e-03,-9.793871823552141365e+00
-2.966998990019430790e-03,6.721656602178598984e-03,-9.785273847676517534e+00
5.058992647658828480e-03,3.258373863678902006e-03,-9.807115094065469663e+00
-2.145770475618753986e-03,-6.352291788291176619e-03,-9.811115349151375398e+00
3.627485449250249586e-03,2.906038267105921259e-03,-9.807741023148683013e+00
-2.369785712088387942e-03,-2.679109389386173309e-03,-9.817558656091463831e+00
-1.519059773644702675e-03,-1.253290951774156323e-02,-9.796648261300839877e+00
-7.490555689760097433e-03,-2.295812050806439290e-03,-9.792270772733379758e+00
-4.692116591896861900e-03,8.435452484325819218e-04,-9.811476127212312548e+00
-7.831398704957947751e-04,1.512785520916919190e-03,-9.803758132506120049e+00
6.157206914565217099e-03,-5.250467259144755983e-03,-9.806171902544758012e+00
-4.654991372461892742e-03,1.287244009067791718e-02,-9.797562250205055889e+00
-4.782811000144622689e-03,3.143280979784477541e-03,-9.808598593198020410e+00
-1.461856655354859666e-03,3.827581111967751082e-03,-9.801833413833472619e+00
-2.145430421386885275e-03,-8.152262418890146274e-04,-9.793158209676544601e+00
7.406639866920841121e-03,1.981969686549029958e-03,-9.799857609736962516e+00
-1.616905570005360048e-03,2.431566120169496338e-03,-9.801909237374765382e+00
-2.264550672264807780e-03,1.328470657944785674e-03,-9.801545134255785996e+00
-5.306531372370880406e-03,1.947601135581148715e-03,-9.798518674446048848e+00
-7.238288989683510331e-03,-5.827188267682401057e-03,-9.788033980653754185e+00
-5.741056813725984621e-03,4.406763931864785813e-04,-9.804120816416068251e+00
1.968547596432181166e-03,-3.871440184885247167e-03,-9.792901127063601052e+00
4.628697715472532975e-03,6.333830627998568441e-03,-9.801605157867241402e+00
-1.317682505419641610e-03,4.804683845437992748e-03,-9.801307425961681474e+00
-4.306357108282246257e-03,-7.060103384076412032e-03,-9.788270849153736464e+00
1.625669594808856191e-03,-3.273295990047472349e-04,-9.804838121291597375e+00
1.911419734691291667e-03,-6.797763142548062833e-03,-9.812224008589135238e+00
5.082763734660931607e-03,2.766768196280727527e-03,-9.782615669581671725e+00
-1.150556356412253938e-03,9.304018000038894939e-03,-9.817767108522280850e+00
4.296619115086083678e-03,-4.189702703167206763e-03,-9.800646124304192242e+00
-1.775497386896514188e-03,2.002534326032206265e-03,-9.799775149005052199e+00
5.389728716725194699e-03,-1.499723447995333653e-03,-9.818590608237235173e+00
-2.798613246828116248e-03,-4.138645024820411175e-03,-9.807384019984828782e+00
-2.968002539581787204e-03,4.874137143598558999e-03,-9.793475896866663533e+00
2.382809732296902426e-03,-2.852442792149006718e-03,-9.810186381592316707e+00
2.634924853141253250e-03,5.397096465937735975e-03,-9.790859116408094920e+00
5.344068355144665841e-03,5.668909847160107443e-03,-9.793254117128071812e+00
9.702077110367504989e-03,1.193085935293571737e-03,-9.809126133034641981e+00
-2.972496252072407905e-03,-1.288261925840237772e-03,-9.828835319145586169e+00
4.218816038294761692e-03,-5.798604772825834315e-03,-9.802293821009325114e+00
-3.230444855380222666e-03,4.214232447834430177e-03,-9.800236913414654083e+00
9.194557164451507003e-03,2.849055536087026410e-03,-9.802574040124783394e+00
2.612593308746189499e-03,2.355251547678869316e-03,-9.804316332398601119e+00
-6.364072556507665603e-03,1.015498972589488902e-02,-9.808839293791614011e+00
5.085705901179857560e-03,-2.457154748393297877e-03,-9.819471176684904989e+00
3.647851433839538211e-03,-4.194041499001122456e-03,-9.799572543296751093e+00
-1.247823531213223267e-03,-1.148604792747172712e-02,-9.803275050107066235e+00
2.553662890451948667e-03,2.103706954869419537e-03,-9.793350915170092819e+00
1.906181924093443107e-03,-4.297000441422603803e-03,-9.824381784544284457e+00
2.865499413415548407e-03,2.650262897162948550e-03,-9.802731117309432918e+00
3.132031455985161920e-03,-5.484929938390242397e-04,-9.791427302756350315e+00
-1.702770632920154459e-02,-2.852592186811897263e-03,-9.798390598948071073e+00
3.539440936887850754e-03,3.471873274158544711e-03,-9.812811387741167124e+00
9.114344709560065136e-03,3.774113607878955452e-03,-9.800197281831504625e+00
-1.029583630997531283e-03,1.998852439085473890e-03,-9.820276104526231009e+00
-7.359426712662407027e-03,6.739351334189561853e-04,-9.805007621312171295e+00
1.197749315246144633e-03,-4.224730642759084130e-03,-9.787516301036358612e+00
-6.845942402451819092e-03,3.303013824019138556e-03,-9.804894334608961870e+00
3.074982659417279437e-03,-1.316379455348423797e-03,-9.800322692223241816e+00
4.504870048218994130e-03,-1.637466663750300130e-03,-9.803459979065557661e+00
-1.147321272542680483e-04,-8.998058075053883432e-04,-9.806527169006040268e+00
-8.126315419707600112e-04,-8.328151267387241471e-03,-9.797979056370120787e+00
-3.691473062384346190e-03,-5.845017054386192150e-05,-9.790427544276576910e+00
4.420704418853671491e-03,-5.576654191838836816e-03,-9.799233106446006758e+00
-9.202487471320422441e-03,-5.625696479479471226e-03,-9.793297165664943904e+00
-1.321938106558917005e-03,4.159341146943693751e-03,-9.818064101924321108e+00
3.289965260865352487e-03,1.589504805222531874e-04,-9.805211670423146231e+00
-4.104582157496114957e-03,-5.478501346579942033e-03,-9.808390685139649179e+00
3.451107040102955811e-03,2.689111896821839987e-03,-9.802501568305874713e+00
-2.740203545412637012e-03,1.166638370827765203e-03,-9.819379650743126575e+00
-6.748597848045473531e-03,4.578051895483651289e-03,-9.799023102676475361e+00
-3.375751801952341525e-03,1.284813960410726959e-03,-9.791906327368165464e+00
-9.760382630587267471e-04,1.061090146267564850e-02,-9.800000723482447995e+00
-9.038353613006883808e-03,1.687252533603196981e-03,-9.807898523616733755e+00
-2.068193302815176868e-03,-4.177927102077718356e-03,-9.807562423889326197e+00
-1.977092957681682393e-03,-7.492157913594840344e-04,-9.804039532035206506e+00
-7.481142561937823617e-04,-4.384374384901162068e-03,-9.806584386715179846e+00
-1.698237561325572189e-03,-3.665367800241273958e-03,-9.801451851929360970e+00
-2.672796047684212768e-03,4.981689875401898622e-03,-9.800585494082801219e+00
7.818711633992772234e-03,-2.152271974848054582e-03,-9.798095800573680236e+00
-2.447910913204348268e-03,-2.295165535498462032e-03,-9.806226440128780197e+00
2.384393187838341078e-03,3.787941100592916339e-03,-9.802925654331289707e+00
4.516851029146228512e-03,-4.158104625393226170e-04,-9.813569007236084829e+00
-5.868669249900671306e-03,4.423120057110912356e-03,-9.811935081873631503e+00
-1.456905357106176672e-05,5.378893535723188943e-03,-9.816300668150438113e+00
8.581314337038362106e-03,4.079029178404101029e-03,-9.820959256423460459e+00
-1.185225258169919074e-03,3.216345481689716120e-03,-9.816312442339537370e+00
7.637152239783170232e-03,-1.272203736331163279e-02,-9.807618536659107988e+00
2.072832568212878968e-04,2.636760667253042027e-03,-9.812772108103212432e+00
8.056226504998878751e-04,-5.593682513939032819e-03,-9.810150132432125858e+00
4.551758592188527748e-03,9.163020481210360640e-03,-9.807659270440188592e+00
-1.071287591291933926e-02,2.463418288846413355e-04,-9.797738468080341434e+00
-3.035096486479137504e-03,-1.684675687494855811e-03,-9.802292685511252657e+00
-5.042628664437943204e-04,2.920249230694990650e-03,-9.813005788855994282e+00
2.730657956338766040e-03,2.950777739223239392e-03,-9.809762140914152440e+00
-9.718437899238369440e-03,2.378386592909714076e-03,-9.809097862978296334e+00
-5.157344846682039054e-03,1.769547308204770086e-03,-9.810499855252958312e+00
-1.367610442567090403e-03,1.622382962886196461e-03,-9.803041548877475364e+00
-1.408713901205523641e-03,3.793234362115857627e-03,-9.801582917396126859e+00
1.131573038588537528e-02,-6.173441744276175411e-03,-9.812839927138666596e+00
-9.226526633972811616e-04,-2.885911258562448480e-03,-9.814322945547566235e+00
-1.763950445446332621e-03,-1.440437348836772109e-03,-9.800842841466108624e+00
4.923323270687634916e-03,-1.838503719214504371e-03,-9.794793332401200203e+00
4.188316584735276318e-05,-2.101882350210116778e-03,-9.804020118908965742e+00
3.064455240410364142e-03,1.694862293760630726e-03,-9.811398529488966958e+00
-9.142918667006647709e-03,-3.335639284973942933e-03,-9.805091694854453976e+00
7.608347691137431687e-03,5.154196844780016551e-03,-9.812096634574244192e+00
2.718951714200091804e-04,-2.951410806737965291e-03,-9.794676224920094043e+00
-2.389431761151012464e-03,-4.166060250377735981e-03,-9.802496149907691247e+00
-1.153404063474823722e-03,6.068787116447957146e-03,-9.810218443716669512e+00
-4.317860957611881038e-03,5.236444823223000873e-03,-9.798263848641145302e+00
8.310385109834426270e-03,-2.844436330547791929e-03,-9.809859938854426531e+00
9.969504657839660042e-03,-6.052680658855301432e-03,-9.799043263096631762e+00
-8.053072294119599864e-03,1.577260025300822452e-03,-9.792984383765137579e+00
-2.292342989459373540e-03,2.601492716489151816e-03,-9.795180583389111462e+00
3.903226224486579157e-03,-2.082333898463208360e-03,-9.797015214208844469e+00
3.377486712061354614e-03,-2.396058386604101552e-03,-9.796801102406938355e+00
-7.689443865192822133e-04,5.516886908831421937e-03,-9.818681701858967159e+00
3.989249570552464916e-03,2.343559060044122719e-03,-9.797120315878029118e+00
1.171527652696841351e-02,-2.478414306185955027e-03,-9.814204176664983237e+00
-6.719801651231296392e-03,8.069587577181948097e-04,-9.785470682282005228e+00
5.641374746032457380e-03,-2.260436492375322588e-03,-9.809161580916880396e+00
-5.535231971883991520e-03,-6.754514791005051914e-03,-9.783956571450024953e+00
7.557659430282634601e-03,6.040521622141570117e-03,-9.803599935187451209e+00
3.875857709553977119e-03,-5.968880911887671035e-04,-9.799675687443039962e+00
-6.699195775926052379e-03,5.029926117691704357e-04,-9.791433551476984576e+00
1.161279654101983645e-02,5.905922097325001438e-03,-9.808288828804560211e+00
2.161398728118543028e-03,-4.230709914801027496e-03,-9.800581514105530800e+00
-3.674486249356952866e-03,-4.984326059564268309e-03,-9.795879016128299810e+00
1.398020502564146150e-03,2.483682940960778990e-03,-9.817450462813530621e+00
1.011641728108431375e-03,8.830235055650629368e-04,-9.788492235053038115e+00
2.464530192256486271e-03,-8.278465808575290533e-03,-9.792360199705255397e+00
-9.221356898299887597e-03,-4.155403864009551192e-04,-9.801588844860837924e+00
4.915898466212778161e-04,-5.739459722214807630e-03,-9.805292782161652454e+00
-3.386265011545133187e-03,7.514987586719643238e-03,-9.815863019033802317e+00
3.484462499896482952e-03,-1.282318542243620317e-02,-9.804088731996797534e+00
1.095690053060929120e-02,-5.921565783815522198e-04,-9.811759465132016800e+00
2.904389423371152214e-03,2.775846305981216275e-03,-9.816455082013744615e+00
2.601250755604070895e-03,4.006263185367824097e-04,-9.814171561242241992e+00
-1.171005174675152300e-03,-4.339510995158305136e-03,-9.789983217903586166e+00
-2.896559092718390196e-03,4.305933150075695430e-03,-9.788324159068096719e+00
5.964649831368666437e-03,9.040237215622286965e-03,-9.808730904491463676e+00
-1.338060304608817194e-03,-3.660548128320061188e-03,-9.814070150280173266e+00
5.124000333467506295e-03,2.092233430125893870e-03,-9.802016136216307629e+00
1.063699535604691396e-02,-4.140746475862706714e-03,-9.810718073975603915e+00
-5.357340006228701948e-03,1.127388693150949400e-03,-9.792405171423295585e+00
3.570089033998765857e-03,-4.118969852717020361e-03,-9.802460150781168835e+00
-6.191959475040836880e-03,1.402656805899997515e-03,-9.808881817752425292e+00
-4.773613651820531045e-03,1.029703778334782084e-02,-9.802719577588256072e+00
4.718242903301831000e-03,8.740413746194622413e-03,-9.796946459641960203e+00
-5.675871852992234873e-03,-5.509326372159405009e-03,-9.821492808960423204e+00
5.673708385935670971e-03,-3.899856055363572389e-03,-9.811227389925587516e+00
-3.153442212220095887e-03,7.000785439628757698e-03,-9.814965774753366290e+00
8.417613090696123360e-03,6.382282423923518223e-03,-9.790299635320192095e+00
-4.440098109242860379e-03,7.229681170203640199e-03,-9.802494460966475032e+00
8.546096783887934803e-04,-7.447464007084415513e-03,-9.808658724465017187e+00
-7.968333222853113320e-04,-3.968834514447937452e-03,-9.801112492497463080e+00
4.563963055277565385e-03,4.102650986972998341e-03,-9.792586068497739049e+00
-9.184170893026189690e-06,2.179426465196595154e-03,-9.793249784147230130e+00
1.433578638241172609e-03,5.333188156972402082e-03,-9.793304436954162639e+00
2.243260957064707826e-03,-1.589117570262786995e-03,-9.796768070599815914e+00
-2.232130674300267237e-03,-4.465819881114943372e-03,-9.790189479994664268e+00
-1.086382547892414917e-02,-1.830970311082372008e-03,-9.791998174138447197e+00
9.155302097537107442e-03,1.240151932841629129e-03,-9.795416383879581801e+00
-7.530126418778541192e-03,-9.138307271057586126e-03,-9.793851744313315066e+00
-2.191513653078464973e-03,7.683319490032321447e-04,-9.800779894582154483e+00
4.115930668590870884e-04,-1.551298603833276783e-03,-9.792836367205540071e+00
-5.579538705779437703e-03,9.194712823336900027e-04,-9.797795171925084645e+00
-1.964310219731016730e-03,-5.475412854756287265e-03,-9.801996116689899452e+00
6.011328636728917665e-03,-4.309153888192438680e-04,-9.817642873040670182e+00
5.271891986293078362e-03,2.024022680526813066e-04,-9.802709461282587355e+00
2.716174696033223047e-04,5.757623496493295169e-03,-9.791037928755894626e+00
-3.254777303036114795e-03,4.835063838575733713e-03,-9.797523426430498006e+00
-1.328531183859580972e-03,-5.562731926928390393e-04,-9.793454014482358971e+00
-4.302024095607549434e-03,-3.895489028752622488e-03,-9.808747500495261562e+00
7.185496118426810443e-03,-1.080898289517591773e-02,-9.797917459130879081e+00
-1.260136920266779743e-04,3.211918549558962811e-03,-9.799605549261872994e+00
4.111819552357074206e-03,1.247552679153531859e-05,-9.799055375544330815e+00
-6.651847042063976229e-03,3.049938834140166963e-03,-9.791172704625934031e+00
5.799032947463669992e-03,-3.203471680232024624e-03,-9.798621608559454188e+00
-6.331259713463442945e-04,-2.645099415245861715e-03,-9.798047857011303208e+00
-5.230779551703210531e-03,-1.980653739705927775e-03,-9.815357903735216993e+00
-1.402443655373746163e-02,-9.099309482568566573e-03,-9.809202085561704365e+00
2.174919319118940025e-03,6.424566780331180359e-03,-9.805086270263000614e+00
7.393824145100107506e-03,-4.606053785442321136e-03,-9.786945912907377476e+00
1.016151880587559848e-02,2.197683588094252738e-03,-9.803471120436103803e+00
-6.189644722047772489e-03,1.091289602641528538e-03,-9.809365082624557530e+00
1.953411238017536185e-03,6.707167466956258373e-03,-9.793676859337248075e+00
-1.379413897047470283e-03,5.330596930219228848e-03,-9.807066983578382136e+00
7.858922294491813921e-04,-4.468193724441776177e-03,-9.799572369821934359e+00
-5.949500524492466746e-04,-2.777408184550632896e-03,-9.814835402521920216e+00
-2.177912060785444116e-03,-5.101168502498448776e-03,-9.804266833566630979e+00
-7.353995727429969882e-03,-6.599958860583353230e-03,-9.802547485410991968e+00
-7.723166518288505054e-03,4.448090394436318706e-03,-9.800739083885517289e+00
7.568895022093630708e-03,-2.240787554992618863e-03,-9.804324889013050992e+00
-2.415004533532062823e-03,4.758210693440461866e-03,-9.803352172975625223e+00
-3.533064397145979120e-04,6.167172635203981707e-03,-9.799595255603843924e+00
-2.128046129784765591e-03,-2.584214206709310301e-03,-9.811691871208140014e+00
5.858464101776659876e-03,7.792397185993003503e-03,-9.805572375153884579e+00
-3.198987806879092111e-03,6.152432592087239476e-04,-9.804513470941548903e+00
4.595405032620320180e-04,1.002486542934065937e-02,-9.796419521673200848e+00
-6.194676987876998608e-04,-5.369350031192316255e-03,-9.791168012268720133e+00
-7.009891181488481227e-03,7.776714799301970640e-03,-9.806739638603454878e+00
-4.066915234606362055e-03,5.733401890453333413e-03,-9.809448870181975977e+00
-7.515065047053299217e-03,7.148193651904370498e-03,-9.801437465212558209e+00
1.815815173170305490e-03,-4.158675439894360219e-03,-9.809491702609475894e+00
-5.870974953565239948e-03,-6.884604525011579952e-05,-9.798201311519356693e+00
2.199229006616161639e-03,-2.327807429904424439e-03,-9.810173964980400285e+00
1.881968139217315115e-03,2.706356862722667216e-03,-9.798479586279377429e+00
-1.987486186108105169e-03,-1.313145165208189514e-03,-9.805802064650537275e+00
7.200211996943428616e-03,-1.208063448659387785e-02,-9.802405950118458833e+00
-6.989452453888238791e-03,6.349022969162352974e-03,-9.805754572285374948e+00
-6.179963341047021259e-04,-9.951760627720029418e-05,-9.793891149407389918e+00
8.938205857964818396e-03,-1.058813450549064014e-03,-9.807274312003976036e+00
5.394932740640329301e-03,-6.568998889215612105e-04,-9.812735862000440790e+00
2.749653293127024729e-03,-1.932826845599324730e-04,-9.803428181007738829e+00
7.674412821530861815e-03,7.483052035664079240e-05,-9.802101232131215980e+00
-3.552283476578051592e-03,-1.387573047396116997e-03,-9.804656811181896359e+00
6.199437824229893888e-03,-8.673547876074532564e-03,-9.799906815253155656e+00
7.848063214737385600e-04,-9.523239421743710017e-04,-9.800394529098324981e+00
9.114639845503352128e-03,-6.074593714025936127e-03,-9.801390317942606956e+00
1.018184849431708755e-02,-5.486187324504164867e-03,-9.811046420995024775e+00
-2.412382535936186730e-03,-7.709368883008236271e-03,-9.799535292501536432e+00
-5.164459114121435976e-03,-7.417337800722977048e-03,-9.793107713331238529e+00
3.963061372699690048e-03,-4.152691017315714855e-03,-9.805306212624955720e+00
4.478300006010300059e-03,4.358541076775358921e-04,-9.798724679243841607e+00
7.758537145758515746e-03,-1.268532494421203364e-03,-9.802093323135212088e+00
3.620791165588522435e-03,5.861355530111355371e-03,-9.801868801867787084e+00
1.393582420264905539e-03,-1.207813827779424289e-02,-9.807745084699954319e+00
2.819812692508583563e-03,-1.168768677177098401e-03,-9.796683997845999414e+00
-4.723945718343382401e-03,1.975674093752253970e-03,-9.808713406647353139e+00
-5.864015582959548022e-03,-2.772293547341906500e-03,-9.803102824703291418e+00
-3.201116401898896485e-03,5.417860932914717736e-03,-9.790138220973172878e+00
-4.170066330508354242e-04,4.056574093969813992e-03,-9.795026001268469784e+00
-9.221811112527088239e-03,8.040651931206101166e-03,-9.808242541828494865e+00
3.961782707095177179e-03,3.518890348999708685e-03,-9.805597475131547114e+00
5.564857825719059410e-03,-3.553563321062111393e-03,-9.800711717625100405e+00
-3.149988059620164108e-03,-5.442708055631919305e-03,-9.794629476302922910e+00
-1.183815352633846556e-03,2.762576800812289839e-03,-9.807296223654438094e+00
-8.773631439660617426e-03,-7.977535701380419897e-03,-9.805417324445993899e+00
4.330042569473916900e-03,6.248060257751128325e-04,-9.801035686762158861e+00
2.911008501629812426e-03,-8.589262334973141524e-03,-9.802578335550323985e+00
4.399232142283856888e-03,1.003995453022401077e-02,-9.799680402902961163e+00
-4.866239680688227640e-03,4.044895612150115928e-03,-9.796489090447851211e+00
3.445405472860394846e-03,5.391315732027840077e-03,-9.800659837159471977e+00
-1.595144747082156500e-03,-2.645897621711339881e-03,-9.796183388351371590e+00
-5.379923042070731444e-03,6.058331750796709658e-03,-9.796868192295958622e+00
3.131165206032176119e-03,-5.418741884379300183e-03,-9.795904389652880795e+00
-8.135691978192707841e-03,8.252925049178259052e-04,-9.811480081098734374e+00
-7.416405469992674165e-03,7.049333507784285614e-03,-9.793666699186452718e+00
-4.532996284186808600e-04,3.672253577477514047e-03,-9.812721094247995879e+00
4.127854781266135364e-03,-3.371504498531959198e-03,-9.794921804778599750e+00
3.923816447595639481e-03,3.134011920109024477e-03,-9.815835720700071931e+00
-6.763101745485940869e-03,5.723532800002890247e-03,-9.805366588116347870e+00
-2.822592472836856978e-03,-2.021138684832568706e-03,-9.797764300914453273e+00
4.760565861143018461e-03,8.883630499095341660e-04,-9.795565676740460859e+00
-5.745395007827214066e-03,-8.683502099493799545e-03,-9.808385219907995278e+00
3.952153328459125266e-03,4.532320481928949602e-04,-9.807843514460579115e+00
2.254319876843171710e-03,-9.642094930883146967e-03,-9.798085422057129179e+00
-3.214800835919893063e-03,2.055927191660002901e-03,-9.790225003746101606e+00
5.214432835427227145e-03,5.336494623756723142e-03,-9.816062392258823266e+00
5.635818769131496243e-03,3.253115114069701601e-03,-9.791310711434913827e+00
-6.016629795262931797e-03,1.297005063531113693e-03,-9.797587476580854826e+00
-9.719721254175297523e-04,-2.141044917326432630e-03,-9.793276019887745321e+00
1.579446330105795321e-03,-6.951611395735199719e-03,-9.797938253798101016e+00
-1.333577963969296599e-02,-2.749677059022580727e-04,-9.791583423325180391e+00
2.725315008605359336e-03,7.027114345769283101e-03,-9.808750884398547143e+00
-8.529534051109710722e-04,4.234085967156134972e-03,-9.806371428434710324e+00
-6.917103479827364440e-03,3.062426237929561073e-03,-9.805557398112803469e+00
-6.428123103036927945e-03,4.182384615862773034e-03,-9.813856512531881293e+00
1.054349543152109311e-02,3.552683943283064562e-03,-9.802781130160488132e+00
-7.021167915888533451e-03,9.490353359789994656e-03,-9.799944395657449903e+00
-3.290699748529048434e-03,-6.791172244368174835e-03,-9.806343855290108991e+00
-7.147037559677899693e-03,4.660149665791234359e-03,-9.799279376645307238e+00
5.930808698135498283e-03,-3.799374105334396047e-05,-9.798941635671084782e+00
-2.106096221033011348e-03,1.001689462578798234e-03,-9.818498774649297545e+00
-8.435908891756403738e-03,3.177543694690280248e-03,-9.800523311004861071e+00
4.319066949239671119e-03,8.140254517474492489e-04,-9.811887764592276184e+00
9.305970974437374754e-03,-7.069564156158261205e-03,-9.798341169498533176e+00
7.498496794920163876e-03,6.168025831499382959e-03,-9.803720456380942139e+00
-3.863462752261994249e-03,-3.674925190440403357e-03,-9.814260825248931397e+00
6.204693046829076047e-03,-7.489988032362136783e-03,-9.792162840109847721e+00
1.365509796787053431e-03,-7.684533569082576537e-03,-9.803279259137992696e+00
5.833189305774892294e-03,-4.882294753958777052e-03,-9.803908461367498717e+00
3.775650176503629607e-03,-8.889053204681345065e-04,-9.788282088430898753e+00
-4.501502360120398887e-03,-8.375941419171098901e-04,-9.805311174243797723e+00
-5.003578832313873050e-03,-2.293579370070662499e-03,-9.808886146104283554e+00
7.582400090113497818e-03,4.136259506002987543e-03,-9.816484852427063146e+00
-6.358007740721136926e-03,2.342896554834884978e-04,-9.796670994755109163e+00
2.236409747031390706e-03,5.845328313015846211e-03,-9.800276461300898134e+00
6.085056075622993690e-04,2.830295030146904103e-03,-9.800612632795205670e+00
1.462545921452599977e-03,-1.211864077536787880e-05,-9.796169146132061911e+00
1.761360668688994159e-03,9.324168200614432050e-03,-9.806517799031640337e+00
5.549995591288632048e-03,-1.903539127879600671e-03,-9.809063063395205617e+00
-2.078263675311358381e-03,3.738636826920251933e-03,-9.807581684463880123e+00
1.530843552641371948e-03,2.417428398954602864e-04,-9.801931553857661683e+00
-1.821401447637264982e-03,-2.515479782106648694e-03,-9.804402100239155260e+00
-2.627574581422331863e-03,-1.008750322212103451e-02,-9.805176842434114803e+00
5.340154244197303605e-04,-2.999149240727933680e-03,-9.792076621640468659e+00
-3.429258477757260969e-03,-3.229995876299193193e-03,-9.800376419205433010e+00
-4.734811830844241833e-04,-1.779906178098277164e-03,-9.806694843544047302e+00
-5.150021036011961061e-03,-7.769417843542660886e-03,-9.808497712288220427e+00
-1.582567093891973191e-03,2.411754462950054054e-03,-9.803051795455846928e+00
-7.119345794376587093e-03,-6.734605492323976136e-03,-9.802029156656528741e+00
5.588440546428449817e-05,-8.232047512391611060e-03,-9.809607101193227763e+00
-1.259422217821808175e-03,3.820492417358177517e-03,-9.805618677067256428e+00
4.502398897184496955e-04,-2.830758388540062162e-03,-9.814591483621743606e+00
-3.760232577707049370e-03,-5.093132765345739473e-04,-9.800359589619105805e+00
-1.695470851341352369e-03,-2.322503691158882364e-03,-9.803716457815257357e+00
-1.716909870189338091e-03,2.149137020485131135e-03,-9.809220999968665922e+00
2.710465891868404226e-03,1.001179379272897595e-02,-9.817240741825308703e+00
-9.551483357934950277e-03,-2.364736410244602273e-03,-9.798847827650794429e+00
7.333568034160991254e-03,-4.189779967506384283e-03,-9.797989446120070056e+00
2.404425943983042307e-03,-8.266575694994717990e-03,-9.806634091037368606e+00
2.160998450508386584e-03,4.301554195200011504e-03,-9.822875073231324805e+00
3.948340471307497206e-03,-5.594153727921493194e-03,-9.815657792923509817e+00
3.299093819281879655e-03,-2.029552591118454971e-03,-9.796252907791492603e+00
6.123345187590203444e-03,1.661392227235749738e-02,-9.794862400197548169e+00
-7.891559952373505826e-03,1.513344690762339923e-03,-9.820971194206764565e+00
2.459384410740183408e-03,1.065687800835328855e-04,-9.813941170232418187e+00
-8.783391720515008752e-04,6.303879223713918130e-03,-9.797887523799975185e+00
-1.845949473765034522e-03,2.650590223180298547e-04,-9.803907246163102940e+00
4.697246629046181003e-03,-6.912275555410534247e-03,-9.802900918208104386e+00
4.523729484107197893e-04,1.308977124274921964e-03,-9.807813673341987837e+00
-3.340031699545673808e-03,4.559113424102416434e-03,-9.802189445730220996e+00
4.407980722080116548e-04,-3.356968870637916033e-03,-9.811390972503573948e+00
-7.432141134504963338e-03,1.021397226169430336e-02,-9.796339836055269146e+00
-2.772774394411372904e-03,-7.899799965930775353e-03,-9.811039350138861082e+00
3.054015979828498921e-03,1.320686215071631246e-03,-9.795370483826319585e+00
-4.486986672001700045e-03,3.535536382943047645e-03,-9.817770444122647433e+00
-1.801769166457919871e-03,5.771927309545541590e-03,-9.802551570474191678e+00
6.645040207330966259e-03,-1.401734831739463207e-02,-9.804957100553677307e+00
3.391398826127488796e-03,1.636765782430041642e-03,-9.799718060011466392e+00
-5.714829245505811256e-03,1.711262138431701501e-03,-9.803741010136745260e+00
2.336003054573058003e-03,7.910976840193999562e-03,-9.801093207647950223e+00
7.956435290878404246e-03,-3.126931269068774100e-03,-9.801438845174931913e+00
1.256287903783505095e-03,-5.513155572874104543e-03,-9.815852516868263322e+00
6.458021051253988454e-03,-1.795932140234062294e-03,-9.796636621937897971e+00
5.454060559571665204e-03,7.387445743164029743e-03,-9.800974614698585441e+00
1.511922926727491887e-02,-4.112809816640949565e-03,-9.793225313257719833e+00
1.943326905851862265e-03,2.120408708084278119e-03,-9.816231165624170529e+00
-2.738848136421912719e-03,4.232387274925297586e-03,-9.787048159196670483e+00
5.721439769214827289e-03,6.572131560322447665e-04,-9.809702267141840792e+00
-9.163085957311083336e-04,3.154878613038699948e-03,-9.814351349248603640e+00
2.818632071197915787e-03,8.596641811180846804e-03,-9.801230786815020579e+00
-1.257095129097811391e-03,1.251115393074681004e-03,-9.797461954834517428e+00
-1.865863679904284722e-03,9.505430560570491544e-03,-9.797607819672309759e+00
-1.406298102695874861e-03,1.159766467207856526e-02,-9.806515214509984091e+00
-9.481756143630407411e-05,-4.342103293906004503e-03,-9.804677432523471126e+00
9.565217836662174211e-04,1.392956260192745269e-03,-9.817835638909961915e+00
-5.596677970348938776e-03,-2.161413849743887283e-03,-9.806662833373229304e+00
-2.849011870078566305e-03,-5.123949609083060935e-03,-9.820265293236326798e+00
9.404732070947443082e-03,-8.532764788762463087e-04,-9.793092788278913829e+00
4.359483707116475551e-03,-5.749976531555920332e-03,-9.810014777868026670e+00
-3.474516680392850110e-03,9.132989962056585432e-04,-9.809501144546203477e+00
-9.558937059939691004e-04,1.360958342033521083e-02,-9.798276582423691039e+00
2.067700785616049652e-03,1.216947294017506863e-03,-9.813010668989079477e+00
4.410291862173326000e-03,1.194074535796575557e-03,-9.802460079671169169e+00
3.739192077706893994e-03,-9.602016169201529200e-03,-9.809596246981323375e+00
7.039516132301224666e-03,-2.403777090262071425e-03,-9.803626396400668241e+00
1.226846098859857119e-03,-6.651256674140787820e-04,-9.808072876360053982e+00
-1.251853934685016054e-03,7.933303509542317250e-03,-9.809199321222713763e+00
1.814611742620402283e-03,1.213719648001067341e-03,-9.808654044487257195e+00
-4.645092491501858281e-03,5.864970107610155761e-03,-9.799055457780990963e+00
-5.640703095823886536e-05,1.172046280750491803e-02,-9.792430462477476283e+00
-7.205163570308401738e-03,2.943085505211851319e-03,-9.799740828376766189e+00
1.729517751746480463e-03,5.068595609736242791e-03,-9.811285498356339119e+00
3.083034811332812253e-03,7.446198628735357407e-03,-9.795031988508476672e+00
-3.179860964150542889e-03,7.260294225011716326e-04,-9.801541374579613830e+00
-5.420211918238243554e-04,2.528067385496917318e-04,-9.802992478836923596e+00
3.681589441853751372e-03,7.538960739567310103e-03,-9.800583776863152963e+00
-7.557312884615355851e-03,5.596357466090168785e-03,-9.793543545682265261e+00
9.811179306515970325e-03,-6.795713778859096242e-03,-9.822097552120519381e+00
6.938262662521210364e-03,-1.064735542028361027e-03,-9.814157635833536730e+00
-1.600320085738544647e-03,7.279463049463547747e-03,-9.802929040796078297e+00
-1.778185354277883341e-03,6.960900536633241216e-03,-9.805048580596260166e+00
2.930643931458937462e-03,6.112637408515355199e-04,-9.809374240654813448e+00
5.236612858593422785e-03,4.835797393136441989e-03,-9.799326371117077272e+00
-6.504296493557691801e-03,-2.773154879607817036e-03,-9.801035430114337643e+00
-1.722029854157961729e-03,7.578923755990476597e-04,-9.804080936012173453e+00
-4.905787941818256191e-03,-4.632385763718025384e-04,-9.800496651799422310e+00
-5.076957761206436423e-03,-3.640589719863942392e-03,-9.801665021863792404e+00
-1.767391287390181198e-03,2.381655787232732444e-03,-9.802847425286312699e+00
5.327122077670722825e-04,5.616632110440816956e-03,-9.807059879816046433e+00
2.951449553365724423e-03,2.112617284135397296e-03,-9.781444094158475266e+00
2.881039533681176244e-03,1.933529367508712935e-03,-9.811261030894629087e+00
6.955737681518013062e-03,3.854041076741280755e-03,-9.806697084304575540e+00
2.172562094373259051e-03,3.136792665235122205e-04,-9.805349962386483043e+00
4.334364001272431217e-03,-2.098942853074320727e-03,-9.808887722892590588e+00
9.564017962685274557e-03,-4.560698196297687489e-03,-9.808012430064028564e+00
-1.960058915332302774e-03,3.479265356416876964e-03,-9.815733955525072219e+00
-5.398526780146266010e-03,4.160463599982517323e-03,-9.798658289380872688e+00
3.239870419148855544e-03,-2.391769033288722226e-03,-9.800932072466325806e+00
1.199666876613499772e-02,6.727413478202275100e-04,-9.798341340365013252e+00
-2.625608703021284612e-03,-1.951349631544202360e-03,-9.806717122643490825e+00
-6.777742514656698997e-03,6.581795235696207003e-03,-9.784209888836400637e+00
-4.457234781815143897e-03,-1.804135269131066721e-03,-9.814687042071561507e+00
-8.879542549997199510e-03,-4.373780531239873995e-03,-9.811891793141573004e+00
-2.513985910150271820e-03,-4.440024748642828166e-03,-9.801647603526573604e+00
-8.107931415756517834e-04,-1.929643328593017362e-02,-9.800994859863932263e+00
-2.683331303688340488e-04,-9.462655777176252111e-04,-9.802666938901557714e+00
2.907947710914755369e-04,6.802957454381604492e-03,-9.815853268772988471e+00
7.479000613416207123e-03,1.124534136814856443e-02,-9.791502337403867884e+00
1.135782744756936094e-02,-5.395032351455483766e-03,-9.787464555477754402e+00
2.893928323436015422e-03,2.286789202695637627e-03,-9.802511694931524744e+00
-2.894878996909898850e-03,6.556002855446456737e-03,-9.798769459716556440e+00
2.817270329069926840e-05,-3.889262301517474717e-03,-9.779569503170883138e+00
-1.011279455556825463e-03,-1.592538931317589784e-03,-9.816402056859363512e+00
-1.036697005465420963e-02,-5.568173455275284532e-03,-9.798800032488374612e+00
-5.902888685094771076e-03,-3.340254017467426777e-03,-9.807120596893854625e+00
-9.277528958708527659e-04,6.118801232086013703e-03,-9.798332934414695217e+00
-2.268203565618663771e-03,3.322863823963301787e-03,-9.811304339163555710e+00
2.952836448578515828e-03,-1.120547078474951747e-02,-9.797562848952388492e+00
6.238131257489549705e-03,6.985052931942532968e-03,-9.810580739833344666e+00
4.575128234837697386e-03,1.372522396311465350e-03,-9.791178422415640625e+00
2.798636394497277038e-03,-3.809089964187601599e-03,-9.802282883850269357e+00
3.206409672786483117e-03,3.673750681109267443e-03,-9.808731978535352170e+00
4.996224163595693046e-03,6.773812170888364806e-03,-9.800163633284734388e+00
1.067725769500255453e-03,1.239098692402309371e-04,-9.801696347886791116e+00
-6.295438855216902926e-03,-1.101532559903118172e-02,-9.810990413117455233e+00
-1.209126270336507124e-03,-2.810402509982331577e-03,-9.790489940353870324e+00
-4.665508827563532961e-03,7.417066786210050559e-05,-9.785993886115313956e+00
-7.988108289818798141e-03,-4.134634062634554540e-03,-9.818568971040644300e+00
-2.058045548902679811e-04,-3.819394323006891027e-03,-9.806302096627177889e+00
2.557440334893186333e-03,7.488137561347515091e-03,-9.789916522254852538e+00
-1.959093158697335513e-03,-4.006446679008752315e-03,-9.797464231051463912e+00
2.215246556211564796e-03,6.925348060995475605e-03,-9.794398799053533722e+00
2.938313605825468907e-03,-8.871414557281782562e-03,-9.785710450180594933e+00
2.524771686460982115e-03,-1.916645565306704900e-03,-9.796616053824855896e+00
-3.200779714157536010e-03,-8.239574747567278423e-03,-9.805488086740096421e+00
1.891348879407725404e-03,4.848847830995251657e-03,-9.797407956109021043e+00
-2.253289665468496451e-04,5.986350826623850624e-03,-9.800935886428899124e+00
-2.237390554617416354e-03,3.570252093718285624e-03,-9.795378327765366322e+00
-5.682952549558456697e-03,1.111686321530622364e-02,-9.806135492367440420e+00
-1.099440749222661048e-03,1.867567694027850533e-04,-9.815470914220098209e+00
-6.522867742230738577e-04,2.491573580350511970e-03,-9.799940089381641073e+00
-4.841380979383047047e-03,-7.105343137994102548e-04,-9.796725673085251884e+00
4.357361592534591405e-03,-2.657883638058646057e-03,-9.816984363271181735e+00
-7.798982085210863849e-03,-7.776420375547486372e-03,-9.801911926403560571e+00
-1.006701076400588150e-03,-3.375313673129627136e-03,-9.810200797926563965e+00
7.245520560229473141e-03,-3.126719686980913480e-04,-9.810738315131093401e+00
1.860551746242968679e-03,-3.393092515692866344e-03,-9.801418013491145942e+00
-4.930992098694702078e-03,8.132075265943025958e-04,-9.799953047101803705e+00
-1.838658657673411349e-03,1.742024440123334699e-03,-9.807310567210031138e+00
-2.256848230062311316e-03,3.504499341927229915e-03,-9.796375583113212215e+00
-2.054865171633576612e-03,-3.987957047773064458e-03,-9.793269163958882473e+00
-4.372261854066417097e-03,-4.121516237413117359e-03,-9.790948874037777472e+00
1.108357081710005174e-02,2.626148759422839742e-04,-9.804628243683930933e+00
1.154228724741558198e-03,-4.260160553720636865e-03,-9.799673432455394462e+00
-7.582312540505362596e-03,-3.645945976399852725e-03,-9.820851511685695812e+00
-3.557135554789361918e-03,3.240725729048378814e-03,-9.792910962373269967e+00
-3.839261266814853694e-03,-1.526238047248959853e-02,-9.806224954332231292e+00
-8.439421238875444500e-03,-3.460561308792600450e-03,-9.794530537966215533e+00
1.102434153079505028e-03,4.226542004705264623e-03,-9.799450062633860981e+00
-5.823590699137397948e-04,-3.882224850014177409e-04,-9.801232294590416672e+00
2.088940195435848995e-03,1.797456729758100096e-03,-9.791642081137444720e+00
1.169398907914299176e-03,4.105316200891528803e-04,-9.792282422461809688e+00
2.132773469627202712e-03,-1.640435955996978178e-03,-9.810806203754735222e+00
6.080961702994731183e-03,2.614942523483368506e-03,-9.819405362769424883e+00
1.412658862877378936e-03,2.820481428264463939e-03,-9.803157520848541751e+00
-7.042940165602108553e-03,6.636543246857204773e-03,-9.804356598570841186e+00
-2.714174248857258338e-03,-7.190609985388967404e-04,-9.796277006872456283e+00
-2.570845987210309581e-04,-8.386660805598942364e-03,-9.800878492762230110e+00
-4.717180520887189789e-03,1.212209943441865763e-03,-9.799203830284282546e+00
2.853416297124856948e-03,-3.159872264652546607e-03,-9.797395250107943099e+00
-3.441872580912194550e-03,-7.954573574684055057e-03,-9.789098059114222039e+00
-5.031798414578956755e-03,-1.855975756474774582e-05,-9.810134006783473026e+00
-9.390505054329872144e-04,-2.162205192324402007e-03,-9.804696124851151495e+00
-1.039801343876453274e-03,1.263128210454400515e-03,-9.804741094975975457e+00
4.770823013700858581e-03,-9.573483170111859314e-03,-9.784408387213055391e+00
7.631120606450360116e-04,-4.075219797845870684e-03,-9.800386486545027864e+00
3.924419636901203823e-03,4.113261508685909476e-04,-9.789338229942456948e+00
-1.945882141916742587e-03,1.137620920450020722e-04,-9.814936093185572474e+00
-1.340460338373234079e-03,6.407658854023247190e-03,-9.806304645459363201e+00
4.120266652140164819e-03,6.698460307982622526e-04,-9.792594246440291528e+00
1.514880362919738665e-03,-1.732030487867085994e-03,-9.804980406258966497e+00
-3.893199738179982817e-03,-2.272082759457893955e-05,-9.796837009122899786e+00
-6.377810424672487096e-05,1.172999165704625675e-03,-9.808431361102492474e+00
8.871298507642602117e-04,3.179840982226855156e-04,-9.798878445925012670e+00
-1.827741248849285276e-03,-3.295036307757221610e-04,-9.810480551822761797e+00
-2.270940198614083017e-03,-3.270912464620733765e-03,-9.816901716813321244e+00
7.437423987937398853e-03,8.898658826565453497e-03,-9.810638917726121733e+00
-3.327135072360663630e-03,3.442867896866814059e-04,-9.804376367252018554e+00
1.129754895422456322e-02,-2.483979760277876554e-03,-9.804262207258144457e+00
-5.104661469781884321e-03,-1.830235950771443281e-03,-9.798413631233369614e+00
-6.363007675695672542e-03,2.678015116718281043e-03,-9.802804774059859838e+00
1.618145792514489884e-03,4.163409901367491790e-03,-9.794151267772106095e+00
7.163081965786673687e-03,9.301542168573693678e-05,-9.804501354526838242e+00
8.735191294971266819e-04,-7.820441734045346233e-03,-9.807021881727758128e+00
3.624608428731317458e-03,1.454027465478089113e-03,-9.798766870422635833e+00
-9.679154826090249734e-04,-2.862089704556577095e-03,-9.802656140133780838e+00
-7.640418221730532755e-03,-2.263010643924180665e-03,-9.801958143092528886e+00
-2.128473626262518924e-03,5.521733197971157719e-03,-9.792970573754510966e+00
-4.106742358897579222e-03,5.106744923247549459e-03,-9.797863937181048755e+00
8.127098274141868195e-03,5.962348904761215727e-03,-9.811365947503606577e+00
5.903923092618460801e-04,8.079284073953037649e-04,-9.797918813716158581e+00
4.294109016878902736e-03,-2.648750821484831611e-03,-9.787489241528792405e+00
6.033017781800871331e-03,1.072629328894136522e-02,-9.790936678277843086e+00
3.563052712356356341e-03,-3.271210695088233155e-03,-9.799304409795723814e+00
-3.984128694530847847e-04,8.510896847885571215e-03,-9.807507128933732332e+00
4.709608057559693667e-03,5.858104762589033850e-04,-9.804755408851667298e+00
-2.662755185068202673e-03,1.480451610737305163e-03,-9.801828957368526218e+00
5.014050553052169963e-03,1.270703567623812625e-05,-9.803075015767044320e+00
4.446547598072214495e-03,2.669593622021376299e-04,-9.797386751441534258e+00
-6.309116693141945779e-03,-2.762572005942034222e-03,-9.798719606694461959e+00
-6.969682722151900392e-03,-7.969871803012508818e-03,-9.804262801903101732e+00
-9.284936514418543063e-03,3.952177799430668659e-03,-9.793616768277535911e+00
-4.324086814631071356e-03,3.597872101318756125e-03,-9.809156118558924220e+00
-2.972816979891899480e-03,7.991092875183087446e-03,-9.796977960327900803e+00
9.474676010693695513e-03,-5.915360702103441073e-03,-9.785761582026019312e+00
5.106041640298287880e-03,2.477060280902869654e-03,-9.789978320833052194e+00
-4.515122153297388558e-03,-6.724852427975505642e-03,-9.801432922518092283e+00
-2.205596097807884827e-03,4.522963433500826885e-03,-9.826298445847248431e+00
-1.041207341793875477e-03,5.645643456378818086e-03,-9.817451417688095816e+00
8.542934262138757173e-03,-2.393735236029896716e-03,-9.805291338109046961e+00
-1.110062407133478174e-02,1.695236150214287849e-02,-9.798030399728750339e+00
3.427905000848218385e-03,5.970765998245750224e-03,-9.805109659399976252e+00
1.219191521709048903e-02,-3.559227987141146913e-03,-9.786646482761824473e+00
1.174765716922330019e-02,4.347760624835224352e-03,-9.818640497605128914e+00
6.548288289944364723e-03,4.349650803136452352e-03,-9.800927541101144058e+00
5.126430239573597468e-03,-3.042572417657495292e-03,-9.798532150054235501e+00
3.817510752764946818e-03,5.601315117181231672e-03,-9.805873630565274723e+00
-7.093321484174988818e-03,3.429421309328661415e-03,-9.803418511095079779e+00
-4.528004816943252708e-04,-7.277726990420419276e-03,-9.820121447546247495e+00
-8.019061603002898553e-03,-9.008472255646968066e-05,-9.792079758283822599e+00
-6.695359220385707633e-03,6.788973848689745447e-03,-9.807983032580764871e+00
-1.709812269909812295e-05,-4.349426913837510858e-03,-9.806143415792249129e+00
-6.459182599814520479e-04,-1.968594286882229937e-03,-9.801540713224868639e+00
-4.116115086364726186e-03,5.942949235088223515e-03,-9.805243238679377527e+00
-2.517465406315702418e-03,2.537195297008029184e-03,-9.790561786620227025e+00
6.415432810817712009e-03,6.598315140236456558e-03,-9.792130847510804870e+00
2.279997364685073125e-03,7.338364516768189653e-04,-9.818407549395512746e+00
2.397041060172736080e-03,6.887928941202203824e-04,-9.806163262180714213e+00
5.117223116386675208e-03,6.105910953149418750e-03,-9.792836734714272851e+00
-1.733250086050268889e-03,1.916231693355341034e-03,-9.802797615030286238e+00
2.636303282638935474e-04,8.529758235360156843e-03,-9.796142974986553398e+00
-8.094006014304598248e-03,4.071578448281330202e-04,-9.811734608568517757e+00
9.314386800943010719e-03,-6.899507827894946210e-03,-9.801251662074248472e+00
5.215425627872862305e-03,1.151619353761577751e-02,-9.816567330375495004e+00
-3.341448380955134093e-03,-3.310876475650300320e-03,-9.802843490113744451e+00
-3.030892973348974645e-03,1.559044026863592178e-03,-9.803723594837135735e+00
1.357951099974796707e-03,-5.110863429618874108e-04,-9.803398047897276868e+00
-3.570093362951819085e-03,-2.888463461802605239e-03,-9.784873244143820870e+00
-2.030667805339998028e-04,5.285916780267455560e-03,-9.797107072281162843e+00
-1.085847482915342724e-03,-8.478167623074314360e-03,-9.795832442973177123e+00
5.628295267620047823e-03,-5.206358041906661641e-03,-9.789692868714574558e+00
1.705232769569668943e-03,2.424527055299009401e-03,-9.801098495284163548e+00
-4.584021850610737851e-03,1.272440598625643876e-02,-9.813144412329352306e+00
-2.684050844786797373e-04,1.542434577664546593e-04,-9.805616782639106077e+00
2.692260660589617868e-03,-1.742045228875102689e-03,-9.805844128779659385e+00
4.533146789213530516e-03,-1.042261477000364436e-02,-9.803331896474176688e+00
-9.684365154945894991e-03,-2.089337106423480844e-03,-9.795917861201841603e+00
2.044379111604336698e-03,1.382765612406083866e-02,-9.810454699614187035e+00
1.221201010406727794e-02,6.874336370961565273e-04,-9.795815584194109249e+00
9.065403670025888594e-03,-2.180099916157095512e-03,-9.809227279535962296e+00
1.109246625382910752e-02,-1.123669632856070600e-03,-9.800861609883641634e+00
1.848572733750569567e-03,-2.839289801533532737e-03,-9.802522862490604894e+00
5.165178458598476338e-03,1.297629936504930475e-03,-9.806562049264112346e+00
-1.301922727187416681e-03,-1.690062188435626465e-03,-9.799878606482408827e+00
5.861792635439292548e-03,3.152207535511207179e-03,-9.786941998681264465e+00
7.756349141322562216e-03,2.441862416543660180e-03,-9.793971121339380304e+00
7.621274309063675624e-03,-4.890075089431192290e-03,-9.790327727973672012e+00
-7.674420086444882876e-03,6.980198442464351574e-04,-9.811704463733349257e+00
1.130352932379172920e-02,1.195620318641437557e-03,-9.808691955834680343e+00
1.005537955608108627e-03,-8.122605260531469418e-03,-9.795498458429845456e+00
3.734352172720144854e-03,-2.031287670444278221e-04,-9.803832319430146214e+00
-5.311678505539839390e-03,-1.859074739051865512e-05,-9.802685524289060481e+00
-2.678600316925529388e-03,9.106458200987234885e-04,-9.792996459650071372e+00
9.261493744917276283e-03,4.912158994631579158e-03,-9.796345398524366033e+00
-3.182006693113214636e-03,7.267157037599454583e-03,-9.804925234596876038e+00
-1.001646468272839909e-02,-1.329867051309352368e-03,-9.787325552433586040e+00
-3.816219837509850134e-03,7.829511569918578412e-03,-9.816389712689998603e+00
4.777994754888425025e-03,1.616956943161518192e-03,-9.802059337117130511e+00
3.186959908492939791e-03,2.607081235933819056e-04,-9.796131216426035238e+00
-3.815449113407119470e-03,2.706173957522658036e-03,-9.816061337462576475e+00
5.619757177567938182e-03,3.661093861754696061e-03,-9.811091968305779787e+00
-4.831608381851145578e-03,9.615887193127274201e-04,-9.803369571669424687e+00
2.702445905164215650e-03,1.537924670894390148e-03,-9.802607473127261883e+00
-1.833315778669634109e-04,2.051988516443884001e-03,-9.798580964431472751e+00
-7.025757677605931097e-03,5.446456026099592666e-03,-9.802303738733458616e+00
-1.095510927403412112e-02,3.817079315216807649e-03,-9.796021711896997886e+00
2.387838956700374395e-04,-4.722610590774530340e-03,-9.808597843157317087e+00
3.937772106127402846e-03,-2.334960475858024933e-03,-9.799469000603771462e+00
-8.486824554103201274e-03,1.062807038164528426e-03,-9.802315411496994813e+00
-4.225530725920060736e-05,4.219886812108252557e-05,-9.815330438903417942e+00
5.941457810277320966e-04,2.823094742229313118e-03,-9.791097847761703221e+00
-2.692459423485687401e-03,6.378738306667419873e-03,-9.808159013186612540e+00
-7.662684300312055073e-03,-2.556935292486587231e-03,-9.808269330068009495e+00
-2.150001236508325420e-03,6.306126331604234095e-03,-9.815446540710251355e+00
-8.649239632474449088e-03,2.997559840380883381e-04,-9.814349453334672901e+00
1.129933066783367010e-02,5.509634461864439288e-04,-9.811339285363180451e+00
7.857193527120728089e-04,-9.053337691504417806e-03,-9.810770669626723617e+00
1.271647148886981965e-02,6.460568937480548786e-03,-9.806014245647270755e+00
2.880698937895628895e-03,3.040002815655674928e-03,-9.797006900950862018e+00
3.917367813080261697e-03,1.318658920900989476e-03,-9.778873055243451518e+00
-6.405784151746468993e-03,-9.658905515309623713e-03,-9.808557752815467268e+00
-3.583698199867081289e-04,-3.412483089019620244e-03,-9.810796856782378228e+00
-3.365335708224090165e-03,4.519073484577290807e-03,-9.804271951685501918e+00
1.122597500062764823e-04,5.611028991251649015e-03,-9.817811417327465762e+00
3.516114669600761862e-03,-8.817483679851984696e-03,-9.804835016937754943e+00
-9.454454352653901897e-03,3.718262012555916332e-04,-9.815029792903652961e+00
-2.635497155817273680e-03,-1.411502498740305808e-03,-9.812729307619420638e+00
-1.695905779984798042e-03,-6.626643676885523096e-03,-9.817139059163206838e+00
-7.470041991970882353e-03,3.437883833615808845e-03,-9.805490585228545442e+00
3.459848169521018060e-03,-1.085315412367194861e-04,-9.809761806558173092e+00
9.598199891209112551e-04,-1.833871410153964116e-03,-9.790338948825972665e+00
8.946209700556361291e-03,5.701188237334878575e-03,-9.806414884326864367e+00
-1.075603342158798102e-03,9.746370386290016327e-03,-9.805712332242192630e+00
5.098192286015755005e-04,6.074107873028517998e-03,-9.795777859172396518e+00
3.149455299083509484e-03,4.428470874307343860e-03,-9.806224531766092767e+00
-3.572181671368945908e-03,3.587724064945325628e-03,-9.807667296583531424e+00
1.543101914106996325e-03,2.326186410027172424e-03,-9.797248198870363467e+00
-1.585615717148736734e-03,-6.504277492487228231e-04,-9.806491439693118650e+00
7.720898194419946632e-03,-3.599855988606691631e-03,-9.802736709285730043e+00
-3.692808318806427986e-03,3.760732147891064549e-03,-9.798594566782391269e+00
6.845728521081950735e-03,2.857499412162524486e-03,-9.798493455602315549e+00
-4.392463972570240585e-03,-3.400175436254137054e-03,-9.786796613420840174e+00
-1.824922922076310577e-03,4.723075884158033436e-03,-9.802431824113341463e+00
-7.346934508001794553e-03,-8.526280169142418401e-04,-9.811162997179463829e+00
2.059055094986903933e-03,9.636873961926945009e-04,-9.805044264933613363e+00
6.477915297359848872e-04,1.618931346712562409e-03,-9.805277563083389936e+00
-5.800905412441190873e-03,-1.339189814983555429e-03,-9.799432802728247793e+00
4.130453967596691214e-03,4.227595153358389146e-03,-9.793104552499023896e+00
-3.402336127826836084e-03,4.547290360135835922e-03,-9.820564721088299365e+00
1.065217332054875163e-02,-5.082165333435108984e-03,-9.813331238330523121e+00
4.199687050511092395e-03,1.172793315950540136e-02,-9.805292516462715824e+00
3.973335497553403032e-04,-7.627605958302715802e-03,-9.810947619512079498e+00
-3.158812599641812324e-03,4.218152523938262753e-03,-9.814741167436897840e+00
-5.105136292789436495e-03,-3.641850122431618091e-03,-9.793193295810947774e+00
4.637497494690554119e-03,-9.865722043685331774e-04,-9.799799462105040604e+00
7.090169994978382136e-03,7.017995609446377007e-03,-9.801280306487685223e+00
-7.736464940273929001e-04,1.857825664036984485e-03,-9.814489423262477530e+00
2.475455556782044618e-03,1.207121573392499651e-04,-9.802986506185046522e+00
2.131095397082385587e-03,4.212361420235020797e-04,-9.797256388299791396e+00
-8.979703466247155805e-04,3.443732543519647388e-03,-9.800200173147928240e+00
1.014809472233352012e-03,7.167054165416765748e-04,-9.804683559814707294e+00
6.048896931811004662e-04,1.222354699123773952e-02,-9.799742858231681453e+00
5.847508698162336496e-03,-9.148096660581115508e-03,-9.819608475261540903e+00
-3.453440025407555620e-04,-7.303639622301614761e-04,-9.809908058610696813e+00
6.066817307865435792e-03,8.736172587310703924e-03,-9.779517768744240058e+00
3.662121476560266896e-03,9.623294005652198446e-03,-9.797342628095718098e+00
-1.650351414751906852e-03,4.507683889014391793e-03,-9.791577689744942248e+00
-6.947090999965296713e-03,4.682603668085746039e-03,-9.791627331464113126e+00
8.395601597145354797e-03,-1.187615430332676766e-03,-9.807960706632595560e+00
2.348695206846617995e-03,3.543403802251782458e-03,-9.795245826927008181e+00
4.214543394962857840e-03,2.607301300669592758e-03,-9.795888932839233121e+00
-1.664070230069827254e-03,9.214033659791346503e-03,-9.804415982404313112e+00
4.839079733984499518e-03,3.045534192461487634e-03,-9.803548168136815733e+00
6.680559043478292340e-04,2.481622201728706390e-03,-9.805185750268574196e+00
-1.120477286685739662e-02,2.697554855244679774e-03,-9.787202197174593721e+00
7.790625328239601539e-04,-9.293139077373968300e-05,-9.794324109100806197e+00
-4.994738523350723304e-03,1.298470528885322609e-03,-9.808082948377045085e+00
-5.221395381864187175e-03,6.752380148526677603e-03,-9.802089752026104108e+00
-9.916881903149145534e-04,1.198021962094604573e-03,-9.794679488861829597e+00
8.274045482886061703e-03,-5.594808681363338740e-03,-9.804507323276713038e+00
2.792069451795184919e-03,1.910809173630663091e-03,-9.814408645121019958e+00
-5.587559377153723805e-03,9.383449747561249318e-03,-9.803428551015031189e+00
-5.467723747801480315e-03,9.316277168062042993e-03,-9.805804970598535064e+00
8.071217839957864001e-03,-1.819402271238748116e-04,-9.806133537828232605e+00
1.676645279405393832e-03,-1.304201654672517427e-03,-9.823366651355605939e+00
-2.854147013711922677e-03,-2.718303294647047685e-03,-9.797499304512401253e+00
-5.455546863338658729e-03,-1.658680239572804787e-03,-9.805865411008699795e+00
-6.361668551621818546e-03,-2.759256681878961576e-03,-9.814775063112714193e+00
-1.558450505067867503e-02,-2.316902254531103683e-03,-9.795918186127938299e+00
4.225284761347336895e-03,-3.315234585564963941e-03,-9.799399960168711843e+00
1.118950446138284802e-03,-4.004554509752902337e-04,-9.799157534491644839e+00
6.718360558533325753e-04,4.636294780464766604e-03,-9.811027801881119004e+00
-8.368418151497976571e-04,6.779100880765773392e-03,-9.796788252986919687e+00
3.064992722081134359e-03,-8.892651494166708970e-03,-9.808207756235264085e+00
2.667672645112092924e-03,-8.591589079284956808e-04,-9.799648786489481012e+00
8.384271597503453397e-03,1.025950699581924157e-03,-9.805568174367429890e+00
1.066156745082017313e-02,-4.946550908993030448e-04,-9.818323163928383224e+00
-7.263017595187079394e-03,7.076078688909746492e-03,-9.798783543619997261e+00
5.844399248633686678e-03,-4.231011631056843733e-03,-9.809364156313367999e+00
-3.141222647048883378e-04,-3.829869020644977549e-03,-9.788243196702541837e+00
3.378716317561585459e-03,6.845971845390713120e-04,-9.797841565554698207e+00
-4.518752788711965541e-03,-7.154101788339082765e-03,-9.803787141482771972e+00
9.070515127962903643e-03,3.636298042058109647e-03,-9.808824292953911339e+00
6.135211309137579908e-03,4.266793708817576635e-04,-9.811771090569774145e+00
4.039849779659526914e-03,-6.150456383820905940e-03,-9.791847860374366164e+00
-4.788254174081181362e-03,-1.530065327054197792e-04,-9.807831561798789011e+00
-8.585745557396334479e-03,-7.450315837714637998e-03,-9.788871662578230826e+00
2.080875595992662166e-03,-6.054425298251297355e-03,-9.810734179331962679e+00
-5.727791422084438019e-03,4.515745605756753939e-04,-9.793702926812917653e+00
-7.681916141466588882e-03,8.355024004555604983e-03,-9.796541600462811417e+00
1.543468928287881773e-03,3.375160650214727425e-03,-9.810217298671410902e+00
2.640084452195835471e-03,5.485808734544139927e-03,-9.803035583054475310e+00
3.263128484968508616e-03,-3.129962885048943443e-03,-9.792508021263660822e+00
8.337522288572806264e-03,-2.651148542932075906e-03,-9.800193438968452853e+00
2.861797161774639817e-03,-9.637776198863157520e-03,-9.807188382157713491e+00
5.965100322258646073e-03,-8.056490920617373269e-04,-9.790383565476510341e+00
-1.579461926675791326e-03,-7.666508406149936429e-04,-9.803614399704741800e+00
7.418479660959988523e-03,-9.496348572010787636e-03,-9.791163832349305096e+00
-1.230745651242241227e-03,-1.733195769464021020e-03,-9.810976883218584632e+00
2.301024213400530358e-03,1.598376603615239352e-02,-9.810590743106144984e+00
-3.645288334781374498e-03,-5.164194233081033196e-03,-9.803314291783518541e+00
-5.692565551837266112e-03,-3.457228598482672832e-03,-9.819172680671997000e+00
-1.711202916000284405e-04,4.094797390511852736e-03,-9.799463216907748020e+00
-3.545030275622785675e-03,-3.905245602878336993e-03,-9.804000921000424640e+00
2.144685989739214104e-03,1.850530432169455574e-03,-9.801433737225019982e+00
7.590077925813505048e-04,-6.034009620225940819e-03,-9.805946855809855478e+00
-7.810735949881832119e-03,5.333895421083830087e-03,-9.797305111465240302e+00
3.068977717668465964e-03,-3.145443342911769094e-05,-9.805979809222872490e+00
-2.952735271891855119e-03,2.894990940987492416e-03,-9.797197096699832741e+00
1.655771857480985198e-03,1.661430919764948864e-04,-9.800685001036095301e+00
6.573696540658731727e-03,-1.677810064622782451e-03,-9.810865224724716782e+00
1.697353999378956729e-03,-7.422886594815884982e-03,-9.791820552699682878e+00
1.201284091171456831e-03,4.350125466076723048e-03,-9.800916519233688007e+00
-2.858988157527395883e-03,3.184125629199402972e-03,-9.791803408604890180e+00
9.071250847479776780e-03,-1.748630452591378370e-03,-9.792796299224789891e+00
5.811611835296205848e-03,-5.888849928777464479e-03,-9.795295943960482532e+00
1.739428990261046235e-03,-2.166525325576441983e-03,-9.799788487893568600e+00
-2.697826933929993194e-03,1.139105050471556904e-03,-9.797639055691828247e+00
-4.462930628162370579e-03,7.496309211460752166e-03,-9.795990087803678747e+00
-3.128179357646731270e-03,-3.703662817494477420e-03,-9.811362676843298658e+00
6.802361334102619526e-03,-8.195779918332259453e-03,-9.801123924993898839e+00
9.810781081203588314e-03,6.404725667755878371e-03,-9.799566018491912445e+00
-5.346879858659857971e-04,-1.836956109008776880e-03,-9.796544782853588984e+00
2.011998223932070780e-04,5.221981752081468822e-03,-9.803227518184046474e+00
-5.107934460873146676e-03,-8.285691355021850002e-03,-9.805319349370105186e+00
-6.081406550449506426e-03,2.091611589731180287e-03,-9.823899230243799963e+00
4.550185466180568209e-04,3.115681601944820731e-03,-9.792144736063889354e+00
6.555242623755890008e-03,6.254741036821815856e-03,-9.804122053744293908e+00
-3.783303794046295851e-04,2.617826896184218596e-03,-9.797495664095020373e+00
1.778980081033813224e-03,-6.774618540566907689e-03,-9.787453062185539565e+00
1.320849268395371057e-03,5.320904590484944359e-03,-9.808125210306579689e+00
-1.575548562035297695e-02,-7.802363986854811938e-03,-9.808888082581262324e+00
1.154297816671006954e-03,-1.023418983169589475e-03,-9.794280989359878120e+00
4.179946704829364608e-04,2.939102363481847346e-03,-9.808213431724373876e+00
-3.441380574029634983e-03,5.862785126311830484e-03,-9.801458319334068747e+00
6.029682219236313315e-04,3.498472517531470670e-03,-9.792021872329470966e+00
8.431311654932828166e-04,-2.807647082596137315e-03,-9.809126604497583557e+00
1.796250329298497211e-03,-7.186014608362224429e-03,-9.805072783664124714e+00
7.106890300867781465e-03,8.043945814327236113e-03,-9.800284580855802119e+00
2.493066400076202581e-03,9.391340618479615369e-04,-9.802934252957356875e+00
-3.712520075602093132e-03,5.771026356154625170e-03,-9.813183558558547404e+00
-3.994006649466498408e-03,4.492163904799555997e-03,-9.797578864808084376e+00
-2.131187371814013704e-03,4.883545101094940999e-03,-9.802773103142238043e+00
-3.109597280970497705e-03,7.139010578004281043e-03,-9.814152840597323291e+00
-9.421406056683729116e-03,1.774206941491516219e-03,-9.800430836162675519e+00
-5.636632330009891736e-03,-8.102466178570731994e-03,-9.825782623462680831e+00
7.993102665426391265e-03,-7.808561608264268268e-03,-9.784861727075883309e+00
3.419252875855938352e-03,3.708918204927127201e-03,-9.787617700285414557e+00
-4.582034570222358501e-03,-4.604349135280339650e-03,-9.802307538759464478e+00
2.352707527982779130e-04,3.108046711723982860e-03,-9.803965536737853981e+00
6.821284183517950343e-03,-4.101521727135144096e-03,-9.787385127648079219e+00
8.535623876912349153e-03,1.807087069391214752e-03,-9.808855137513038613e+00
4.472182016148326493e-03,3.706291650132026352e-03,-9.799552177942663533e+00
7.008248889105923342e-03,5.558499290142720345e-03,-9.804066973624154357e+00
-1.063459360989046226e-02,6.166838170355059059e-03,-9.820108770576830182e+00
-1.714711116875443841e-03,-8.896626504129983778e-03,-9.800551656525144040e+00
8.760192539785714803e-04,6.525250405007643542e-04,-9.797812308142395565e+00
1.825811087168864024e-03,2.000355766420695673e-03,-9.800977178541559809e+00
-3.642196135017555618e-03,-3.499189264159898154e-03,-9.812299779507263509e+00
3.474621788071707721e-04,4.233447252837341766e-03,-9.811966065258244996e+00
3.840586040727841455e-04,-7.897126822950294254e-04,-9.793786252033211071e+00
-1.498930702358535795e-03,2.593605686356145225e-03,-9.799210479058025669e+00
-5.022176982652216265e-03,9.868458771643150509e-03,-9.785565269844209269e+00
1.388418706172766842e-04,9.301399759486649477e-05,-9.807326407552459102e+00
-4.390170553898628883e-03,-3.053630715005332171e-03,-9.819304378510915754e+00
-5.186326350221394203e-03,1.145188816652043624e-03,-9.800038073631464286e+00
-9.489830222835856852e-03,1.506668970135746546e-03,-9.807947169707883717e+00
-8.254783403208296524e-03,9.535574447792436598e-03,-9.804128108866152047e+00
4.407320505934085586e-03,-1.142850866353582783e-03,-9.821751114799855742e+00
-1.747990380399814560e-03,-3.372555354244730075e-03,-9.798511869347558800e+00
-1.235188097705017425e-02,-7.730723252313437830e-04,-9.800396203040573795e+00
6.340881677320065087e-03,-3.404730150064582198e-03,-9.791735932244712615e+00
2.736115897772271356e-03,-2.311750594538643146e-03,-9.788327617794950086e+00
7.075384565571102638e-03,-1.240038470956611114e-03,-9.795407857298648935e+00
1.713395118740590646e-03,-1.657705998964847244e-02,-9.794574377420737221e+00
5.909246985957646199e-03,1.246552002952948379e-03,-9.791665867658119637e+00
3.329121913654844913e-03,3.943851145270228092e-03,-9.795390576111765668e+00
3.447573260923101485e-03,3.758692715501218713e-03,-9.795747090903390131e+00
-1.441032250086089501e-03,-2.575300245091873864e-03,-9.796668990006125455e+00
-9.222060797259643960e-04,1.585968271520308670e-04,-9.813058070712928682e+00
3.351720188462380557e-03,-2.577500854327302408e-03,-9.812346169740244761e+00
1.613577227529290484e-03,5.275033976910071219e-03,-9.788611424989483112e+00
3.859850984759393561e-03,3.807093621286326748e-03,-9.805069056275774741e+00
7.317065211373045136e-03,6.871682082548116396e-03,-9.797597898901205582e+00
6.472504631654186873e-03,5.038204413331558336e-03,-9.801290875106905887e+00
1.118230764174380637e-02,3.316699565714577823e-03,-9.795737911055889313e+00
-4.226431087742820066e-03,-1.870558257839928908e-03,-9.812400316998845184e+00
1.359151062342017031e-03,-1.266149046929934165e-02,-9.805660485295753404e+00
4.200553732613250546e-03,5.282126719729956024e-04,-9.800470217413812080e+00
2.560251777146184578e-03,4.716493188333794294e-03,-9.798052384700586259e+00
-2.478085947343186633e-03,-2.353112378549873391e-03,-9.819949781638481312e+00
3.765393495496060106e-03,-6.748458434192449069e-04,-9.803390558987292280e+00
-1.263469820602841241e-03,5.736314770090379656e-03,-9.800411267761898415e+00
3.578078423350064801e-03,6.659326921588130596e-04,-9.803063596406834890e+00
2.810662253733544821e-03,1.769454845299385992e-03,-9.793402951862526962e+00
-1.736795445357937340e-03,7.735095030329907197e-04,-9.809364793627175061e+00
2.707695684996976222e-03,7.646901273999303500e-03,-9.804047038974651684e+00
-4.042277390995894885e-03,-8.845897071262490835e-03,-9.800974762233565230e+00
3.488444124598642435e-03,-1.436411553945205095e-03,-9.793005158570432300e+00
-1.683721428571185270e-03,-9.273391647105149599e-03,-9.807662489740307521e+00
1.931959430770473565e-03,7.250455752993024538e-04,-9.797228587898018759e+00
5.895677270228562934e-05,-5.464567718560340605e-03,-9.801707702455315641e+00
-2.211000599887174081e-03,2.007433285135560869e-03,-9.811384480802903596e+00
2.402180672420957310e-03,-2.728309401588943899e-03,-9.805967676955244627e+00
3.127050536627620954e-03,7.788216215789302808e-03,-9.814444723367852674e+00
1.128668751061319940e-02,-3.125512746327550970e-03,-9.803275507731717298e+00
-3.407995501350002347e-03,7.130254138992271618e-03,-9.796920965371770151e+00
1.154343310644949166e-03,-5.897247925505989113e-03,-9.780907477030503117e+00
4.046948283279215922e-03,-6.306903868177795268e-03,-9.805154650373939518e+00
4.705337954293758139e-03,6.125878888397135770e-03,-9.807234643843443678e+00
-1.231782785798074889e-02,2.382098842912407435e-03,-9.800602211818860710e+00
-4.857181870363977416e-03,-5.119742348306277960e-03,-9.803029067510108163e+00
4.583651527663898037e-03,-9.405741232671421641e-04,-9.800273358191484263e+00
-1.298060160553596428e-03,-7.432780744847843936e-03,-9.801014489204494140e+00
3.578778941031857813e-03,1.170679405519105265e-02,-9.793463908641362181e+00
1.760903347526773279e-03,7.882129749451301237e-03,-9.812610043724248499e+00
2.718936898789118140e-03,-2.354261331124690888e-03,-9.801384418182935931e+00
