gyro_x (deg/s),gyro_y (deg/s),gyro_z (deg/s)
-8.843100190471377825e-03,-3.381344067860167502e-02,-1.674630584239503216e-04
8.428171178020030241e-02,5.683677787973407704e-03,5.445101490576183560e-04
5.377080039612125439e-02,-1.104138570587334146e-02,1.068912116968843973e-02
9.134929562638205436e-02,7.087209581644621226e-02,-6.810763440083272835e-02
1.441134245612345210e-02,-2.628511451883040403e-02,7.939015463298346523e-03
-1.126371251720338293e-02,-9.357319903365955704e-02,-4.980386553680420797e-03
7.036206888922121386e-03,-7.080924960881250160e-03,-3.603945903004316526e-02
-9.943885776024101453e-02,-3.067685662970660171e-02,-3.489282501342785142e-02
-1.395088216031790430e-02,6.218616933999474017e-02,1.641664138044080304e-02
3.022868330453030647e-02,-6.753030178297370718e-04,-6.121690860061611977e-02
-3.535901073036352982e-02,3.997463504440125492e-02,-2.897253137536248148e-04
2.847015341643318719e-03,4.159817110878961943e-02,1.359667179783808841e-02
1.687529292516407910e-03,-4.118740278568499939e-03,-6.862655726307834159e-02
5.490799292226261619e-02,-2.854897218613690422e-03,3.185510738503504607e-02
-2.923858427417884778e-02,-3.643104928419519523e-02,-9.872287464512831401e-02
6.104333962546665184e-04,5.816784070969580750e-02,5.039364921442186090e-02
-3.977845933325669520e-02,-4.892049729942353486e-02,-3.782657558936894371e-02
-2.206992925362890809e-02,-7.837355381535536514e-02,-5.472245237589639516e-02
-4.633032751390546433e-02,-5.565677419772465523e-02,7.261207200287609839e-03
-8.153717064066072495e-02,-1.808618227128950401e-02,1.730778045556208983e-02
-8.370617934733408372e-02,-3.228455477800815099e-02,5.278602166227136516e-02
4.767727761372728829e-02,-5.251002576968376995e-02,4.019133343126116142e-02
3.666596626654249763e-02,6.849716091306039603e-04,4.580874199968471006e-02
2.246655203138315723e-02,3.659634627322871231e-02,-3.142185737046912508e-02
5.502578352852362936e-02,7.217645539091653226e-03,-1.863027518077423755e-02
6.992546993528088450e-02,3.629479323390435302e-02,-2.992620178426380530e-03
-6.636916293801960187e-02,3.817836033127817302e-02,-6.505828254794304710e-02
-9.585237848468348976e-02,6.851817913504915092e-02,-6.705671304013953449e-02
-1.553881986668377742e-02,2.012912047888442205e-02,6.177247036766393175e-03
-1.454206272259384730e-02,-6.764818526952878774e-02,-4.853336275757452224e-03
-4.421289486253884501e-03,-7.117276950332985649e-06,5.373703471243025664e-02
-6.966218386918207606e-02,2.309480439354074516e-02,-6.743426915292526080e-03
-3.370196613331288837e-02,1.232645245255148403e-02,-8.547681159537426354e-02
8.960247001403843364e-03,2.233308171013673529e-02,3.966308247648952373e-02
-1.273305098041596986e-02,3.232724315385695352e-02,5.038591742933826167e-02
4.195322341092191237e-02,-5.096599599664983216e-02,7.635213660446620032e-02
-1.491909720303572634e-02,-9.442446269403844891e-03,-1.128863743322767836e-02
5.089131918898848195e-02,1.176074658233229875e-01,-8.112857775129673349e-03
2.685966358461665954e-02,-3.671369573253553675e-02,3.204757017857223084e-02
-3.053574378042663712e-02,-4.923377323648507609e-02,-4.468556156552530578e-02
3.078195734521260371e-02,1.952166834030027651e-02,2.719893620769698369e-03
-2.343100661742389748e-02,-5.754328061832209018e-02,8.595986101565221416e-03
-3.217182612905168659e-02,-4.790911518800538248e-03,7.812894525670408159e-04
5.633755081703608475e-02,-1.092401138195327366e-02,-5.477432739166843145e-02
-3.020467583213411189e-02,-8.183658130219365057e-02,3.731361072371667392e-02
1.462749966052935904e-02,6.042454129336242291e-02,2.649778333005161149e-02
-6.999908242507318912e-02,3.636138508531722158e-02,4.047675520252444481e-02
-4.919529323439128521e-02,-7.527522209589374014e-02,-4.491531155884076476e-03
2.164816683506859581e-03,5.071208696314449815e-02,7.536951413329078496e-03
-3.836968442666378182e-02,-6.623107377171157106e-02,-4.185690025706886169e-02
1.049020379663313102e-02,1.720783407015964717e-02,2.563745035648801879e-02
5.234321468954213769e-02,-3.188249480800467439e-02,1.848427585030663900e-02
5.335959091109430258e-02,-1.522870924363937126e-03,-1.056637447529071572e-01
6.069311580066369394e-02,-5.774972813466698607e-02,3.844983629903498540e-02
7.938284554186346431e-02,-2.350224084400375987e-02,-2.757587242287181870e-02
7.601932596844877821e-02,-6.402851515869745561e-03,2.820268832837499393e-02
-6.327751142193481504e-02,1.200433216824032395e-02,4.578228825461597151e-02
-4.028143568856306506e-02,1.146911487176212850e-02,3.229047152606989712e-02
3.937453657547617530e-02,-1.572496492098232265e-02,-2.065530204360782607e-02
-1.688599224421122660e-02,6.444476449930955364e-02,7.625862320468317426e-03
4.637542913043464499e-02,-4.451827265465691311e-03,-5.096987933777039070e-02
-7.395152453444310547e-02,5.753248420958824959e-03,2.135606492885418900e-02
-7.103521468058344480e-03,-1.131532437832940413e-01,3.814885416832718840e-02
-3.156074986165247585e-03,8.812592021228979680e-03,2.101224292438249805e-02
-4.336650646410415005e-02,-1.782075963437611266e-02,4.769296355847747054e-02
-7.607442150095361511e-02,-7.410550609699978995e-03,3.660795649041766187e-02
-7.045110273530684475e-02,-8.159306793535792135e-02,8.308344158424090312e-03
4.429131152323705772e-02,-4.255801778206823316e-02,-2.843794277086295064e-02
2.597854405350398174e-02,5.116902340039820862e-02,-7.949990539370397832e-03
-2.710817105252255610e-02,-3.254200789199009070e-02,2.335773574346620626e-02
2.139550592530748471e-03,-2.152325470247500733e-02,2.186448392932656415e-02
-1.352623874934404981e-02,4.697354318398572204e-02,2.718074706416502215e-02
3.125822530815828421e-02,1.836464981590901421e-02,-7.946742458941160811e-03
-7.580327727985103348e-02,-3.442583508567737677e-02,9.206862043807412244e-03
4.865624580665232728e-03,1.049019742866862809e-02,-5.450220834929107860e-02
5.187366042676953837e-02,2.009882963850023394e-02,-2.602472820150344979e-02
4.786971710986159118e-02,4.833456868098423564e-02,5.063874591217753900e-03
-9.437862209456240881e-02,-1.776940877673994015e-02,1.842070751512564844e-02
-5.212439257296298811e-02,-6.592099901252982536e-03,1.818191304039547262e-02
9.308607991020049002e-03,4.540339901979421888e-02,8.344294865938414740e-02
-7.156982124708539950e-02,-6.615521595006093949e-03,9.826523055052195643e-02
-3.719547150904981697e-02,7.709788155367719442e-02,1.520197899476113425e-02
-1.924773134786818274e-02,-1.898973749840652744e-02,5.581038066334802206e-02
1.129538377216408179e-02,-2.756168133090305256e-02,-1.481783637354705356e-02
1.330416566066009018e-03,-3.697357738957431778e-02,8.741550255339944342e-02
6.848332401703745298e-02,2.739518668757029082e-02,2.878208119535637793e-02
1.606458669989763166e-02,1.204616281985888999e-02,3.224337766844805834e-03
-2.728326932772529370e-02,-4.921530773830750521e-02,-2.033164798833487011e-02
-3.947489414205395883e-03,-8.592271771129849495e-03,5.124475763633246778e-03
9.492420550103634197e-03,-8.375225921548853925e-02,1.955424024501707658e-02
3.725418130584922521e-02,2.510724079128260136e-02,-4.777453089952701619e-03
-3.736227044787351209e-02,9.703751224566384281e-02,5.769518715333425696e-02
-7.812493317715533958e-02,3.192962092240772543e-02,3.082444145772916116e-02
3.875656017806341364e-02,6.348487654100404276e-02,-2.762097247636249864e-02
2.262950528873443334e-02,5.063209332368012391e-03,-1.865868217926225023e-02
1.604326726585861632e-02,1.114247298721397425e-02,2.906543131615673889e-02
9.389116008392482671e-02,4.014486670440714500e-03,4.968033575773751070e-02
3.092938421230065349e-02,9.352055168246840855e-02,1.892883669438356550e-02
2.765302165336956663e-03,-2.837350787422477510e-02,7.706284046511685873e-03
-3.536591785393954079e-02,-2.488277376211460532e-03,2.750992448410326946e-02
9.529103235066198850e-04,1.014213690264300499e-02,2.937233799491530822e-02
1.743644398790974992e-02,5.575745498532339722e-02,-9.164541634121217348e-03
-3.516049863389404673e-02,2.964871549570866419e-02,-1.636787099314879895e-02
-2.409404073516292853e-03,-2.197441194623752161e-02,2.316354605980841183e-02
-1.598950765787670106e-02,-1.863815580666686525e-02,-7.396007560451137164e-02
-5.309710762507386522e-02,-3.149170519546857366e-02,6.988545254146870389e-02
-2.487601084023448664e-02,-4.827914310509529017e-02,7.258534091787719432e-03
2.515981720224446869e-02,2.505281210643800840e-02,2.252042909530672585e-02
-6.138764961117809671e-02,-4.071507898799871933e-02,-1.152354973520227088e-01
3.353369531351400173e-02,-2.684659707962782846e-02,-1.642348937202770670e-02
-3.562577580822795520e-02,-2.192063394473921581e-02,-2.813836086870378367e-02
1.856901717505723276e-02,-9.678046714076094306e-03,1.662736605724280878e-02
-5.803691244130572890e-04,8.188875404168205474e-02,-2.533439512365430121e-02
5.653080716823613572e-02,-2.450003637324851477e-02,3.820279186569452978e-02
-1.177264127832904246e-02,-7.201045501281305716e-02,-8.173338299160054412e-04
-3.498914316287388138e-02,-8.271582635589674881e-02,-8.559097110188762514e-02
2.080851142769595333e-02,-6.073081326364951349e-02,-5.122125206471073167e-02
6.691083556506125483e-03,-3.945345788490384892e-02,-1.186627468085422847e-02
3.215754071242036410e-02,2.419609877743170157e-02,1.082893857166727491e-03
-7.895338399010147501e-02,4.127110944333294007e-02,-1.112937325117013647e-02
2.784393490190247705e-02,-3.837490427055612052e-02,4.110142026153085215e-02
-3.289525137854870662e-02,-3.558737799663565238e-02,-6.408006194975447711e-02
-6.392524826654193137e-02,-5.271035254218338524e-03,-5.108345619424645850e-02
-2.709215949886176894e-02,-1.796294034489340566e-02,-2.157998425996055653e-02
-1.362551325564367866e-02,-1.114410047772649570e-01,-4.405463070189142433e-02
-8.334754958720741458e-02,-1.358616037027110708e-02,3.619876187787615662e-02
-6.581670786477442081e-02,9.073595090156733045e-03,1.259454559287213546e-02
-9.348054100308375927e-03,1.063048343225789921e-02,1.104644148767065619e-02
-1.171678911788235841e-03,3.589317778090129335e-02,-7.968169446394100797e-02
-7.801723695010366957e-03,9.727084085645711087e-02,2.332220021647739977e-02
4.573876974712825366e-02,1.181215879400670243e-01,3.490657585610870001e-02
-2.210020667344037276e-03,-1.473558540262789873e-02,-4.313814393088296478e-02
-1.641144876289119675e-02,1.162666759777176637e-02,-3.205572744714205169e-02
1.716640377079078211e-02,5.679968246938277981e-02,-2.345079295392560326e-02
-2.448138172176863442e-02,-5.199564787670390986e-03,4.118317692658179235e-02
4.032049961488697910e-03,1.053523109942354485e-02,3.986994933641341970e-02
3.400818004826407226e-02,5.311579762292485685e-02,-3.564146898012969522e-02
5.539842285388439647e-02,4.717287468198907291e-02,2.528957582687070202e-02
-2.413905082809779390e-02,1.938767438172088464e-02,2.945862968925371320e-02
-1.325566224244180587e-02,3.696342635734940069e-02,-3.273395721551057569e-02
7.384073398291397805e-02,4.831590721789766167e-03,-5.816679470817357617e-02
-3.554323159108949831e-02,1.097242726741889766e-02,1.526929694552782695e-04
-4.026347512142210844e-02,-4.375806298754474077e-02,-1.882739036255486748e-02
1.486442644282932532e-02,3.165658644722671965e-03,-7.209182770010580214e-03
4.385579130661165781e-02,9.690130537540891931e-03,-2.649152639657883015e-02
4.585568875375346798e-03,1.975609281987976765e-02,1.854039161977049863e-02
-3.173730221874840329e-02,1.085552190542638483e-02,-1.071563193293087607e-01
-1.153039040787841030e-01,-3.631618041400520164e-02,-4.680273346620343090e-03
1.844402869269723888e-03,6.753791854011115259e-02,5.240863738407473306e-03
4.549991114036717327e-02,-1.906498225971526433e-02,2.758484826310202837e-02
1.762292194652113897e-02,4.916718836855096114e-03,6.922972183508467603e-02
7.669041545395077764e-02,2.495227841008410344e-02,3.267808460719231339e-02
-3.249081834884894743e-02,4.388499766486023135e-02,-2.511414144067817406e-02
3.243438299199770392e-02,-3.447178875979531321e-02,-4.401995650435080315e-02
3.643628392839339935e-03,2.885916116672104792e-02,1.937139346361005030e-02
-7.628240664870905401e-03,3.906729045490819202e-02,3.785216710766643039e-02
-6.112669657907252724e-02,3.135884285291763718e-02,1.198705146648349276e-02
-2.955407706611024640e-03,-4.132953610024510394e-02,6.104352697758897925e-03
2.575240204780903167e-02,-5.748989343036046973e-02,1.434970636675959588e-01
1.131187712455288853e-03,-1.315530085587008485e-02,1.919948591474363031e-02
7.314981200570871978e-02,8.397246149927758974e-02,-4.301439457201478023e-02
1.345156947564838529e-02,4.782826864009673967e-02,2.143337687109627809e-03
-6.604479731329358783e-02,-1.655914224165503951e-03,2.796537850823924750e-03
-2.400273243607865814e-02,-3.829596546677645902e-02,2.947344301738491837e-02
-4.704120355347635868e-03,1.245076501597896027e-02,8.111002316698331938e-02
2.860000323543007705e-02,2.813917768421204252e-03,1.975540352388653956e-02
-6.250538345989307444e-03,-3.513098260035566606e-02,-1.843622549155462392e-02
-3.388638063612030987e-02,-7.078952297930871107e-02,-5.097488110030199554e-02
-4.693884067780266373e-02,-6.288139700791524345e-02,-3.526488887360196972e-02
-4.014577195244803387e-02,1.180467513606460678e-03,1.615308579764600933e-02
-3.224380273500717514e-03,4.983311623067949309e-02,2.209165047789894351e-03
-3.383549955163037224e-03,-2.899154413791711973e-02,-4.955677536760587712e-03
5.494412337382411238e-04,-3.286067424905120271e-02,-2.245488420101798832e-02
2.349668961131444467e-02,-6.457521662326645706e-02,-4.544053881264818219e-03
3.577760009788492901e-02,4.772964694691256282e-02,1.063813480022810648e-02
7.718323457104919738e-02,1.673115750239092744e-02,-2.569563392499181823e-02
-1.439244483138541093e-02,1.979861954299238364e-02,3.233428916839033163e-02
1.097848108011617932e-02,-4.024872730003878178e-03,-2.159584913939176926e-02
2.251986073643788555e-02,-1.610127135609141710e-02,6.497928218547162349e-02
2.306408443524181340e-02,-2.888800044673693612e-02,1.984099286173617374e-03
8.552493800962814030e-02,-2.016274363454985050e-02,-2.044071199225863406e-03
-2.448235764686391893e-03,1.728132276300627448e-02,6.385817972273197078e-03
-1.222270687708247464e-03,3.191357020727621924e-02,4.736892762188942008e-02
-7.618222840734721613e-02,1.779465575254185125e-02,-4.409585177513421217e-02
-8.145462519716353735e-04,-5.846115768483284986e-02,8.179886715187265067e-02
4.977871827843061148e-02,-2.592132409540399279e-02,-5.507805741531191651e-02
2.383858171166112691e-02,4.963808700468361201e-02,-7.684544724829468765e-02
4.390524784289883548e-02,-3.524000208421431812e-03,2.749487787918556141e-04
1.298143514891769712e-02,-1.018397090733930976e-01,1.112176263146095849e-02
-1.851811663853165230e-02,-3.161081177203735326e-02,-7.955302143977897866e-02
-3.282020378217252732e-02,3.039857409639725241e-02,4.357358258015182895e-02
-4.541561273635641438e-02,4.971661931444064375e-02,2.552694626320515039e-02
-1.019352950201656144e-01,-1.597533155168066182e-02,5.071537722228498888e-04
1.824486661402755297e-02,-4.003072799107264073e-04,-3.124808824017532086e-02
-1.682535872179947989e-02,-6.048450520308119166e-02,-5.147392017309692508e-02
1.955403405466524594e-02,5.125192702645135767e-02,-1.389455287909360272e-02
2.010402461747860803e-02,9.087388151091302727e-03,-6.268820766949291523e-02
4.625889703142010978e-02,2.255598986577171238e-03,2.140841257611294374e-03
2.533914332292839036e-02,-5.425998892325780559e-03,-2.741494020654994257e-02
-9.329840416990937968e-02,-6.029152951404189581e-02,5.097558952538414762e-02
5.513593201333259752e-02,-5.721230386369516308e-02,-4.039249651432069710e-02
-3.801021877169315222e-02,-4.122617766279481483e-02,4.359427068049694098e-02
-5.030073838808258452e-02,3.372404979231658634e-02,3.156605816273848342e-02
-7.300429943222036490e-04,2.542853946071930299e-02,-2.099493405261327814e-02
-2.596648554179621302e-02,5.345520351355263072e-02,-2.196220146333993650e-02
-4.170669963617844311e-02,-1.375238928052586670e-02,-3.462051566483394325e-03
5.987319291779992156e-03,3.333776859117873470e-02,-2.055397104330301469e-02
-4.066158509226538292e-02,1.282786879271943618e-02,2.824248570489185095e-02
-3.531030217717878034e-02,-1.460683879673899642e-02,-3.588632626449914098e-02
-6.537499939012353378e-02,1.543675744712143076e-02,-5.213914326074492456e-02
4.665734041916380788e-04,-5.694316792042491103e-03,-3.498478817999722823e-03
2.923109763200998010e-02,2.697961051625216017e-02,1.334650899770997434e-01
-4.907166252061381101e-02,3.335322337339040322e-02,2.976573474710414099e-02
-2.112778608849306267e-02,-4.179580739957386437e-02,-9.905449167089644402e-02
-3.717297855895618230e-02,-4.475371230306059156e-02,4.865601543500685383e-02
8.843215698926858853e-03,2.174194857625574503e-02,-7.760530407221190308e-02
-2.516887647036477813e-02,-6.472769816417553446e-02,1.456358053045481334e-02
-2.626085905372850873e-02,2.851105409892535844e-02,3.029083939142366080e-02
2.299931566868247939e-03,-1.548831331995395057e-02,5.813103530461563584e-03
4.813478416300271540e-02,-9.275110519830180242e-03,2.416246247852368162e-02
2.376582300143925686e-02,-1.501438992590650549e-02,-1.518467037439391425e-02
-2.026015559829354509e-02,-3.934487396248972230e-02,-3.030438834820461252e-02
-1.813835569215591081e-02,3.806446861964900286e-02,3.010210131825504301e-02
5.519019858828677627e-02,-7.730147617924582049e-02,2.901626490596297819e-02
-5.922368052226504274e-03,4.055101050022940842e-03,3.117453495625327475e-02
1.306787881857925972e-02,3.682308206290578478e-02,-4.644435528764152138e-02
5.170209643139050959e-03,-1.447883566551746298e-02,4.530247515244213014e-03
-3.628003214194103210e-02,-8.190399669138911931e-02,-1.972475585083391728e-02
-2.592288931429396343e-02,1.816725280764049794e-02,-4.388397149181606782e-02
-5.064233836106880882e-02,-5.691620009269073022e-02,-1.531422270130357657e-02
2.229658831913582454e-02,-5.282005746087042181e-02,7.510057790674422307e-02
-3.330417372747272037e-02,-1.180515602849211386e-02,9.406366820429492778e-03
-6.953944053498771483e-02,4.713393004131666286e-02,-4.134749343379759412e-02
1.126279744119248159e-02,4.675549963259166553e-02,4.338306873087118681e-02
-2.460156917750669012e-02,-9.142607946625443474e-03,-2.367672561712291616e-03
3.163233549947200296e-02,2.770675059168535223e-02,4.935734716334740785e-02
1.703541455818269670e-02,-3.010628170309253768e-02,6.194271560461421522e-02
4.925084058770962114e-02,-3.321779090171915038e-03,-1.947711684772019877e-02
5.146042345362547565e-02,3.387643475874621557e-02,4.778912008958371982e-02
2.155514170658169582e-02,-7.933257952118409270e-03,-3.100057408253518998e-02
1.088403627160773124e-03,-7.538124365672677074e-02,2.117532329599552954e-02
3.625600164540346976e-02,1.200176260966300847e-02,-1.053801355897490775e-03
-1.288202613245657130e-02,-3.792880281782258500e-02,-3.017537162581683530e-02
5.612575785520663996e-03,-4.288510702433284000e-02,1.270090623684243247e-02
-2.590170843331129208e-02,-2.902056041601595512e-02,-4.861120726891900862e-02
6.021001108699604656e-03,-6.943624396587173841e-02,-1.237296043304371602e-02
1.375213224915049388e-02,-1.130068430954768097e-02,1.866470628863533404e-02
-2.830734750059285543e-02,7.408499929141761087e-02,2.934648075725938311e-03
-8.481257820480205337e-03,-1.812057213412954573e-02,-1.381100365933543052e-02
3.869678072263012247e-02,6.700324766169399315e-03,5.281633597399074814e-02
2.723141572522945822e-03,2.372402385332649313e-02,7.177272867468569018e-02
-2.968400842339224965e-02,-1.600094100555844723e-02,6.722839732732864559e-02
3.972609410996822722e-03,7.630179922632404632e-02,-7.631860735383785843e-02
8.720521693869136282e-02,1.255229619197581990e-02,4.040821549301597260e-02
9.560983616211122388e-03,-7.107328323102748979e-02,3.901526098281498170e-03
3.992095679725168877e-02,8.015328004825932051e-02,-2.442520780711090176e-04
1.231358863470444036e-02,-1.723688010744073729e-03,-1.352588675406998439e-02
-9.039870623938245364e-02,2.843764006165968097e-02,-6.274980541437963355e-02
-8.057094363207577617e-03,-4.430287232321754309e-02,-4.120233506421597941e-02
6.271625099138476711e-02,3.773287536694283628e-02,7.156752893483743320e-03
1.482599809377154083e-02,1.098730630256675514e-02,4.456985184300977371e-03
2.033463477779548240e-03,-4.851749001070868039e-02,-1.269327160007063283e-02
5.964307767463095794e-02,-6.002972027228475850e-04,-1.539262777256162999e-02
7.813949336706919879e-03,-3.086603044768614079e-02,1.244393749677635656e-02
-3.946178077765897380e-02,-1.339351594938402099e-02,-1.183765271974493785e-02
3.654129250524244810e-02,-6.376687428123503643e-02,7.171750545059486434e-03
-3.516394888842275940e-02,9.546137508498397928e-02,7.342402363692785566e-03
4.376772802963127540e-03,-3.203306673852220759e-02,3.426700031990886214e-02
2.203437171375182899e-02,9.754328489991941076e-02,-3.693261283446599985e-02
7.916561841634355001e-03,-4.705174003236789471e-02,-6.898727739277536741e-02
-1.845311101788061139e-02,6.171592718844179370e-02,-4.905302088768585117e-02
2.862364043655270859e-03,-2.747500628662383898e-02,-4.150620568817166289e-02
6.826540533183653170e-02,-4.014842710978706875e-02,3.699018248850879237e-02
4.882325228366108522e-02,-3.960830504725208756e-02,2.361743867144249637e-02
6.581857631323205504e-02,-8.134648091119550672e-03,2.949681896372165213e-02
-2.356345912844020826e-02,8.443700972343888556e-02,-8.504495538172296420e-02
2.823130163489909542e-02,5.567978441681356583e-02,2.377857071565460390e-02
4.835857519399826276e-02,5.746415642280360697e-02,-2.581197511281090734e-02
1.186390166444470720e-02,3.439569315583776953e-03,-6.712625764727153839e-03
-1.024862283719644128e-02,-9.516144418410216882e-03,2.097403440782039108e-02
7.272881215341796268e-02,7.110657091463375157e-02,2.947026655078990864e-02
-4.210852952611766897e-02,-3.599865662030813512e-02,-1.610413912118102003e-02
4.708957910548702830e-02,-3.202335891589318945e-02,1.939956093363433623e-02
6.276940603504108096e-02,1.073159824194121065e-01,-6.964918568270174470e-03
5.154775759735566454e-02,8.323176913039084801e-02,-3.286667893202829815e-02
3.264632707584643606e-02,2.505803598441511126e-02,4.993311434596139908e-02
9.569342852326162552e-02,4.740529884229063157e-02,-3.221907171574651257e-02
-4.607657557669181912e-03,-3.275342368484368549e-02,-6.150351834527910400e-02
-8.770914168225549257e-03,-1.769984499620318522e-02,-2.295633970128445507e-03
-6.233342129299779266e-02,-7.976481858654889401e-02,-1.200563232280543388e-02
1.313138508240497583e-02,1.906960301161613955e-02,-1.882430926453738593e-02
2.273344177878014113e-02,-9.294733349030694439e-03,-1.434481664700376982e-02
3.356601323417104238e-02,-5.663954912974543746e-03,-1.589381290868424959e-02
-7.024403208232887774e-03,-5.142200046261861252e-02,9.555372266217081710e-04
7.926881952595350462e-04,1.082065369010370547e-03,3.934359462214141734e-02
1.424040474055252199e-02,-5.486408660328395692e-02,-7.949606864499929662e-03
1.995174272252118325e-02,-1.703490279191463216e-02,3.592087715547851584e-02
7.296032483348244280e-02,2.132179045948253554e-02,-3.147969417428531091e-02
5.196173086248589978e-02,-6.382436558464761600e-02,-2.770455493249986134e-02
-3.761612654925210533e-03,4.121851703205160755e-02,4.904816164207423390e-02
2.246176350262570759e-02,6.993618713581696567e-02,-2.548518828958948670e-02
8.483774790125657092e-03,-4.702457732909857274e-02,-8.290918162179577999e-02
7.628739525686327461e-02,9.255591192823655125e-03,3.537316322583722306e-02
1.782321375529458476e-02,1.583417758024807317e-02,5.872105534878206690e-03
-9.559584840217748292e-02,-5.940666291870578750e-03,1.406605790059128197e-02
6.089778156028494149e-02,-4.752133367543533854e-02,-5.231810969435976566e-02
-3.319525160810690712e-02,-5.506243924781570320e-02,4.154952759505060184e-02
-6.928234966214409651e-02,4.670832712589069458e-02,-6.313534606055003044e-03
-1.303309592200405966e-02,5.768788394258288210e-02,-4.055486522520977688e-02
-5.149352032535606423e-03,-1.239180197687341986e-02,-1.619043246457324559e-02
-1.631511554995591570e-02,-4.290620658034677293e-02,4.231121179540148214e-02
6.614124781759259109e-02,-4.313353268506715105e-02,-3.310994766491152930e-02
-1.138994008027949950e-01,-3.898929103197656953e-02,5.508893802749947888e-02
-2.559090977203099318e-02,-2.746546141887539795e-03,1.833005983241239867e-02
-3.356969502116274873e-02,-4.067328306192145859e-02,2.328559672155751728e-02
-3.842979726865997786e-02,6.971973617703561277e-02,2.752444091978896012e-03
8.155478049626237874e-03,7.204841678863595222e-02,-3.932767729032468629e-02
-8.079773920252932007e-02,3.527488180529857881e-02,-4.459731280637923428e-02
-1.821428724348016573e-02,-2.409428590106018828e-02,-1.042667311165200172e-01
-1.132038826505699959e-03,-5.671556213632089789e-03,-2.325072385789410476e-03
6.156220737717910639e-03,-2.195702420260039686e-02,-1.436268451118568289e-02
4.691556334266638179e-02,5.056419883213815469e-02,-9.796060932475120220e-02
-7.464352598357339857e-03,-4.622486607957459331e-02,-4.286997882392937914e-02
-1.860142142748058558e-02,-1.868804396592020980e-02,-5.544549940730791882e-02
2.304775927122902288e-02,3.613870464116592657e-02,-1.321571130620993392e-02
-2.765635934715765520e-02,-1.314416139437466803e-02,5.716214774992206538e-02
-5.590186609559114062e-02,-6.955567355715832831e-03,2.094240410158692070e-02
-3.791804677783737736e-03,4.114902215539462116e-02,-3.021273916531421171e-03
4.563104915736364980e-02,-2.030093682287711920e-02,-2.176275644393415448e-02
-6.553217347872010434e-02,-3.338325253890585265e-02,-1.072438841458642766e-01
-1.970623587561573520e-02,-4.281040905228906436e-03,-8.303007672933386540e-02
4.275578949453631532e-03,1.786890290208267840e-02,-7.259343699003505818e-03
1.862258552136349457e-02,-5.647135951172051194e-02,-1.393879231182363135e-02
-8.405838233389613737e-03,2.621273505977483181e-02,2.241149484291381569e-02
3.380049858628247916e-02,8.966047079014273849e-03,-7.779547690855179165e-02
1.896481299194627615e-02,-1.043172025881521602e-02,-9.233747701900694993e-02
5.079478563270541439e-03,1.366808930789765140e-02,-2.712638736188680358e-02
-7.292720728342226566e-02,-4.549477340586184637e-02,7.903048148055643457e-03
-4.220650554000086874e-02,-2.788705362757188180e-02,-5.097705636242446520e-02
-2.290226854153196503e-02,-5.578439867377583961e-02,-3.177398024122311815e-02
1.133733931378987439e-02,1.225196867949521033e-02,6.697382004591947470e-03
-4.367711067402832437e-02,-5.513526684533899547e-02,8.155910638365533594e-02
-4.808706276300644261e-02,7.831753451173723707e-03,-3.157949850686743443e-02
3.180957669577921809e-02,-1.083971007951336878e-02,2.485954478603400603e-02
-5.890552981179780767e-02,-1.034978638656079003e-01,4.534191189583201831e-02
-1.437193809124462981e-03,4.360289271910847836e-03,5.032680440853696396e-02
1.027867974199111155e-02,-1.415912005788760343e-02,-2.106381206021457758e-02
-8.807140891920964146e-04,3.722826195601885990e-02,-8.889673436185112354e-02
-2.062120958912340776e-02,-3.376648854778681753e-03,9.838417042091741893e-03
9.547699815895392683e-03,-9.029357921934644954e-03,-3.189076151059221792e-02
5.552861423076487640e-02,8.829346706894336538e-03,6.466960068582193466e-02
8.288214396689622468e-03,1.377715163216178262e-02,4.303304579038932931e-02
-3.761277480189106209e-02,-8.557073158881801922e-03,-2.123552580281927796e-02
-2.778369810535412029e-02,-2.922694030802632306e-02,5.226076904936737683e-02
7.157329246765985198e-02,9.135743653221509164e-02,1.295492236705655595e-02
-6.035547911297190100e-03,-2.491595232818751005e-02,-6.363170797182755856e-02
5.083027548969985127e-02,8.735863899800405674e-02,-2.485617334458852662e-02
-5.816979167864776146e-02,3.461416511474751370e-04,1.966839693596150393e-02
7.155426488683572228e-02,-1.377638053643720148e-03,5.391330789102588561e-02
-1.013904878535915391e-02,1.064759055809100805e-03,-1.057940388399538668e-02
7.737183101707945099e-02,2.606692699516171066e-02,1.426901970068817846e-02
1.699871608061795727e-02,2.548961346850062495e-02,4.008543885604978763e-02
2.518703508086075123e-03,-7.801134519898446362e-02,3.118039669320505844e-02
1.970994186634775214e-02,-6.431913737260151753e-02,1.446966452627871432e-03
-1.086403846196311133e-02,-1.128346087415994375e-01,-4.445429106497720412e-02
-3.448401575531292312e-02,4.332487028731182854e-02,-1.795550907211059324e-02
1.114461833671970790e-02,-7.776084101700954376e-02,6.507690536745637522e-03
-4.998545122802859619e-02,4.299069242009949388e-03,1.554197077587671054e-02
2.630686461723565073e-02,-8.971955238173429104e-03,2.028106886342761941e-04
5.405980153803633531e-02,-2.296050279546783465e-02,-7.974703965520013593e-02
-5.410034668428200140e-03,1.190042954882699483e-03,2.181821103230238180e-03
-2.423648748046615571e-03,5.807174338879143166e-02,4.107365582343944221e-02
-1.819360188004259110e-02,-2.328708379638701198e-02,8.804222399965670742e-02
-8.707525195962910469e-02,3.213869108041829403e-02,-4.138338129978900992e-03
7.465038356771573624e-02,-9.497884308334050840e-02,-2.506652130884949592e-02
-2.007699443737217214e-04,-3.550878901153647210e-02,1.491241194723053921e-02
2.678502872252169938e-03,-1.032746885561284106e-01,-6.735569658195944207e-03
-3.391698950969908311e-02,1.069138059477691208e-02,1.017763677814362451e-02
9.374848680936024442e-03,2.256701278714214401e-02,4.228103629787373710e-03
1.899132744457904601e-02,-4.990493705912601302e-02,7.945120893331125700e-02
-2.653321512731301318e-02,2.196207905529545118e-02,-3.096014151952998159e-02
2.509264608719722831e-02,4.639813749570740990e-03,-1.269348349017190153e-02
9.729121491807761479e-02,-6.960740625619557531e-02,-2.182990295004591866e-02
4.138867865713222530e-03,-4.259671600994022894e-02,-6.772777590963933829e-03
-3.813307494364628208e-02,-2.778249608390232980e-02,2.032630515438933055e-02
2.335689260527507721e-02,-4.889045510036123254e-02,5.784878604348105656e-04
5.020704152043965751e-02,-1.384308501634463028e-02,3.011120487036131332e-02
-4.611120065086518442e-03,2.081732029660039382e-03,-9.802608062103031206e-02
1.261341762011371388e-02,6.171792915997094744e-03,-6.893481699804447638e-02
-4.732969413322820479e-03,-8.885535859574406406e-03,-4.780203499959658647e-04
1.560906740777678187e-02,3.831937429976532694e-02,-7.862284906919043536e-04
5.025381421134510890e-02,2.166105062862767883e-02,4.558733496111695010e-02
-2.068229046980063143e-02,5.750177704003438250e-02,-2.243674464065897878e-02
2.913794595405449703e-02,3.137504804203411490e-02,2.715054486740403963e-02
2.160566451986426287e-02,4.152144678095127939e-02,1.338474141372071602e-02
-1.126137261387281409e-02,-3.452201444930913521e-02,5.194716822546988078e-02
-2.058060048550752752e-02,-4.646949008385741625e-02,-7.733053955293509377e-03
4.713821075181082870e-02,-3.791433716074658899e-02,-2.466727189988431393e-02
5.109918816263026541e-03,9.256981338286195127e-02,3.270758799505592285e-02
-6.355883065626492801e-02,-3.563774275279112808e-02,-2.237622740281660846e-02
6.244174668085725188e-02,4.505255813023368444e-02,7.389886505397719185e-02
2.055645809133166066e-02,-2.102428989853389468e-02,-4.014901776103822761e-02
-9.473294517433311634e-02,-1.045846158742577518e-02,7.449953461240509112e-02
9.711595070461985155e-03,3.629084856770435630e-02,-4.719535511481225132e-02
3.591907174243729600e-02,2.928406893155264396e-02,1.087400053708170028e-02
-8.010486261459760782e-02,-6.721946135805667404e-03,5.756238519332646658e-02
-4.746898225762735679e-02,1.669721265232473537e-02,-3.377640410192789960e-02
-1.967625085437881699e-02,5.130576814692728617e-03,5.561245146152328338e-03
-4.068237020985449037e-02,-2.084670806154273123e-02,-1.592472452875703937e-02
2.423501063249852705e-02,3.692744987113173033e-02,3.918801855679943796e-02
-1.718841909574417640e-02,-7.404819592976887022e-02,7.145528551122694305e-02
3.702513190176723312e-02,-5.788963300226777214e-02,5.140386057272142151e-02
-5.168318084425845699e-02,-3.750222460724806500e-02,1.254744894170641174e-02
6.247121729279891261e-02,2.664668966527180410e-02,5.397918274037452266e-03
-3.553835768970119158e-02,4.684181345004248542e-02,-1.496372328328602133e-02
-9.754446090915816492e-03,-3.465268413228719813e-02,-6.980089331777166589e-03
-2.478803184241213861e-02,4.937068929807598983e-02,1.166846955430191936e-02
6.943182384527879503e-02,2.550498690591923578e-02,1.332069324266348630e-02
9.359945580773365581e-02,-2.086438441747857572e-02,2.372745418548268675e-02
4.510403094530335277e-02,-4.390805873370016987e-02,5.058795400268026668e-03
5.285165272146789828e-02,5.288572043134438100e-02,-7.500363897781202153e-03
1.101036199421129014e-01,3.165931947292077719e-02,-3.240810081948727189e-02
-4.089500651152710303e-02,3.095457036787020028e-02,-2.332982911022953715e-02
-1.510942947683573809e-05,-8.330063717484915975e-02,-4.899659474352176247e-02
-8.565710540977216183e-04,2.731425517159292646e-02,-4.436247095992031098e-02
-1.481518890668697547e-02,-6.436031256515067911e-02,2.317862919955249179e-02
-6.197743592521260704e-03,2.564713688530418506e-02,-7.659850026013701775e-03
6.851791355515790549e-02,-1.877780904181890935e-03,-1.607813706856996497e-02
9.279111039127629912e-02,-9.724694446162143995e-04,-7.970599499791933620e-03
-4.901684848547827739e-02,-3.428200643151948362e-02,7.263807845107153605e-02
-3.323800767800730999e-02,-6.907229042995820245e-02,6.948542682924620240e-02
3.439798995851131580e-02,4.130803807681644041e-02,-7.042049449818706466e-03
1.245217784932135981e-02,-5.671299686954764212e-03,1.283422733588520694e-02
3.739899463932518792e-02,-1.647997873448605113e-02,6.470179033208560415e-02
-1.255492236631380598e-01,-1.840171351574426684e-02,-5.702821219288863042e-02
1.601087689616837589e-02,2.033235286792650642e-02,7.631868056200158401e-02
-7.502875768989797356e-02,5.988296046019704610e-02,-4.394506062287269199e-02
1.536574270685893764e-02,5.086095592277853350e-02,-4.201855485693280212e-02
6.898073567525725425e-02,-2.077476997017615318e-02,4.726974049543322784e-04
-2.603916573017821517e-03,-2.948924535169962936e-03,-4.793333145673914220e-02
6.242302561881429845e-02,-2.043321009265817653e-02,9.361310730014045511e-02
1.682554368680963530e-02,4.396099831441656509e-03,2.889737694504354061e-03
-4.779361836498441374e-02,-2.720292323833995926e-02,-7.428559659638788414e-03
-5.051366048353675420e-02,9.084281957575027558e-03,4.943255843217602558e-02
-5.818879974147904595e-03,-2.816958710463992113e-02,-6.601376106580164778e-03
3.758131520181174495e-02,-1.114109023944933772e-03,1.661046683814130370e-02
1.681351632792453879e-02,9.481064223077508707e-03,-1.640501719071412942e-02
6.463771634449234915e-02,-2.285618938236674662e-03,-6.796957920655692653e-02
5.021080145410183188e-02,-3.875512671517770957e-02,8.186765755809430334e-02
6.889135048375185158e-03,2.513126274872031635e-02,-3.521572071510885998e-02
-5.243614971621146648e-02,-1.342253406556866493e-02,3.139209074678174505e-02
4.699882870521154832e-02,-3.823650387079899349e-02,-6.681763318693433040e-02
8.375227315054824956e-03,1.015718980770109886e-01,-7.299734520671710691e-02
-3.033822463293359660e-03,-2.340594666131170370e-02,1.365620743799383224e-02
-2.625538192478656108e-02,5.233338956011932691e-02,1.502535952496630986e-03
-2.979111359388693717e-02,6.175444919981463304e-02,-5.886406161417483129e-02
6.296241298681184984e-02,-2.183846477695561977e-02,5.251437888033116952e-02
4.820649545701569810e-02,-2.657121283572253315e-02,4.574244845221872580e-02
-3.242672209687811474e-02,6.959399902332337115e-03,8.013481686295224893e-02
-6.165155965900244450e-02,2.281002059923043987e-02,2.586821421447193028e-02
2.252392196991795728e-02,1.107096296918963496e-02,-3.707059449027161335e-02
-1.703107516494967860e-02,6.812637440036214964e-02,3.545584324612776478e-02
2.921324581013337932e-02,-7.351523249989352915e-02,7.535718787816741981e-02
9.828845022584823884e-03,-3.886870491676806816e-02,-3.682057644364170046e-02
7.382046096998398643e-02,-5.086329341323321714e-03,5.534997768671810064e-03
-5.911320813846776545e-02,3.640557203077111892e-02,3.741852845720877729e-02
7.906251677652417764e-02,5.731883464124279924e-03,1.120218630459040784e-02
1.073617347329104167e-02,3.516172121049358085e-02,1.721393114969327343e-02
1.928261738739420195e-02,3.609428498890392134e-02,1.213024566948433559e-02
-5.124223834787933196e-02,-1.368453195474597997e-02,2.648658081343501294e-02
-4.361381537856497126e-02,3.709997115548241409e-02,4.484888916266278891e-02
3.774005403544827830e-02,-6.665166004824181478e-02,7.788103467440229966e-02
1.270029472318652194e-02,5.210475426478550220e-02,-6.507189379042090105e-02
-4.228305783518072208e-02,-2.435254620821119056e-02,7.363495461756303095e-02
-3.440328086538643748e-02,5.138156734326439212e-02,5.452675596779939238e-02
-9.174446408550415710e-02,-4.625475549422761179e-02,1.410496738999419616e-02
-7.275975100699175191e-02,5.520144307248910087e-02,8.170778317892982145e-02
4.795055287017781220e-02,-1.978108923361127092e-02,-8.069336080843655945e-02
5.404404840429419959e-02,-2.117365480238646985e-02,-4.022197738796694233e-02
-3.290217006961034668e-02,3.071509984286460368e-02,-6.922070747176405602e-03
-1.093109519441109664e-02,2.790012394302680485e-02,-3.012036259784565614e-02
4.060402031995315880e-02,4.017599194654999234e-02,-1.848659573522208610e-02
-8.836690804504146457e-02,2.879589721418188142e-02,1.085228985456663381e-02
-8.992249631978513347e-02,1.874448240179263760e-03,5.055867644514830395e-02
-3.081739739483445317e-02,-3.091886612761378730e-02,7.373625868380656589e-02
-3.432929130569633419e-02,-8.481969018794612361e-03,4.232655163360282691e-02
3.144304690218629322e-02,1.628093510488274470e-02,9.627996400698519974e-02
-1.873285452367327852e-02,9.458365612909304734e-03,-3.292594459468450863e-02
2.505190028656328546e-02,-5.366719767686523729e-02,5.101973079740203254e-02
2.360074200385818555e-02,-2.682463149079639207e-03,6.719851522439522495e-02
-1.747093204469576944e-02,-4.312537494089762474e-02,-1.836638340933460529e-03
-3.512356710337088267e-02,-7.798561463311196040e-02,5.209370485019605007e-02
1.874654615252428422e-02,-5.563977291813464870e-02,7.008155951047012611e-02
5.804643092235943491e-02,-7.436129755592474529e-03,1.188603479413217773e-03
1.667853341881861753e-02,-3.292242097521800876e-03,5.979586411624872311e-02
-6.573777476191966507e-02,-7.465714016895877957e-03,-3.809544271164359841e-02
-1.904624351282625805e-02,-2.847008719078667534e-03,3.560212981627489809e-02
-2.562788174342292558e-02,2.754166568404665602e-02,-4.065470317645395078e-03
-6.599474469586824599e-02,-2.766030136361896999e-02,8.290200793479234054e-02
-4.742708539977182058e-02,3.253198405248420438e-02,-6.730268912374177959e-02
-4.136072032295748380e-02,4.070949039873514308e-02,4.675641647895181774e-02
5.594823516195948643e-02,-6.399662432353829533e-02,-3.623083020065186958e-03
-3.522246746522972316e-02,3.938992466660003883e-02,-2.558667847444407589e-02
-2.826669858356209084e-02,-8.228360204488782345e-03,-7.519771514751677488e-02
-5.141880885456695527e-02,8.693427419870881218e-03,5.365727667890729524e-02
-4.355638077990644369e-02,-6.864783148370830201e-02,2.787778226654071684e-03
-8.125160275945688803e-04,-3.544355081123692214e-02,-3.042073287183209851e-02
7.384866949900145694e-02,2.124488834548377350e-02,-5.556178493882183572e-03
-2.760673378057650756e-02,-3.816832876182281453e-02,-5.356980254619909954e-02
3.507135954894716884e-02,3.322749411320680829e-02,4.198981803768754573e-02
-2.699079005187858538e-02,-4.606396038849070590e-02,2.000198079455437622e-02
1.699275476269442031e-02,4.122630245744790534e-02,5.693475436970094755e-02
5.740057249495598458e-03,4.795919693913886644e-02,-4.329837857454931285e-03
5.496547605145440940e-02,8.570134944116532217e-04,-1.393748832235889960e-02
-8.068043773559084586e-02,7.838213557258880138e-02,5.454771624704531779e-02
1.087860217812391429e-02,1.944809015572541988e-02,3.495009365253825412e-02
2.731131018240055830e-02,2.163489942344690165e-02,1.807746590430982583e-02
4.327550147860945856e-02,3.204083189717310542e-02,-8.661395351268515175e-02
-5.914518205759655006e-02,3.897079498093447905e-03,-1.618399247756415957e-02
-2.540167537448637537e-03,-7.291665490173972718e-03,-6.182738730892450851e-02
-4.250786016240982318e-02,-1.076574618609735072e-02,4.667992631595498099e-02
-1.090281980811343143e-02,5.039665450860763424e-02,4.805127726467497973e-02
8.134935663022088703e-02,5.237436527113154688e-02,9.232986109988002010e-02
-5.609201231107525942e-02,-7.234040255479206975e-03,-1.302002084529093381e-03
2.722479133769354492e-02,-6.353616660301354691e-02,7.875344451973494489e-03
-5.542684236787693425e-02,2.054468488505653903e-02,-1.726859212778023359e-02
-4.247180411254123517e-02,7.227896742446640599e-02,-7.708920428302891426e-02
9.590201228256350690e-04,3.184222330080038743e-02,2.399175662165440454e-02
-3.094760299652393395e-03,-3.375021285532966986e-02,3.826819626489006559e-02
1.682642423978140608e-04,2.784276149379845411e-02,-5.971208808034127874e-02
2.657433713030302527e-02,2.932444011031117015e-02,-1.727473960311512111e-02
-6.498750750418474942e-02,1.449683155327209649e-02,4.569966613359297686e-02
-6.706542130775695887e-02,-3.207153749812753640e-02,3.748376898365099463e-02
2.360762439884475303e-02,-1.894588537749082591e-02,-2.579963449713095283e-02
2.910043414021111843e-03,-3.770570600139434674e-03,2.995281909659938549e-04
-1.182898829345640059e-03,5.343093132695966169e-02,-2.482899674394453346e-02
2.057935663670852969e-02,1.757565332539810093e-02,2.477975766466826088e-02
4.168806834044272436e-02,-9.751060924806910502e-02,5.093364245158394504e-02
-2.807257262022866059e-02,2.100944375398104344e-02,6.197919875505115972e-02
-5.013238642472863521e-02,-2.031224869210126495e-03,1.068270416554714664e-02
1.390658732319981043e-02,-4.333171729261885846e-02,-4.463342844018319128e-02
-4.941226114759440791e-02,2.826322279512714572e-02,-5.498787802634311217e-03
-2.809723497783742432e-02,-2.525790606457993873e-02,-1.947300566125844887e-02
5.163998353743581848e-02,-2.072530390265641537e-02,1.783312249071643957e-03
8.505362904976222771e-02,-5.813782435317345343e-02,3.341438304703646389e-02
-4.465579712534893664e-02,1.379421702124543217e-03,1.088839844019672334e-02
9.771599326967937704e-03,9.870165914393581874e-03,-6.449204422153980223e-03
9.418809709138976916e-03,4.769087116544507704e-02,-4.706911009093341786e-03
-5.314364241978961761e-02,-5.494383798364722155e-02,-9.082888101374817294e-03
-2.514474855999519406e-02,7.522096640876520246e-02,1.078003164131126996e-03
1.298954670617577245e-01,-1.091002980860717765e-02,-1.423515987225992992e-02
-4.981034616467000520e-02,-6.947030207492685232e-03,3.563306162589051189e-03
-4.750675381511956785e-02,-1.855393660668473721e-02,8.269184617075621023e-04
3.073622060381425714e-02,9.168468656437872523e-04,2.449499607334824219e-02
-1.137152780860489418e-02,-3.916384601873815902e-02,-3.944210573136034542e-02
-3.475758729698467941e-02,3.427418973733719482e-02,2.787286954016375551e-02
1.080019515935778107e-01,2.195383736085085302e-02,-2.172233505156080310e-02
-2.977077851408980059e-03,-2.968766176330133073e-03,-4.347856994291995208e-02
-1.741019259822164768e-03,3.995069215783077221e-02,-6.577515019528477891e-02
-1.123830626629687690e-02,1.431069619644996342e-02,-8.738344709388273790e-02
-1.759598929913524720e-02,-2.451276980761198099e-02,-8.982988929954406794e-04
-3.873285826645943286e-02,-7.220358545619373625e-02,6.282008738558918226e-02
6.480061915608559264e-02,-3.138646048191056498e-02,-1.306278550182025933e-02
-8.865522060612376909e-03,2.538048397303218143e-02,3.915407385826488035e-02
-4.190838701456847670e-02,-3.278863432666651034e-02,-3.457875507364367024e-02
-2.461695295023190802e-02,-2.632704086635778446e-03,-5.167466377778910484e-03
1.789758075968021084e-02,-6.542993733033666826e-02,5.232125887375334988e-02
3.495239377540893325e-03,3.498144693153630580e-02,-1.202780102407205280e-02
8.978245198801773630e-02,-2.748812709306536553e-02,-4.306641943320146243e-02
8.628080791274951589e-02,1.245860191161959757e-01,-2.459607261063502526e-02
-3.538030632961204625e-02,-1.117864505040794005e-03,-1.204769113825627895e-02
-3.744673750898534770e-02,2.044439817789209246e-02,-6.302641585613444342e-02
-4.390020746821959169e-02,-1.146709729454623294e-01,-3.312265584170689947e-02
-4.386374901409761939e-02,-5.163469490766234987e-02,-6.189541343901979603e-02
-4.800574505526874342e-02,3.731212182341914381e-03,-3.735029456713943874e-02
4.942257169832537170e-03,-3.998425871983957852e-02,7.723381686737403572e-03
4.205828552754743016e-03,2.053502285327139451e-02,5.221680440824201172e-03
-7.699069761623906095e-04,-4.435166861058403159e-02,-2.336560545778283357e-02
1.782396314039942815e-03,-5.166731733848439062e-02,1.364933458806136344e-03
2.823303693413120857e-03,-2.622290189702223759e-02,4.977069304999903743e-02
-3.163274508763572190e-02,-3.563849377946649855e-02,-4.497431214029909419e-02
2.264591879521108547e-02,-4.501707763714829502e-02,8.956232496387720593e-03
6.992317132076369957e-02,-2.558757125739269389e-02,-1.853066543430351154e-02
4.522023066361765403e-02,-1.752562086001860017e-02,7.007308732371465843e-02
1.452786843107106186e-02,5.244072037045074269e-02,9.501433468180270694e-03
-4.273222684121034259e-02,-4.180298916815272658e-02,8.824819833870839458e-02
3.172736899939654354e-02,1.086668594498284811e-02,-2.716218416975505270e-02
7.023526758446502205e-02,5.357550464956920694e-02,3.027575349547266884e-02
-2.860108048769518033e-02,-9.940190717556607672e-03,-3.746932671072958354e-02
-7.385181675788757283e-02,-2.891990283212265284e-02,1.944897061147263240e-02
-3.050554972195229989e-02,-1.602865279461264392e-02,1.041158136784168797e-01
9.140510273126344065e-02,2.935084704299134595e-02,3.641377918216786441e-02
4.485680181878809458e-02,-2.838728856841440593e-02,-4.073747626225281138e-02
-1.166175231721061634e-01,-1.107917765620172225e-02,-7.658805817848907127e-02
6.684842861637087241e-02,-2.289443058554547009e-02,-1.678597786302753886e-02
9.777618360602776879e-03,1.320162223462326839e-02,-8.654723816272358317e-03
4.754365944614683676e-02,3.295419556776477132e-02,-1.627596203548328097e-02
4.356076870101890236e-03,-2.392404974902229489e-02,-3.772160253804058422e-02
-4.415107056420267129e-02,1.820130560736877776e-02,-2.870327898423641333e-02
2.201714862112254430e-03,-7.269369191204630605e-03,-5.021641954163227201e-02
-7.992311568830068325e-03,-5.085367498386482443e-02,2.606644246027640249e-02
2.989655542792406598e-02,7.408772982505271165e-02,-1.331233330828803310e-02
-3.881192337085813404e-02,7.257382384774366604e-03,1.289450609009704790e-02
7.262124684891310689e-02,-7.697626588982470382e-03,4.717024934095812722e-02
1.739832249567045339e-02,-5.638912986927429455e-02,3.152242654302998826e-02
1.556639269762406710e-03,-7.500747361426031434e-02,5.573007160054477271e-02
-4.718544284071761463e-02,-4.768808291404749711e-02,1.206496039990220537e-01
-5.291272785225343417e-02,4.264055439558864929e-02,3.638234737779069694e-02
-2.729754275993149029e-02,-1.594471826456247965e-02,-5.270244367056710344e-02
1.051286404530790836e-01,5.257761466550110729e-02,-3.305075367056353741e-02
-4.732562641284035476e-02,1.198609166730716519e-02,4.187077217541979729e-02
-2.652294568468695213e-02,-3.559571740030269271e-02,-1.490006570412185163e-02
2.303603141014669634e-02,2.729566891611800647e-02,-1.386926739616780972e-02
1.836731135045437113e-02,1.409578905055780020e-02,-5.557514860851187066e-02
-2.718193897743666904e-02,-3.219609615594018915e-03,1.259176811223841792e-02
3.643797512114835963e-02,1.872087821713871308e-02,7.704980447387164977e-02
-3.275786213021208287e-02,-2.614765580092673347e-02,3.704311489620874115e-02
1.764672208680439017e-02,-6.602350029721557045e-02,-3.949980673742639614e-02
-5.508540589350794520e-02,-5.999079402524644389e-02,3.902386433982815012e-02
2.401837010055963423e-02,2.882577395667076589e-02,-5.857743777464897300e-02
-8.503206533913336418e-02,4.548633228866829498e-02,-1.115402289571377006e-02
4.083336425792608720e-02,3.556095428237947276e-03,3.055037040993690764e-02
-3.927703061065227624e-02,1.640856275904358993e-02,2.104946645885424038e-03
4.970790353579022935e-02,-1.031393721698970478e-01,3.452589535057524334e-02
-9.512421669085567577e-02,1.147641418867037435e-03,7.214859178781311486e-03
1.915249765464223028e-02,-1.473833820996156563e-02,-4.403885882462809515e-02
-7.608313043502406767e-03,4.275389804065822530e-02,5.578111428602521016e-02
-6.499633218590991635e-02,-4.837167848909197654e-02,-1.493885202418337131e-02
-1.540643454405667134e-01,1.063151435007184953e-01,-5.237248636063623203e-02
-1.918083486936977139e-02,-3.589594866070819346e-02,9.035408027722459726e-03
-4.371912846187930163e-02,2.083697216879997968e-02,3.837377954958134940e-02
-3.543265269677766532e-02,-1.018205176019099621e-02,3.337859139035193740e-02
-2.405888869538743541e-04,-2.543517562606466276e-02,8.086708461010884419e-02
7.254037441961960590e-03,4.736707292762070559e-02,3.129868681599821262e-02
-4.005194713132137485e-02,-7.525052736580771506e-02,6.640821404175269171e-02
-1.582380320675305305e-02,-4.359684430187129450e-02,-3.702413138863076825e-02
-5.568548597511745191e-02,4.571176818729209140e-02,1.067899865148864147e-01
-4.111534060189447198e-02,-5.556312693838343086e-02,-9.294146700779683939e-03
-8.902249785485003009e-02,6.869729978966511788e-03,-1.268746656569734108e-02
1.737453528289211249e-02,-6.679236257260216802e-02,-5.048442447526881038e-02
-6.819387227552813069e-02,9.603670229455702617e-03,8.564476866915167463e-02
1.788790971702261881e-02,2.848724825286646362e-02,-4.503394297233340865e-02
4.294558214403276092e-02,-7.318230084145583084e-03,5.343726446668490421e-03
1.816094094701364891e-03,-3.434025362875166298e-02,-1.686538242739818103e-02
-4.116457408314610350e-02,-9.122131327611536500e-02,-2.246541745655136757e-02
-2.234261512185920298e-02,1.155555782558772941e-02,4.745630504292747825e-02
-1.438795163997966427e-02,-5.024495686569331598e-02,2.890486179100233352e-02
-2.289933734280023489e-02,2.331473955471057707e-02,-1.563244983014925454e-02
-2.895596868398064849e-02,-2.008887990791263442e-02,-4.368403304059957637e-02
-1.131084915211249403e-02,-5.034259719799167448e-02,-6.145791707317735907e-03
-2.892981097833486129e-02,2.023957693132707666e-02,6.034807408399050360e-02
-2.342230640218987900e-02,-2.329374046359079103e-02,-3.082478949189764155e-03
-8.685043948662447832e-02,9.497027000710986074e-04,3.928590355071808621e-02
1.068907224190213806e-02,3.470216916753880027e-02,1.335674112791484722e-02
-3.188785124467527488e-02,-1.512237116929618375e-02,1.846618433652804162e-02
-1.001337608640357098e-02,-4.946750107976651684e-02,-6.714459370732014931e-02
-3.539285923914471665e-02,-7.166583320427685061e-03,-2.945999792133637343e-02
-5.037439383637980911e-02,2.825530503362814680e-02,-2.848452858394172598e-03
9.672441814507287683e-02,7.714575368878472464e-03,-1.270521923110629926e-02
-1.997713187020022998e-02,4.543818543614758926e-02,4.140365846386722531e-02
-2.719714259841160206e-02,6.395900577517391050e-03,4.136435028643175443e-03
-1.759071239578151660e-02,3.325644394741240212e-02,4.050360616977491390e-02
1.588075110181517632e-02,-4.313970717372758029e-02,5.246145564396377525e-02
-4.534393373780721929e-03,9.254178026966738968e-02,4.036682991884386201e-02
-1.338233414534289664e-02,-1.563720895237618105e-02,3.951842419648784327e-02
2.637561924254776605e-02,-4.778711275372013109e-03,-5.018923382115684367e-04
-1.618605157479408377e-02,5.770592751177774926e-02,-5.011679145681342644e-03
1.132974914785908893e-01,3.748405297096237682e-02,-5.383952820025598301e-02
-2.374314240437431361e-02,-5.173789321751845471e-02,-2.696817246845594970e-02
-5.734280222284846365e-03,-4.950148503635452488e-03,-1.098297868319627474e-02
3.542087983144328461e-02,-2.413492594638280003e-02,-3.150538412226187249e-03
-8.687226778428643048e-02,5.013336497143215664e-03,4.306917093456574808e-02
2.073623428641580002e-02,-1.617780502575164384e-02,-1.553497035288746268e-02
-2.900741732219998606e-02,-5.095405373811769112e-02,9.689079863062344256e-02
-4.705934680219964195e-02,2.500819638354191340e-02,4.095338359689919272e-02
1.360072532983044175e-02,-4.735027361043626232e-02,-1.534254852779970771e-02
7.598214191140777174e-02,-1.541547629380981242e-02,-1.966288365255490847e-02
5.009656394822451994e-03,3.119923238582068478e-02,-6.480276911044351162e-03
1.963503423980784285e-02,-5.483557014307735566e-02,1.578514008548400141e-02
4.722150712540443968e-02,1.609763866861315534e-02,-1.632203435763269204e-04
1.048545474221914721e-02,-5.367908498545519158e-02,-1.813869592914527096e-02
-1.183155529997498637e-02,1.928952481849172465e-02,-8.483108027249129657e-02
-4.859076168848813077e-02,2.929672587409293608e-02,-3.051595954217356521e-02
-4.542628270585177819e-02,-3.988015306474537031e-02,8.806025375811535327e-02
-4.269993211889417523e-02,-4.483077821940621710e-02,1.155433844958621802e-02
2.615210679894315951e-02,2.712458085073708031e-02,-1.208111504955088934e-02
-4.065800777092987150e-02,2.539142932483611989e-02,4.052115214228900475e-02
5.005619041053921414e-02,-6.872261263553982626e-03,1.020820472492783328e-02
6.674729749696059478e-02,-7.355581553662539351e-03,-2.154840135017961969e-02
2.828845878985135343e-02,-2.055210953010930611e-02,-5.362680996950341603e-03
6.801841893725141946e-03,-1.864989436835689726e-02,2.353523473960692988e-02
-7.835327975016712077e-02,-2.645013395445658388e-02,2.516096931912600171e-02
-1.457200303406426707e-02,-3.631979010847566358e-02,-2.329340379364746097e-02
2.031912205704552651e-02,2.825928238638170109e-02,-5.145851484706334689e-02
1.980226946712653618e-02,1.386708150466031946e-03,-3.890095085472410757e-02
1.570208074175481749e-02,2.066333842316016647e-02,5.396498352855046143e-02
2.891884840605835408e-02,7.184371680115604619e-02,5.829775400023438914e-02
-8.274432192553544257e-03,-5.288573899109789284e-02,-2.467209401874552108e-02
5.582430304518481295e-02,6.203800907054322217e-02,2.505760315827262018e-03
3.559483797358876239e-02,8.766590845235101848e-02,-8.040222010828508570e-02
-2.707374058140778889e-02,5.007910427061519794e-03,2.590104188458889137e-02
-1.922440232719176481e-02,-3.499213855626137626e-02,-4.222378356095650431e-02
5.003173768488296952e-02,-3.683334107659846229e-02,8.733860456150717433e-03
-9.279252609408375485e-02,-2.210529680398305372e-02,-2.125409057500422805e-02
-3.241056506894116063e-02,-5.224808652916742430e-02,3.755313615440639824e-02
1.089691838050537397e-02,-4.940796276052427348e-03,7.920805164102831530e-04
-4.161483831122236160e-02,-2.650163151055507857e-02,-4.843604819620223739e-03
-2.164248961679071312e-02,-7.419492822524019482e-02,-8.321917912379155069e-02
-1.778262115147205211e-02,2.267952548641603491e-02,-2.446593604784358736e-02
-1.154955696045448232e-02,3.052484854348415638e-03,1.065501700569400183e-02
-3.325284602251903088e-02,1.802777923668776039e-02,1.578977809728326215e-02
-2.539606830532602569e-02,2.391427439874053984e-02,7.150952139930627505e-02
5.745264979597589777e-02,-4.664863051740242988e-02,2.424723059347822646e-02
-1.766285779108335910e-02,-1.344048003382001914e-02,-3.031526801805527888e-02
-8.585797353762260331e-02,-4.232267015227789142e-02,1.405155184766251550e-02
-1.626228865845827029e-02,1.500439809101892022e-02,6.671884697441038403e-02
-3.368310594599238650e-02,4.820652273633729314e-03,7.836428790351777918e-02
-2.521065345488204129e-02,4.428151300895121628e-02,-1.251772601306662229e-02
-2.219960941447541788e-02,-4.602347534674032514e-02,-7.013896992116155915e-02
4.823268066028456487e-03,-2.216921904545430394e-02,5.478602676561573903e-02
-8.451627592513765233e-03,1.883147082263439409e-02,5.867380491870001491e-02
9.271202241244632866e-03,-2.086853729736620061e-02,5.193399470911343879e-02
-8.368484557694365333e-02,1.354442214516832221e-01,4.426467395823956846e-02
1.893779174546837349e-02,-3.894510321961627136e-02,2.228237290686445934e-03
5.085356502435230824e-02,-1.325613434407777423e-02,-2.084231449273011780e-02
8.354392804972184811e-03,-2.675707992265380711e-02,-3.123040900743435239e-02
-1.201386158878658267e-02,2.534900885128525683e-02,4.101976856492155210e-02
4.054882969344029975e-02,-8.099079873697630216e-02,-2.700676512218068773e-02
1.328718369818100015e-02,-1.984111199062237388e-02,-1.611109739490154333e-02
2.004194477969096014e-02,1.683641252129510976e-02,-3.962702770522471413e-02
1.141549582708544820e-02,1.139369649991465484e-02,-6.941318569289431362e-02
1.237898486600021442e-01,-2.477088306183612351e-02,8.282255124431883719e-02
-4.850290787693890826e-02,-6.759895534704395137e-02,1.305675014298167402e-02
6.295946127908307044e-02,5.663591808120644472e-02,8.164816137960299869e-02
1.347190794525526597e-03,1.183175060258404541e-02,1.379089485275919805e-02
-4.358324231272617949e-02,3.541758772795865380e-03,7.693557986627900212e-03
2.984535983070520787e-02,-1.854388069878392525e-02,7.909450352192200218e-02
3.630277696349670097e-02,6.123851216856946583e-02,5.048927799740442202e-02
4.529802993462469368e-02,3.682759496865116444e-02,-1.530484854486791058e-02
1.451510080915029144e-02,3.771814045856032582e-02,-3.722724875616269941e-02
-8.022895296632209794e-02,-1.725719376840100308e-02,-3.708523688035456761e-02
6.911129069375496203e-02,-1.693494491817154959e-02,-4.525238440180272964e-02
4.419677720787378028e-03,-1.445338333723474727e-02,4.140928171737922811e-03
1.678702266311784055e-02,5.080105606961702464e-02,-7.776667031415152725e-03
1.005737128531399432e-01,-6.639317654019463721e-02,2.559569102133504165e-02
1.615639966943844749e-02,1.742410916283346212e-02,-7.820277749592739053e-03
4.360264975701695633e-02,-2.572360590943482961e-02,-3.646023219471118335e-03
-4.734679535060746375e-02,-4.168127686196122263e-03,-3.374494380782159381e-02
-8.494868942177551119e-02,1.301714072736601460e-02,-4.137599957159328323e-02
-5.194863349699197635e-02,1.684130954632099067e-02,4.828421271995599756e-02
-7.301313268519497683e-04,-1.465193737514033576e-02,3.110473040905472816e-02
-8.955826158154435446e-02,6.337891185337818367e-02,3.588275933158419084e-02
-1.556624371251371340e-02,-2.718011607137332374e-03,-6.368820959221284730e-03
8.304764832456799917e-02,3.550320574963145015e-02,7.185253757345747005e-02
-4.830774783322620662e-03,3.729547948522225070e-02,-2.210315325901019909e-02
8.001523095238893130e-03,-2.046071287548486758e-02,1.231091185390808043e-02
-7.453923101846486859e-04,6.733857600731333812e-03,4.265245685034569495e-02
5.973164512756621441e-03,2.361811090328877830e-02,1.439891704582851005e-02
-7.895598762358476894e-03,-5.384293738364658022e-02,-4.806266862622827346e-02
3.046959197698697816e-02,-2.380201489029782139e-02,4.696496446948991016e-02
-1.717123572783300911e-02,5.055350600981104586e-02,-4.238761716840348803e-02
-3.897833164969735642e-03,1.427736749944241018e-02,7.546343397612827186e-02
-1.476790264257871188e-02,-1.003681432112005778e-01,-9.405331879816182516e-02
-1.762890760630575829e-02,3.018706751181897407e-02,6.130113263165044846e-02
-7.626393736444456173e-03,-2.251173720896372521e-02,-8.553718802569956758e-02
1.095745411666421186e-03,1.707756126044845252e-02,-2.870328860258816034e-02
1.213580103674583542e-02,-4.525120482024937857e-02,-7.845695147350581489e-02
4.073935385032414341e-02,5.431509501381919652e-02,-2.405165326578336329e-02
7.094598766740582707e-02,7.032378702903872847e-02,2.081670138292104899e-02
-6.627236022831529960e-02,-3.485449603347130776e-02,-3.245996243077661075e-02
-2.119869929644912013e-02,-7.607671242905020281e-02,6.065205404966345776e-02
-1.233953848561023144e-02,-3.734434432739477949e-02,-1.383517275658175186e-02
-4.610046132976354342e-03,4.013093497531011744e-02,1.603623971719462041e-02
8.193993277616025417e-02,9.779740749898206340e-03,-2.489763865621037395e-03
-1.828564809443063502e-02,-5.456926287893924810e-02,-3.563482398824621700e-02
-1.684411715761311226e-02,-4.444196012713077376e-02,4.547794369536208026e-02
5.082494348463954120e-02,-4.885310139289368581e-02,7.794872051819649872e-02
5.095203056097349914e-02,-1.822700407132942652e-02,5.331570232836060907e-02
4.747993516115074641e-02,-2.242910769636064991e-02,-3.418066078311618461e-02
7.155533291971382347e-03,-3.804751742899620953e-02,-7.042257306295797437e-02
2.988913820982220040e-02,1.232288084691731712e-02,-3.159518445099754325e-02
9.831198673592818002e-03,-9.425613400888363524e-02,3.233626643095356343e-03
3.089542647106516965e-02,-4.445879431104920315e-02,-1.745292659669140517e-02
-3.119524427363752715e-03,3.542485188926551565e-02,1.759104362788923084e-02
-1.199648465230772690e-02,-1.165141797384214653e-02,7.096307780485144878e-02
-3.073492000465538609e-02,1.953074910618795082e-02,2.148850331360411051e-02
7.790769820032378279e-02,4.617595436954638477e-02,1.550278044556355379e-02
-7.271193367760095394e-02,4.720741590736515780e-02,-4.375652470654063653e-02
5.615267785096560854e-03,-7.420487041000438377e-02,-1.410470189880420715e-02
5.444132786903593813e-02,-9.039796699435247163e-02,-4.185761114182864201e-03
1.474725273670588963e-02,-2.464510213934446858e-02,9.177471240344843573e-02
-2.132781112526775311e-02,-2.871060743966696166e-02,1.341162412604591236e-01
4.324965318673826969e-03,-4.541679826891963090e-02,-1.344563121057950998e-02
-3.920589270981465063e-02,-6.949224258366222540e-02,-7.970287720537935772e-02
3.198685889465981147e-02,-4.988548376704229209e-03,2.931734541811015574e-02
4.744642506114417346e-02,4.264302036194025231e-02,-6.243874644480580834e-03
3.234765635405990880e-02,-1.425772552863274756e-02,3.927557359956870831e-02
-2.328000877087489998e-02,4.765566459267431276e-02,-3.551689773563517644e-02
4.245899148555807440e-02,-1.687719575357798582e-02,-8.294613074584318568e-02
-9.265435702830129849e-02,-1.445075857162025912e-02,1.350698928000034025e-03
-3.397985313289621223e-02,8.482642830914073617e-02,-7.048708554628074774e-02
-1.654111154819242055e-03,5.708206398273758114e-02,5.278838621208754855e-02
-3.710548040226042954e-02,-3.299114131654783816e-02,1.924323564016936286e-02
2.123761086940282802e-02,-3.679966952000221503e-02,2.837914208609606734e-02
6.745608332586784661e-02,-1.379882674737647856e-02,-7.135507661119398770e-02
-9.527643123396954683e-02,4.106846761918163391e-02,4.570375910323084059e-03
5.354885741822815182e-02,-5.934123112684073359e-02,-8.484013810615143036e-03
4.602673625234428301e-02,1.498173320222579569e-02,-4.045567512155601869e-02
1.087875263043938112e-01,-1.751427846696329213e-02,2.976555991739029614e-02
-8.396557648753860334e-03,-1.361124483820960913e-02,-7.407990148976641501e-03
-1.907897255161724454e-02,5.724178464542449551e-02,2.574733647076640763e-02
-7.766010231921090246e-02,-9.436146643191939409e-02,-1.920015101756824757e-02
-5.306394702616347436e-02,1.344002680781417221e-02,-1.511873032541272664e-02
1.956624142720304188e-02,-3.565951365256166822e-02,-2.899374579122737661e-02
2.734971500543932968e-02,-7.677134932445151862e-03,1.221957431819224726e-02
-7.942407233356069129e-03,-2.161813650696213507e-02,3.284718670802416057e-02
-1.113957238108311768e-03,-6.338866544483622023e-02,4.702958482290452852e-02
3.108593381557678455e-03,-4.877448137986842291e-02,5.789641391226015704e-02
-6.762933349707007935e-02,-3.702872696676164782e-02,-5.957778665247649014e-02
-3.228218698184300017e-02,2.337018702695603870e-02,-4.265695405543149660e-02
9.389753917553221585e-03,-2.781175746659953797e-03,-2.992181208639555293e-03
-5.871568785733799825e-03,-1.295773695094471628e-02,-5.333456800096823130e-02
3.708666574452203213e-02,7.392642196366744356e-02,-1.439690170845243575e-02
-4.575529974571058978e-02,-4.628088587920132363e-02,3.296140289712805316e-02
1.098577862264957794e-01,2.787437810140840772e-02,7.795859523065633290e-02
1.886776862038800143e-02,5.102757637420838460e-02,7.798876985122341066e-02
-5.515151953968219778e-03,-1.830799645956729393e-02,-9.159232427898712781e-03
1.353150057670161541e-02,5.927433812104277236e-03,1.034832641894930551e-02
-3.137531171885608872e-02,5.548053606900694296e-02,-2.571930893274256003e-02
-7.272394560201818348e-02,-5.030114305509752332e-02,-4.374842194331345080e-02
-3.260904553061971800e-02,1.345048386412147669e-02,-2.911050625307050679e-02
-1.634224578990481694e-02,-8.411632301544730295e-02,3.335547592763354191e-02
-2.720550147828618495e-02,-8.157733877307907222e-02,1.139943130602617642e-02
-2.160337721349786348e-03,-8.356779338616397712e-02,3.085790709103989130e-02
2.551349267605422869e-02,5.368581787349935991e-02,2.207831690074333816e-02
-4.769819285186427220e-03,-8.732027370320969914e-03,-3.476145737443667172e-02
2.679056413630260397e-02,7.807630937281027916e-02,4.573345621883560114e-02
-4.884597813416564210e-02,2.999799955572746493e-02,6.284757253216183281e-02
-1.759344436425798811e-02,3.607293767821118796e-02,4.793598131998975942e-02
-1.666778988359751690e-02,-1.563683688270779302e-03,5.105095783126348090e-03
-7.229539934203293820e-03,-1.071028004246695441e-02,9.626416900683875191e-03
-1.141560137252623647e-02,3.389056405658481819e-02,1.652071407665101771e-02
-7.624640555880794757e-02,-3.783259975616386911e-02,-2.847964624573127296e-02
3.305877007570154173e-03,-3.731176832425955880e-02,-5.375018171617591128e-02
1.967167378156895949e-02,-5.135980711771874485e-02,2.023124156315510638e-02
2.021105573454546125e-02,7.059444718746048231e-02,-2.996584642118410233e-02
1.009253737539319261e-02,1.013566262834068518e-02,-3.978791126103806836e-02
-2.375921705453323818e-02,-1.254790370789622515e-03,5.858332543718835356e-02
1.565210997373644997e-02,7.372342807895354566e-02,2.799209134753419953e-02
4.566773552703503290e-03,-2.214652591535272441e-02,1.567099854534796319e-02
-2.297927544008435824e-02,-3.323290892221316588e-04,1.608463003958802637e-02
-6.900942406984670978e-03,-5.915844703160532542e-02,1.020824293289198346e-02
-4.073589171878756743e-02,-3.104991947943179856e-02,-1.947969193873992644e-02
-7.533186607672538726e-02,-7.331865146759306007e-02,-5.158516599349956266e-02
-5.968215746624020573e-02,1.986865408490630716e-02,-1.076133541154109148e-02
-4.208236380877396210e-02,-7.287703814609060304e-02,2.778856628218852667e-02
-3.333584042064768188e-02,3.668783150706165369e-02,-2.321827811028426627e-02
-4.270139996479413794e-03,2.969047340538679899e-02,1.606464598684891748e-02
-1.888300155328487273e-02,9.482030666393102147e-06,-1.643226834779371037e-02
-1.533458710692803782e-02,-6.088072107249220544e-02,1.840495860635859779e-02
5.718785328767243825e-02,-1.970491695311022556e-02,6.910449462881097099e-03
-1.527805726223709949e-02,3.991301347586512921e-02,-2.315626453190660489e-02
3.258472152153575434e-03,6.218078626911164447e-02,6.860165377094623596e-02
-1.179084307055885614e-02,-3.713910547123398104e-02,1.393558230549427589e-02
-2.042932451688179388e-03,-9.579577490278730345e-02,6.026169056726401844e-03
4.931223711872756432e-02,-1.903255162369070844e-02,-2.253790263911998812e-02
-2.525823905757014140e-02,6.826157933440803400e-04,6.407542850869855054e-03
2.242073558189201093e-02,-2.603904842682912626e-02,-4.922722536357742457e-02
5.742283742481278652e-02,4.101498270977131655e-03,-6.098713261459998147e-02
-1.357653758589562852e-02,-3.888238363700437933e-02,4.879472928882166299e-02
2.563866217622463514e-02,4.048786637259260690e-02,-7.883766038287979075e-03
-1.646088448465927567e-03,4.181281555900009939e-02,-7.301614496538548493e-02
-2.050488542898327299e-02,9.533307057464156242e-03,-1.247374369944450057e-01
-6.700889187275567427e-02,-1.159531597178200223e-02,-2.126714745312029142e-02
1.877057086534648922e-02,-1.623442757946458315e-02,-1.569336924197594144e-02
3.477719559486860262e-02,-5.587427521199864362e-03,5.025058385602658440e-02
-5.058072270353224445e-03,5.219681506787315212e-02,-4.901011540777825554e-02
6.138138999009776393e-03,1.517745241412465744e-02,-2.037032959639426682e-02
1.000994100379368618e-01,-2.918523285997341038e-02,-2.167066045795700696e-02
3.485664916019450693e-02,-4.767849386424244384e-02,-1.184801226759575089e-02
1.529203294781338388e-02,-3.856685516733417834e-02,-6.838106089341393053e-04
-8.097064408532224714e-03,4.538207723174450710e-03,1.764900612056987533e-02
5.410160125254800251e-03,-3.254524023559644125e-02,2.198285469426822236e-02
1.058304265855057255e-02,-4.453450634941300695e-02,1.843949032308475448e-03
1.423965297341103255e-02,-7.097252742338548692e-02,-1.850130506211645001e-02
-1.982324131901657717e-03,-2.531280241608578618e-02,-6.182056830280480142e-02
8.970548739573964633e-03,2.814464479817541803e-02,7.656353156597116294e-02
-3.984622334368342206e-02,3.951855303969979694e-02,3.189917580363187816e-02
-1.903654133242321453e-02,3.821201129014265008e-02,-6.726684129683556564e-03
1.251426350682967592e-01,3.086039122995386502e-03,2.118321336859776624e-02
-1.132435734156163158e-02,3.279844741008181713e-02,6.941941427144319131e-03
2.833889103156389880e-02,1.979359793930722186e-02,-3.428834273320957582e-02
1.728228630297180823e-02,-9.668989749267346834e-02,7.413386745602837391e-02
5.748976409434056363e-03,-1.672155246771578341e-02,2.705635517401423773e-02
2.577997834466616914e-02,-1.857472835770103067e-02,-4.201827699219216894e-02
-5.738692972919481189e-02,-2.323801235282050084e-02,-8.775267593576302483e-03
2.004557449004549033e-02,3.740524698764487871e-02,6.852728825207655972e-02
-2.152253041493656233e-02,1.493164173486361684e-02,6.204921962952705122e-02
4.466062999486489909e-02,-2.363308963414217576e-02,2.340149244136655038e-02
-3.476874976861313998e-02,1.052745921073434607e-02,-4.520359111398421226e-02
4.097949226956926205e-02,-3.916161876331530900e-02,-5.962344529771040208e-02
3.021851280385225505e-02,1.583637016963548166e-02,2.099423944330385677e-02
4.255340993999668503e-02,3.017017627988449052e-02,9.117987224938044200e-02
3.459893691550663865e-03,4.240189902156720099e-03,1.558858684984494418e-02
-2.614602674349530628e-02,-6.429245959060594061e-03,3.963343388429921982e-02
-4.587980809668627119e-02,1.374712465854023222e-02,7.548213341563957471e-03
3.129052576972993216e-02,-7.945689278603782976e-03,-1.380515880437033953e-04
1.698530583809843356e-02,2.417507131188937914e-03,3.471139514864858555e-02
1.505310854227826650e-02,-3.101820333220808856e-02,1.061979540420589230e-02
-1.603741750502641478e-02,-5.832686990711546948e-02,-4.273716393480193887e-02
-1.087232035067370664e-02,-4.795163562870289470e-02,-2.810082948232017069e-02
2.579119495040073720e-02,-1.020645614404977614e-01,2.906228884391955786e-02
-1.301854302391075059e-02,4.481681458148654984e-02,2.723680896195270146e-04
-1.283184249115279334e-02,-2.420112138816510241e-03,2.658406798147111907e-02
-1.696418274183510502e-02,1.350141228195459071e-02,1.106481237730021390e-02
2.705355405789906104e-02,3.210754897157767906e-02,3.172847281197333641e-02
-3.947936374107832019e-02,4.006586174536821759e-04,6.074342030914524349e-02
-4.569910300898272909e-02,2.144925646019606169e-02,-6.020687577583697103e-02
4.925221900917054613e-02,9.399187435651309985e-03,7.406455013349690086e-02
3.713336963415998782e-02,2.044523287356188237e-03,2.030572257994606514e-02
-3.381584151574793667e-02,-1.156950797595997921e-02,6.168480293786322843e-02
-1.920732166950695971e-02,-2.847064048656360469e-03,8.555829056613720174e-02
1.353869930946322020e-02,-2.135490519531111145e-02,-3.080792422949112791e-02
1.999453521879795970e-02,2.172003511057749026e-02,5.285768324511512517e-02
-4.489549409370132554e-02,-6.517411950473080140e-02,2.388614658145196343e-02
4.496389489783173682e-02,9.322292297709136241e-03,-5.783883095328416768e-02
4.163307647389759281e-02,-5.487750960121538790e-02,-1.191260741645042663e-02
1.827798365874893846e-02,5.760705735813203415e-02,6.056802540638857313e-02
-1.481060419706434379e-02,2.269229671419735472e-02,-4.750660900265070256e-03
-4.883353204472774128e-02,-2.998281575151452022e-02,5.494302935241618391e-02
-2.397587982672351806e-02,-7.586696767870883609e-03,1.030748319795032897e-02
-6.874604588612675399e-03,7.609330591136143074e-02,-8.439248198935817361e-03
1.429746470328725240e-02,4.483246423657454710e-02,-1.760052869226040768e-04
4.129693710369115173e-02,-6.197298013877690403e-04,2.059315233692131028e-02
-3.257065575638256466e-02,-2.276330730035349553e-02,-3.448098046326290161e-02
1.986628975321915597e-02,8.236140559377786580e-03,-2.322035136361371918e-02
-3.404661736068564232e-02,2.904947715318118712e-02,7.517997920356903063e-02
-4.709208521774364831e-02,-1.538531521329642750e-03,8.598288113060383042e-02
2.312418182812034373e-02,2.438209885688264258e-02,-5.121128521394219951e-02
2.752182405871035978e-02,7.602125136312646442e-03,-4.209395040173188191e-02
8.244505433767057925e-03,-5.176189473829911902e-02,-7.883335700000677904e-02
-3.556321750317808367e-02,3.937364227292849961e-02,4.930908329288566372e-02
-1.873432537272508303e-02,-1.333694890838468816e-03,-2.741182339906543877e-02
-2.670484482482899866e-02,-3.186945050702139071e-02,-8.759929116950641512e-03
-3.804900845732036435e-02,4.101856922146857043e-02,-3.294131414502526889e-02
9.610189133088481092e-03,-2.118350957858055120e-02,1.068148236101630795e-02
4.167038133634646396e-02,4.844069211912027662e-02,-7.839622826908630715e-02
-1.836854161827556134e-02,-1.704173136552986079e-02,-3.126017817494525924e-02
-8.709157640450236604e-03,6.314390305914727164e-02,3.696371813356544300e-02
6.093682697701803541e-02,2.949755196930334278e-02,-6.709338781079916478e-03
-2.068132908166034865e-03,-6.825024366185208739e-03,-4.936599899768370076e-02
-3.013235382936094511e-02,2.466310016686905707e-02,-1.798318871691058710e-02
2.669424181087709166e-02,-4.296357166480030410e-02,-2.534910214285373761e-02
-5.156118010145473163e-02,6.290674508537226484e-02,-4.027614840950759917e-02
1.498881926022203707e-02,1.186818366604444445e-02,-1.601997714763734454e-02
4.737488096426939466e-02,-9.791011992465951941e-03,-3.740622770097842831e-02
1.144256242149452839e-02,-3.890703344121949903e-02,-5.575825504624248169e-02
-3.471812646087757415e-02,6.370287481337387481e-02,2.245111659986182701e-02
7.319862926458006736e-02,-2.383436067364815350e-02,3.105029374903764427e-04
-1.458143467300834599e-02,-4.307196466911523969e-02,-5.690284183788943406e-02
-2.961691605074378772e-02,-1.594460357539145140e-02,-8.106331452584394914e-03
5.647884705763805621e-03,-2.730138715411535230e-02,2.968768836282185616e-02
-3.223713559059829259e-02,5.618190431299403126e-02,5.147295400511051749e-02
-8.398659881362981888e-03,-3.127800790211676066e-03,8.107164440404948658e-04
-4.095893787937822383e-02,2.310334421298585253e-02,3.052623840629781551e-02
-9.554778732922755355e-03,-8.778753378415585229e-02,6.281556313810529590e-02
-5.537402066230630651e-03,-3.567364797421817418e-02,-9.103574119231334569e-03
-4.088948107446156027e-02,3.345034897417002717e-02,-1.582672781930557007e-02
-4.171789029833255363e-02,6.152669447550382364e-02,-5.297106388620839712e-03
-5.899237028990909210e-02,4.392827852807200915e-03,-2.427639085101333458e-02
-1.186698909354168448e-02,4.655475995007050255e-02,-1.923305124386614010e-02
4.426816055228274122e-02,3.656930080848118381e-02,1.710176391692033032e-02
-4.469933105267021034e-02,-2.324174800631580162e-02,4.611056218504838711e-02
3.321738876938232915e-02,-2.468468192086280960e-02,2.806361924854048132e-02
-6.975629657898781144e-02,-5.463909906827815743e-02,-3.037415293222756399e-02
-2.381036882144104208e-02,1.487411841235504462e-02,-9.485360974004011791e-02
-7.959563534719875377e-02,1.553438327994835499e-02,-2.926689491171632213e-02
-6.301502092662004950e-02,1.446229506655624317e-02,-4.102880245073071974e-02
-9.251417156504630757e-02,4.444495356332980179e-02,4.319749856904590846e-02
-1.129999963966736229e-02,2.132977331583913241e-02,-4.714012029720800884e-02
4.302950014198545642e-02,-1.272062667768630584e-01,5.709230926573670428e-02
5.757796443415938437e-02,3.664015974690196936e-02,6.443437508216028065e-02
-1.081009600532808167e-02,1.128681979915378414e-01,3.808479162571473675e-02
7.527082547588238859e-02,8.112487086395962776e-02,5.294196096777460669e-02
-1.866935299074870200e-02,-2.166388502182581537e-03,6.426636782574987779e-03
7.728470878321991311e-02,-3.649425535296173945e-02,1.146343132622642874e-03
7.470415210558929882e-03,-4.244453982287793581e-02,-3.928065669982584718e-03
-1.876465580578226457e-03,-6.714717884510223132e-03,-4.976751910062323508e-02
-3.087014904390531639e-02,-2.483260557210342084e-02,-6.579204596034103625e-02
6.842869956650700358e-02,6.630186162975243436e-02,2.057913259302437264e-02
2.096158158466794597e-02,-4.407049683043746946e-02,1.679533269250521382e-03
-1.122982480548787021e-02,3.377427148000006901e-02,1.380091324087134473e-03
4.666097826783511399e-02,-3.568440793414212608e-02,1.706689588098152591e-02
7.090577060918072660e-02,-3.661553188839085371e-02,4.233343182440358482e-02
-4.555452893128113245e-02,4.097164515529566620e-02,4.513248910703419881e-02
6.427026911276900734e-02,6.075080946983282826e-02,-2.998157018823498308e-03
-5.663299297230163509e-02,3.252975035361300310e-02,-6.385623179891511403e-03
-5.863054829331818679e-02,4.371928306823321536e-02,-9.254852693455762475e-03
4.531184623981331788e-02,-7.405152535799740254e-02,-1.817686380776158128e-02
-2.301894939890858577e-04,2.258382537509152910e-02,-5.060732767006243665e-02
-1.829708211029263884e-02,6.368722402314344611e-02,-4.387588531323113883e-02
-4.117013852794524503e-02,5.993305088489604693e-02,4.108870674424549424e-02
7.320744435655987536e-03,3.994547352878601715e-02,2.600700648466162945e-02
-9.533510066047717023e-04,-2.265858539443827563e-02,3.404728308934602821e-02
-7.382829012529483481e-02,1.302819267822783421e-02,-3.095163873977328090e-02
-9.178886867865887478e-03,1.988368447912638656e-02,-2.811391907394065678e-02
-3.277659367919550509e-02,1.054446299423919542e-02,-4.908686422686426437e-02
-3.144888737481507657e-02,-1.215848878357473142e-02,7.102970304863356898e-02
2.055876241645987132e-02,-2.239032504453506919e-02,-5.170419319141730113e-02
-1.588649975995875749e-02,5.818064753129623817e-02,-3.644616547023602632e-02
-4.023453305771124144e-02,-4.853026459068893184e-02,6.967526355670632630e-03
1.669606260848928783e-02,1.331126211426800904e-02,7.878644613010604703e-02
-4.103242039018709097e-02,-8.048956049297225496e-03,-3.110826645822267061e-02
2.756585089669803465e-04,-3.182534054101978510e-02,-1.152125989185109715e-02
4.158795300886470453e-02,3.774358743519310583e-02,2.043121842858694123e-02
-5.664409292664712020e-02,4.910288526470933668e-02,-2.341802616419127667e-02
5.148143724591991433e-02,5.876137630920733740e-02,4.919577989248811838e-03
4.312235436531554333e-02,2.582340248575055314e-02,1.381130754225659389e-02
-1.238264391741399073e-01,-1.399530372866451301e-02,-3.901594296598236838e-02
2.677492757851200264e-02,5.617443217036128394e-02,-5.355265055889909566e-04
1.042075464477861674e-02,-5.647462314818763734e-02,-6.764611883989548463e-03
6.181248984901255294e-02,-8.813550940794064037e-03,2.568106143704766697e-02
-7.167113044296757884e-02,9.728082326582675188e-02,2.766017032700750482e-03
-2.141691942444386501e-02,3.950330017149607936e-02,4.418172080897102283e-02
2.685456669907741734e-02,-8.306407706646441041e-03,-2.023162680642330048e-03
5.289405903859079050e-02,1.008323218036370067e-01,-1.117656706692307655e-02
-5.416090883478629804e-03,8.751215673764004346e-03,9.898797370860573999e-03
-1.247584013731807724e-02,-4.442486216877639810e-02,-2.632051712509604971e-02
3.940331453208832657e-02,1.979597651803048988e-02,-5.109761756561519153e-03
-1.457222546790758709e-02,1.174562580615248625e-01,8.976006157992551249e-02
-3.614731877274537930e-02,-1.489051983831163675e-02,3.200580287363903598e-02
-5.257629865450129392e-02,7.048850571550535626e-02,8.985857805684697650e-03
2.320665611298514813e-02,-6.899944874211120247e-04,-8.750173292271561098e-03
-4.848833859395584173e-02,1.225818560865728560e-02,1.121471149348910942e-02
-2.147902568089610567e-02,-1.206931490718040484e-02,3.175174306359673793e-02
5.928338741460910388e-02,4.659934092208510570e-02,-4.176860512980726942e-02
-1.679908639320958075e-02,-4.009964307282194024e-03,-2.185029806127946825e-02
1.388940735740795684e-02,-4.345306936576565776e-02,-1.882575405027490240e-02
1.078867162332330584e-03,-3.360259281493202521e-02,-2.660414499591685911e-02
-6.495759646104070674e-03,5.192152128518406212e-02,2.175269595192554778e-02
-1.295318576739433805e-02,-5.732809005780125505e-02,2.074206145595345989e-03
5.887230900472412848e-02,-2.754740310667027833e-02,2.593804236302323443e-02
-2.165959695308127334e-02,-1.449687706461223573e-02,-9.435334813745695909e-03
4.895593272783119176e-02,1.070363421140477500e-01,1.874493852201462862e-02
3.375028273643514848e-02,4.212421859482582548e-02,6.806952884413948121e-03
-4.533424778417261686e-02,-2.642017599587222904e-02,2.919552733838790687e-02
-1.980644545814752924e-02,4.541250707709215684e-02,-1.325318361889119001e-01
7.723920463590135121e-02,1.301142660102618974e-03,1.349417674868850191e-02
-2.935477168797147665e-02,1.788474542956854096e-02,-3.208500713157167589e-02
-2.646390480387058111e-02,-8.359649970301074109e-03,-8.902377636993707294e-03
4.009995941082140913e-02,4.297219044089789670e-03,-5.010031257743099986e-02
1.872440493939233827e-02,2.290370044344381545e-02,-1.436394109284778141e-02
-4.783223627178016107e-02,4.937995047896204248e-02,7.884966641273885579e-02
1.019776333209684470e-03,-5.196280629137080970e-02,7.735529322175301037e-02
-1.875208198034627322e-02,-8.957490266544801405e-02,2.114315869223436575e-02
-4.067964844119240087e-03,-5.700255490640643991e-03,2.008778275653134299e-02
-2.404130789145647942e-02,-1.433882441039672530e-02,1.681818235476457285e-02
4.792317179873661209e-02,3.297652479980240497e-02,4.769593213301578927e-02
2.571685937920077658e-02,-2.630784568967452566e-02,2.091747694803432547e-02
3.396213448240752164e-02,9.444600022371241188e-02,2.943059425994840050e-02
-5.601635758534653786e-02,-7.672211614453357253e-02,-2.047180055581868802e-02
-1.909463466441508120e-02,2.858818305943129287e-02,1.553592024511484850e-02
-5.525816184719904017e-02,4.736541354855709068e-02,3.741258533149001420e-02
3.786018759412061382e-03,1.530206112311742993e-02,-5.325783001125978383e-02
-4.331518594027800734e-02,1.139490154917823482e-02,-6.819755365588187068e-02
2.470111032893441971e-02,2.800179903234243164e-02,3.265263217567661302e-02
3.513646111709111189e-03,-3.878470913091595917e-02,2.843853906959994612e-02
3.324363416264530108e-02,-2.052559910450343916e-02,4.181864365659800596e-03
-6.065730806839613604e-02,2.529020275662684572e-02,-5.904645083223453161e-02
-1.223553267650685436e-02,-1.745762197437681490e-02,-1.323167913476429140e-02
-5.593850578717308314e-02,4.585603737821098563e-02,-2.222908000657427413e-02
-2.911902525559071156e-02,1.048280781009149065e-02,-1.904966714891163579e-02
7.497135036544087805e-02,-5.342424530592077003e-02,2.117524012878194573e-03
5.762394709562305983e-02,-2.884779476952521737e-02,-2.226908194131453633e-02
-1.131967851437495030e-02,1.165792761923538715e-03,5.097912972913675421e-03
-7.092125513021370342e-02,6.737059082779628741e-03,-5.509604977398099498e-03
-6.941934765445750832e-02,4.813272976616909254e-02,-8.458797702957614531e-03
-1.739711355554410602e-02,-5.185039118987001122e-02,7.635866856311986084e-02
1.621827191327872633e-02,8.217375487513868537e-03,9.666074635141209959e-02
7.885557807390872545e-03,-8.377656145316170200e-02,3.698637306132131902e-02
2.319773940230673501e-03,1.083345647277447234e-02,1.979701865436666111e-02
5.376458403097479632e-02,1.400614043970262006e-02,1.384379013154313567e-02
7.447187242364364246e-02,-1.990545933198333006e-02,-6.657674553874834596e-03
-1.078513798439543168e-02,-1.105222040823332225e-01,-8.944800774588011760e-02
-5.402029154303059078e-02,4.005172345866130426e-03,-1.160027851279524375e-01
1.726573943764041913e-02,3.272956510862928825e-02,-2.868202312041921200e-03
4.640064043741843475e-02,-6.324478517907233810e-02,2.665217568351176125e-02
-9.747295524916823120e-03,-3.926266952014423328e-02,-1.195650357774754972e-02
-1.206425949603818874e-02,-9.494224361367979703e-03,1.598835975467667245e-02
-2.745005453097966452e-02,-9.686416983404890282e-03,3.768126223934487734e-02
4.299998517362937228e-02,-2.736918564083296382e-02,1.772445154994688882e-02
9.206493637711950576e-03,-2.700182798228595825e-03,-4.848389908327059572e-02
5.814095707372751720e-02,-7.701371600196650624e-02,1.668861663938527376e-02
7.265387174090759403e-02,-6.216724538103573366e-02,-4.033330329792508134e-02
-2.815195727637331141e-02,-3.539133562631112395e-02,6.499245581390400428e-02
-1.905289461391031225e-02,-6.339753738440058288e-04,1.993117482519599776e-02
1.315487149928753208e-01,-4.026308708285671056e-02,7.960683955361870512e-02
5.184996441962116953e-02,-3.185970431242263201e-02,8.353064686639354031e-02
-4.824581125121253644e-02,-2.205662259904140471e-02,2.996963761024356437e-02
-2.588138734014763277e-03,-1.656611943154291319e-02,-1.884312658486299958e-03
-2.776775244744165289e-02,-2.472451465462227951e-02,1.073512209683225721e-01
3.401491100713473215e-02,1.027270630549399245e-02,-4.864594425456789800e-02
3.994754304233623377e-02,6.843951711253334902e-02,-6.848927529516199431e-02
-3.867349016005416917e-02,-2.252355285590895012e-02,6.056055936174920690e-02
5.525449783264243381e-02,4.154729823134980377e-02,-2.424555981392368959e-03
-4.109200414982685373e-02,4.397141978529253703e-02,-1.203078899664945661e-01
1.410307506787994436e-02,6.086938059649658894e-02,-2.522586474108068008e-02
-9.686294356288698004e-03,-3.305954079428596176e-02,6.237023505265910017e-04
1.174255933010761865e-01,4.530075359813333369e-02,1.240633594354269807e-02
-5.958264653977759541e-03,-2.027740533441216297e-02,-8.051677175003373044e-03
3.143700079962052918e-02,2.907188676505843491e-02,-4.152759677552228523e-03
-1.402858726425147001e-02,6.423939306298168291e-03,2.915473189724913927e-02
-1.980961983820263977e-02,2.540841583354614200e-02,2.018842688028862908e-02
4.879976597737289284e-02,6.549879347182411930e-03,3.930865263500573498e-02
1.066186515855287453e-01,9.803059586792497657e-03,2.040487626082768818e-02
4.198217303267076650e-02,3.540377488164181408e-02,-3.781560335921582694e-02
7.764141601076197940e-03,8.098444555230569636e-03,-3.891701190703390073e-02
-8.112280226450238607e-02,-3.890046545115015408e-02,-2.037382857044777243e-02
-4.361030768676063540e-02,2.475088559847370834e-02,-6.434174248150398637e-03
-2.024044817822985218e-02,-3.050068889589023502e-02,-3.419434465736059803e-02
6.894962576980299962e-02,2.092991839666350981e-03,-3.380726970595882702e-02
3.690830179809961170e-02,-1.202097133188830512e-02,6.211553117037674210e-02
-1.603730407344142531e-02,5.252372925761449735e-02,2.208503539453911257e-02
6.866044586987186948e-02,1.556015396589770748e-02,-4.364943183211520555e-02
4.386115660932290994e-02,-1.780872895296751633e-03,8.208137713097614710e-03
-3.813583633929423788e-02,2.463429775926436610e-02,-1.276457053684940286e-02
-2.397418396471151514e-02,-3.526256312285663830e-02,8.128343941283669438e-02
4.579790208936600042e-03,1.507053875381986902e-02,1.115260525562162923e-02
-2.267292728889557397e-03,-1.477589803951935912e-02,-3.056547022047002848e-02
-2.732484243493158230e-02,-1.516164361439874785e-02,-3.786475706212156112e-03
-4.769791670052432597e-02,1.023318762567600182e-02,1.875360919135680288e-02
-3.697256663884586347e-02,-7.493968978727051644e-02,-4.385945740699695450e-02
4.293915156493623847e-02,1.148023237804432321e-02,-7.719409734890018970e-02
-4.236631017624212930e-02,-3.994468518507446331e-02,2.423184576021782805e-02
-4.378648321298191787e-03,-2.493874597225031672e-02,1.194290169017906203e-02
2.861353995042105122e-02,4.172418434429439604e-02,-8.250876849727596316e-03
2.894100982363492086e-02,2.624148725112486827e-02,-7.139256726125349506e-02
6.597956787353988738e-03,-3.833732450862745861e-02,-2.305952600812714512e-02
1.126470820647136606e-01,3.190939388532551546e-02,1.738226844926543321e-02
2.415331884903902659e-02,-9.133518331294646422e-03,2.985059346287109727e-02
-1.043616673866332029e-01,1.138414045044855091e-02,2.459921878533453607e-02
-7.443593586069374539e-03,-4.425485003802410305e-02,-3.856127267713489043e-02
2.933669307891411185e-02,3.403317632106964835e-02,-1.140924254040633773e-03
-3.973409154253061291e-04,9.435743087189005923e-03,8.212709258641888443e-02
-8.711130213217553077e-04,-7.342431147813945503e-04,4.540749595536528599e-02
-2.637446276655651053e-02,-5.410517428009434249e-02,-2.822462784906904637e-02
4.349865955283858249e-02,-3.559585066923733748e-02,-5.348776749847145712e-02
6.573754601938273934e-02,-2.711515198171285390e-02,-4.263610004045219337e-02
1.495634802354782987e-02,-4.525673908357129988e-02,-2.200163402265922427e-02
-2.099766864281195008e-02,1.375166531039357515e-02,1.349254431822519661e-02
-5.621343159261855439e-03,-9.063377688413682895e-03,-1.511575207528961448e-02
-1.645213910938648702e-02,-6.868412192876306721e-02,-4.138924776621831503e-03
1.247869559929796340e-02,4.514247836057910107e-02,-3.646309400770531700e-02
6.389897717079934258e-02,-3.952706935442264202e-02,-6.217531855458172801e-02
-2.933363649263790764e-03,7.463061686986528775e-02,2.448971411282775332e-02
3.331297634634909632e-02,-3.483884630626025297e-02,2.507533438924577918e-02
7.983778560423812620e-02,-3.055735082144573483e-02,1.173262584250978242e-02
-6.983037588169986598e-02,1.379078928068018430e-03,-3.252083014575777448e-02
-2.556505403415494301e-02,-5.668419779496537692e-02,-8.000456471444075679e-02
-6.978925738136560093e-03,1.434910470069086959e-02,9.963791141269251125e-03
-7.457786724444295801e-02,4.341565784216964291e-02,-6.593672439120949746e-02
3.349994232845886211e-02,7.523453348388125681e-04,2.615376497799245387e-02
-2.298599136372428062e-02,4.729191867259529419e-02,3.142644917454805176e-02
-4.449723172797769716e-02,-2.598016675915923359e-03,1.476114320847606021e-02
-3.416639115034660751e-02,-1.541491622350535731e-02,1.633907265290203414e-02
3.228015762834995223e-02,-5.057082731243013607e-02,7.113202311713097414e-02
-5.525840017330184775e-03,-3.757842372187333857e-02,-3.765976142925616527e-02
8.669348437668797369e-03,1.963553218575041573e-02,1.112015111400558968e-02
-7.696978513083212181e-02,-3.937877042557777485e-02,-3.745890126777655371e-02
-2.008340813715151982e-02,-1.244793125921293299e-02,6.843795906228846045e-03
7.506491002411828234e-03,3.417076011463079932e-02,3.450967665793713834e-02
-3.099687647075815081e-02,-6.488940222820961667e-02,-4.087031667524446501e-04
-5.572716906978981977e-02,9.760849216863711278e-03,2.042839200386816975e-02
5.661788763791109069e-02,-1.085605305337358426e-02,-6.368160714676885693e-03
-4.377036346210275673e-03,2.313587818214443703e-02,1.139332660234114794e-02
-3.250529730780628984e-02,-4.065014661597404072e-02,1.926286209813462408e-02
-3.122239475071346068e-02,3.679514561044087279e-02,-1.721028261305965895e-02
3.018388175557178491e-02,6.482226281732006434e-02,3.597775098781980097e-02
-4.616024786411629215e-03,1.806467087837949903e-02,-3.060003442941251067e-02
3.141227487660545100e-03,4.843914608738499050e-02,-1.267095081386662887e-02
-1.286050411753744682e-02,-3.606263421203920877e-02,-8.288384235030392400e-02
3.160423819102561871e-02,-3.441256165567938767e-04,-4.978931889746142370e-02
4.986880351683464774e-02,9.705614740361519915e-03,6.160802477765634638e-02
-2.894523077013521142e-02,-5.018571901326805001e-02,5.503364781104216202e-02
-4.152711168939994535e-02,-1.528825517502112492e-02,7.740518806454941073e-03
2.371301016512859100e-02,8.757979225828321779e-02,1.594838140789596806e-02
2.111740112515192013e-03,2.529404680781784532e-03,5.386079048980554201e-02
-3.388551040801882769e-02,2.612832109254911370e-02,2.930156467171571646e-02
-1.673765391750767217e-02,-3.671610591048775959e-03,-2.705581657156217942e-02
2.680548976693727242e-03,4.222940142769424088e-02,-3.108396083271348226e-02
6.362258231400785835e-02,3.234510513480942651e-02,-5.526110111417047166e-02
-2.395414855804861229e-02,-6.642666155583841492e-02,-3.195302039129237215e-02
-2.163357694546388238e-02,2.082817158895795828e-02,6.185658510603581767e-02
-5.365605438951579625e-02,4.686811431459162597e-02,3.763180270989438872e-03
-6.404361867248305196e-02,-6.994849444554671059e-02,-3.139619915951459561e-02
3.826516492355327287e-02,4.377584503264793370e-02,2.536915327247295585e-02
-4.304864707976172045e-02,-3.400771386321646550e-02,-6.030794978535628653e-02
-2.596481444304769154e-02,1.034099595319290105e-01,-2.501454398607316776e-02
4.436226425215237384e-02,-2.802315489223857620e-02,-1.107626214139931405e-02
-1.132698714957925193e-02,-3.403966184841372700e-02,6.955756521521273827e-02
1.283869885540753555e-02,7.779406492640719706e-02,3.136106508526067399e-02
-2.751305728645168924e-02,5.121755447678767031e-02,8.459404434390452310e-02
-1.622416261305338614e-02,-7.030428894758153358e-02,2.685634927898880933e-02
-6.150924034208987527e-03,1.463177631771466619e-02,2.078449229950040875e-02
-5.151015997947497316e-02,5.884960234667474532e-02,5.115418078531251689e-02
-5.256025783087566600e-02,-5.206724541956225805e-02,3.264673317546307185e-02
4.060893484932912717e-02,1.716146959352668130e-02,-1.257104028511963484e-02
-1.376466496193280535e-02,3.262989562898471751e-02,-4.085321602529829593e-02
-5.195470812117881226e-02,1.681502939533411831e-02,3.955917981637124131e-02
1.290799531506207562e-02,2.931081213990810799e-02,-3.412471904595257288e-02
9.062585783717209964e-02,-5.009336845624213531e-03,6.841201823776833779e-02
-2.135747790727848816e-02,1.515053075270204191e-02,-6.762738518347519157e-02
-4.959127363857702975e-02,5.160825563157594303e-02,4.816259508658135395e-03
-3.738148098340576125e-02,5.218464981367077621e-02,-3.862698446390756823e-02
4.110016995580210997e-02,1.358181866570984647e-03,2.194750012420995308e-02
4.472478131514177196e-02,2.603446525838444894e-02,3.424295062027558900e-02
-1.550549929658432899e-02,-4.317944831063651699e-03,3.492362996836952550e-03
-2.611136537639390312e-02,1.482154388625388231e-02,5.066587419626983335e-02
-1.602964047804954911e-02,4.655071013313866711e-03,3.876476879246638918e-02
5.676226865354462060e-03,5.335828955010267494e-02,-2.616193904525673450e-02
6.734507287278683474e-02,-5.454880038522577114e-03,-3.287084774953681621e-02
6.106890723924130598e-02,-3.821814033259108428e-02,7.636489512601231378e-02
1.231432385284794186e-02,-1.841206403165162112e-02,3.105572873660361957e-02
5.737993421339850075e-02,2.556287094765175363e-02,4.557809148897394753e-03
6.149875506567206024e-02,3.068221397321107061e-02,-6.058869427678035277e-04
1.316534016518442277e-02,-5.147776568377809836e-02,-3.969431944624073755e-02
4.595350890846972014e-02,-1.423642678888617161e-02,4.304185848618103521e-02
-1.234333698160713574e-02,-2.014918381114861115e-03,-6.374054330389597456e-02
2.636454755924547665e-03,2.569089718102362738e-02,-1.711175926849628839e-02
-5.914610351462998988e-02,3.351390405045860665e-02,-4.908523386918491049e-02
-2.465418908260980785e-02,-7.699489423343797850e-03,-1.094207368647991535e-01
5.236490163836142464e-02,-2.366180420427537942e-02,2.304248576474404384e-02
4.116036782743535266e-02,4.899835330743765663e-03,3.481787725261507871e-02
9.537549290122232862e-04,2.400574272672426068e-02,1.968057840430962810e-02
3.692783253448839870e-02,-5.966394336555422284e-02,-1.729418753722022570e-02
1.973074247902753889e-02,-5.824576334064508754e-02,-4.804897085391897360e-02
-1.078959778818474984e-02,-3.576007184508679659e-02,-6.504690544766378313e-02
6.335362556498304321e-02,-6.743443267791404683e-02,-3.642034008217597679e-02
-6.074216078535488172e-02,1.364109863869920024e-02,1.010761713803272691e-02
-7.454927785924704564e-02,4.025476987565221321e-02,-2.122622904906428312e-02
-7.700689037821926985e-02,1.558528831412832848e-02,-9.088695585111121814e-03
-9.079571610886976243e-03,4.331618218035620388e-02,2.595636748333865831e-02
-1.744286457023347392e-02,-2.678360122600939239e-02,5.719637665461381471e-02
-4.271295071663004650e-02,1.142233638388026953e-02,2.481594570508630429e-02
4.444023431394709955e-02,4.155553747873087789e-02,-2.796213785015492365e-02
-2.380466568159030419e-02,1.453886989808851615e-02,-3.761931199068673654e-02
1.710786353680874422e-02,-3.518815601306257701e-02,-1.541642112675828402e-02
2.829682259897224952e-02,4.614740797326450511e-02,-6.574352156685926707e-02
-1.518607876011490720e-02,-5.398433218576236328e-03,2.508018329992670395e-02
2.451936746257455529e-02,-1.206283606651560730e-01,2.751330057808997961e-02
5.957736878651841150e-02,4.438457805665747130e-02,-1.476179978720323568e-02
-1.495333282819234083e-02,1.909495441300799665e-02,-9.127402750027555859e-04
-3.383280118810322312e-02,-2.254304495268401320e-02,-7.955734782255995119e-02
3.787043365312326576e-02,6.944942582837704270e-02,1.235553610919385738e-02
7.603024715649162046e-02,-6.684937621735941027e-02,-3.905271570893156102e-02
1.080660852146379108e-02,-3.283863195585864231e-02,-2.525492835963727770e-02
-3.998694651704616521e-02,-2.129760369103582407e-02,-4.092095294136020855e-02
-1.115878423053529370e-02,7.748874166010928308e-03,-9.473547971307347271e-02
1.070986969048750605e-02,-1.131035648367494269e-02,-1.080280732909628602e-02
7.616161678071658482e-03,1.632599336513630012e-02,-4.622825289421993167e-02
1.939482000333304576e-02,4.085908642926016493e-02,-4.188134882556558691e-02
-7.162220430656029459e-03,-6.121379129554196247e-02,8.389978157797989278e-02
2.731006794066626747e-02,-2.320017689599289737e-02,-7.213718080676162492e-02
-4.731902477598026735e-02,2.034162137767828778e-03,-3.836855965128678492e-02
1.661389175562237239e-02,9.827534552709148163e-02,-8.278633780805290387e-02
-5.116008695201604978e-02,2.157334495521627538e-02,1.339582599857775391e-01
8.108000523266330195e-03,-1.328642752442021728e-02,5.023384561908166707e-02
-3.900494843941088464e-03,1.443580357019153687e-02,-2.915306194676835737e-03
-2.305251529696537849e-02,-1.920219013309392916e-02,-3.478112171475369885e-02
3.239921546401552943e-02,1.531069905013641855e-03,-2.803120933706615414e-02
-8.014503714261397849e-02,3.534651962436577421e-02,2.798543013301096546e-02
-8.172435609452996519e-02,-2.966255448760351729e-02,1.811369810215162843e-02
-5.816593160362559280e-03,-2.366806313426549069e-02,2.654341923253749486e-02
-2.664919090264455948e-02,4.697304979747526227e-02,-2.632633866644658489e-03
-3.152160592144873097e-02,-2.081657354867383694e-02,-3.271330056379847390e-02
6.358277213311096243e-02,-3.323715693635934110e-02,1.785078123909316673e-03
1.346272454879524245e-02,-2.550716398857151047e-03,3.809110576858266983e-02
4.802434213467171413e-03,5.467436480689464792e-03,-5.807925578399408470e-03
1.377557322651074695e-02,4.603248834477751544e-02,3.105467818019587087e-02
9.815561512101929342e-02,2.217341280849192964e-02,6.849462948688189723e-02
8.568253226210083284e-02,1.019620777136656317e-02,4.165302249886208841e-02
5.714053393360048888e-02,5.382219333428989866e-03,1.552174234386700241e-02
2.855377088089310761e-02,-6.434358277586511854e-02,-2.594339632441981791e-02
2.369901142000024885e-02,4.839207677509574368e-02,-6.433174875846351878e-03
8.024718352492039158e-03,-6.075019701168901665e-02,-2.488953880454214743e-02
7.410576863445542117e-02,-3.764590486736978103e-02,3.003293601109137054e-02
-4.480698310274269791e-02,-3.202997522987121020e-03,-2.925320989910490301e-03
-5.522025688080879624e-02,2.440242697514718312e-02,2.788503621738236751e-02
4.050681338951570010e-02,-1.483062201134558930e-02,3.684292912892875999e-02
-3.957441761082643866e-02,-5.291385288181771340e-02,-4.098656203004781388e-03
6.187910293780547050e-02,-5.477579028654002563e-03,-5.099616266183602115e-02
-1.240093264843844696e-02,-4.870396765409957390e-02,-2.556692101494915503e-03
-2.401295212453534791e-02,-1.905581721280188642e-02,-2.711835049038362547e-02
2.801575837584530451e-02,-2.632634641482380685e-03,4.766288705418422929e-03
-3.157517959715212558e-03,-3.975493335119033300e-02,1.337631152483974989e-02
3.167592176607819405e-03,-1.490735038907387879e-02,9.317926483146163341e-02
2.274489136836159789e-02,-7.615239324420181900e-03,2.537941004046160784e-02
-4.411713875734145363e-02,-1.082014580050330230e-02,-2.257624831925387349e-02
-6.357625601489819145e-02,1.683067434837671669e-02,3.547136382613395866e-02
8.933300878274459678e-02,6.788948412742305816e-02,-6.268148407514300378e-03
5.097353118512126108e-02,7.600265962351722762e-03,7.541829881632673704e-02
1.004655551291490229e-01,4.131138280539164986e-02,1.488944675988018024e-02
-5.665970382754231295e-03,1.494167473024617630e-02,2.351897547926019502e-02
1.186136732993376720e-02,2.609263247308737585e-02,-2.198877547746320646e-03
-1.179708141355448325e-02,1.184898103374514185e-02,3.139735349177710105e-02
-6.627122077362172054e-04,4.176737433996588478e-03,-6.802415667180630732e-02
-6.754635311170948536e-03,-2.250983791669560960e-02,6.051003109396871360e-02
-1.365928165859310421e-02,-2.843461802317177878e-02,4.390718435456449770e-02
2.483350220186991003e-02,5.102109301575989686e-02,8.914531823670096815e-04
6.299691344481178623e-02,9.965397147704111933e-03,-5.601871221075761104e-02
-1.943512067538420273e-03,-7.743359569803930087e-02,1.309670536210054588e-02
1.844640479554387341e-04,-2.188310253780946513e-03,-8.179353447532941579e-02
5.847726961547818070e-03,6.418697886561661181e-02,-5.048093973357248992e-02
-6.193662753529063925e-02,3.477830260586845662e-02,-4.054774695810511864e-02
-2.063397739331443437e-02,5.722267770960448542e-04,2.428581023200073949e-02
-5.911017794960878556e-03,-1.374904367792579782e-02,4.952871534356561439e-02
5.273815818383730848e-03,-4.782048999712405768e-02,4.601738407056216282e-04
-3.217458364274585619e-02,5.211208365848657431e-02,-4.374794744622621107e-02
-3.621196828862959655e-02,-3.440009168584888533e-02,2.225886102261079302e-02
-4.873866060797092670e-02,-2.345310089797196778e-03,1.159507924329679779e-01
-7.005963164122817888e-02,3.437388317620896500e-02,-2.373816899370691236e-02
-1.224242639033622411e-03,-9.107696290999213202e-05,-1.001802836424661725e-01
-7.010168197480887153e-02,6.083432853169123966e-02,1.028095426137733484e-02
2.236972213684208788e-02,-9.042203665119706232e-03,5.857006025100695151e-02
-1.579949006213566057e-02,-1.165418655544267490e-02,-1.435973560960655468e-02
-2.091424755739989053e-02,-7.156083533583492209e-03,1.402442504943057951e-02
-1.610410328575398106e-02,8.465176460623898003e-03,4.218431629619659451e-02
-2.736640389016467556e-02,-5.195298158418457102e-02,-3.578496989707031367e-02
3.749835061761931654e-02,1.774806458825074762e-02,5.684902156767308694e-03
6.315396491086149033e-02,2.591042681502656042e-02,-3.634327801251358708e-02
1.828662998688321967e-02,2.876765992590603685e-02,2.495114157792990492e-02
-1.970331927509567493e-03,-2.931191528605066668e-02,4.687772378757308622e-02
-5.282589239057582792e-02,2.679543572572185353e-02,2.984079161235471747e-02
-4.786981038839491567e-03,1.686300029882472837e-02,1.652181399630919117e-02
-2.475394287433638554e-02,-4.254588493992805115e-02,-2.965057553767734555e-02
-2.946800768757551481e-02,2.673430520827389453e-02,3.338458131445275201e-02
-2.956013131023853616e-02,-2.555982525978094805e-02,-2.369895338793089057e-02
3.177433641511018952e-02,1.941245857972824507e-02,6.762605796555068438e-02
1.714426399294813330e-02,4.062289397870576246e-02,8.539853629535505697e-02
2.543555233506598900e-03,1.021086194087809651e-01,-8.642294494461655319e-02
7.314868160563937904e-02,-9.557473802786856446e-03,-5.517294560412044219e-02
-1.950120327541217391e-02,-1.924769912863574881e-03,1.865260870165366333e-02
4.694500069361100258e-02,-2.627402398611928397e-02,3.410244471539248395e-02
-5.253844546687598538e-03,-2.837856467726924958e-02,-1.369539631890743549e-02
-2.932892949189972939e-02,5.658089764168270502e-02,1.028162521828300119e-01
-7.492849941923497570e-02,-4.098315769731546848e-02,-2.454736747790868187e-02
3.413043035229729877e-02,-5.054249510522582783e-02,-4.685154962548192595e-03
4.118253563411191503e-02,4.176679299792252515e-06,1.217518933457763068e-02
7.741308233609923983e-02,4.315083733314316328e-02,-2.185141471758158052e-02
-2.910576565525346132e-02,3.824869775989334086e-02,6.534758741611836064e-03
5.828494973940268747e-03,-9.727514152775194878e-03,-7.174083129334973656e-03
6.579154956095556450e-02,2.597933185277597617e-02,-5.302674879668760853e-03
-1.413641110392785914e-02,3.167319232322035605e-02,-3.196111746282116056e-02
-1.789053390983071090e-02,8.752639233029036597e-03,-2.182189349755418728e-02
1.005746323729995138e-02,4.516918615815559979e-02,3.797139425201460222e-02
-7.032637738064898697e-03,-1.115462565623061113e-02,-5.307548489324072361e-02
-2.663321718901981851e-04,-1.067142071039787338e-02,3.389420479347688558e-02
-6.629129934189437190e-02,-1.086921221171522484e-02,2.477571527974101878e-02
3.961646150903923302e-02,5.950800560192531785e-02,-1.182258786611406140e-02
-2.363315159011930219e-02,-8.167749268208851499e-02,-9.587724289177845458e-03
2.686481126943774528e-02,8.484007537245429054e-02,9.039576409689575875e-02
7.874751543873247800e-03,-1.017251190671166795e-02,7.816876736081872917e-03
-1.674348628958851129e-02,3.020377723599798614e-02,4.032459545607448848e-02
5.259053839978082567e-02,-1.464864373424998138e-02,7.529882130809704976e-02
-6.801063756988795506e-02,-3.320052358628843708e-02,3.855058801915771383e-02
-6.965006954806393646e-02,1.251783207821575289e-02,-1.524823009322416774e-02
-1.222864578548284349e-02,6.888960932055882003e-02,6.532035878320546773e-03
-2.235139878944137487e-02,-9.294609566859017569e-02,3.578255616517186238e-02
-6.067830092825068911e-02,-4.934084263629874914e-03,-4.533303771751461680e-02
7.222535989520940947e-02,-4.961065595649857829e-02,-3.686712038075957293e-02
-6.603999688026192250e-02,2.578889443105591289e-03,-1.400112078900045930e-02
2.760621659988971369e-02,3.765709646640566510e-02,-3.300747460291859198e-02
-3.556545398474789989e-03,-2.256194816719998830e-02,-1.911329165523555085e-02
5.193601648192400222e-02,-3.039909114507373389e-02,-1.695191419902229713e-02
3.832018149727819956e-02,-3.342778824852320804e-03,3.610359381344064450e-02
-5.574463827153534889e-02,2.707025399963127257e-02,-1.755192571946300687e-03
-1.864150842259894650e-02,1.724969363950660042e-02,-7.766052547517346416e-02
-4.373246979005481622e-02,9.245460290056337072e-03,2.181588649068189056e-02
-3.227949760203970009e-02,-1.814849784112834014e-02,-5.996369244194082798e-04
1.368693458501920035e-01,6.261875641623690023e-03,8.616908745947322867e-02
-9.301157929013015302e-02,1.001280438147426378e-02,8.109879521745647080e-02
-3.439637018401117685e-02,-4.191626218519379360e-02,-6.997889601942994774e-03
1.097731466462946795e-02,1.290059626351370246e-02,-6.997506519585148903e-03
-4.380758832443846368e-02,3.018713401455014669e-02,2.497024030701543509e-02
6.277335644449451302e-02,4.032295752990230908e-02,-1.696754313194158426e-02
-4.356462692326158737e-02,6.165402561035406709e-02,-4.862308047670583361e-02
1.156685405222158403e-01,-2.987549610903370012e-02,-4.956886281187628668e-02
2.210450789995033541e-02,-3.078517520666892212e-03,4.893792521562697652e-03
4.934797491550672183e-02,-3.846962981871209636e-02,2.281567561279278580e-02
4.265693156267250097e-02,-8.598516987463172487e-03,1.163469813496187215e-02
2.529111258279964376e-04,-8.744720969847041836e-02,-2.188072575140087225e-02
2.519319426867748166e-02,-3.285647031889810804e-02,-9.777644940290370137e-03
5.625022898942896171e-02,-8.456316919076362071e-03,3.027891627452582168e-02
-1.188242537272144947e-02,-1.128319658008006682e-01,9.087621677992374636e-02
-7.533934620629716139e-02,-2.834803465326912741e-02,-4.383619887292814626e-02
-1.034582707283987837e-02,-7.546132843811176327e-02,-2.499802456995027511e-02
2.795737698892334158e-02,-3.199708372177772348e-02,3.002478897101916108e-02
-2.134490023343301943e-02,-1.648978433610635494e-02,2.896306817073593387e-02
7.222757036115624862e-02,-1.164947360823534589e-01,3.979168165618333225e-02
-1.112994234245058035e-02,-8.518553978800944698e-03,2.065608517771440680e-02
8.960886347670660168e-02,-1.820517151931650215e-02,-1.202679419196749262e-02
4.917654726954918953e-02,1.097026794916050596e-02,7.510646582326194198e-02
5.517760129938267420e-04,-2.743123784586394640e-03,-4.133797118454070156e-03
3.391572897587965250e-04,-5.422591311972566747e-02,3.710989443169061819e-02
-1.864852359143884600e-02,2.469537192619896890e-02,-9.169698017336322046e-03
-9.695796069758708113e-02,4.025376705329888199e-02,-1.053901446312456407e-02
1.303224271024595177e-02,-1.041190012992345391e-02,-6.754426618024614304e-02
4.733661431187729737e-03,4.981334418985789575e-02,2.687950624127789095e-02
-3.818368337516185509e-03,3.722662010772895963e-02,9.773107439046168840e-03
-1.367260244383569461e-02,1.075225570130774883e-01,-3.211242675821974774e-03
-1.453505600952030227e-02,1.044813873216552357e-02,-2.222819492134625596e-02
-2.811839941809276058e-02,3.074711593832184231e-02,-4.326638680308023122e-02
-1.088528616891459855e-01,-2.494548926901000996e-02,-4.396424417560786113e-02
-6.147345904381733804e-03,-5.178990495711169664e-03,1.309774553285708749e-02
5.341897524504682360e-02,2.843467477729097123e-02,-5.573027346957066738e-03
3.927703421610269537e-03,8.594181006318184213e-02,3.654292798760405692e-02
-1.328472360721096555e-02,2.170456703213590952e-02,9.010059718277563245e-03
-1.470804206198044134e-03,-2.831303537897841838e-02,4.827736946437748838e-02
4.830471840888828777e-02,-1.767664605041499928e-02,-4.393211268665624114e-02
1.250741103986317999e-02,-1.981280287038867174e-02,-9.001939826217530624e-03
-1.070089437659759030e-01,1.002381303961628715e-02,6.424431939533764568e-02
3.535394927503716228e-02,2.671871156062121180e-02,-2.472916480107987050e-02
-2.550255575723316126e-02,-2.295005635295135210e-02,-5.395740671218043905e-02
4.758836471303739407e-02,6.782268090002663286e-02,4.313020872152063118e-02
-3.369794196056562913e-02,7.764585058031607534e-02,-1.289989338116856281e-02
6.026512870266658578e-03,-4.368102453811117600e-03,-5.920042339103896711e-02
-3.307309196234176941e-03,-1.199182303094797550e-03,-3.613679680830000907e-02
5.624596745319085031e-03,-4.453621296770517157e-02,-1.034066528428871472e-02
5.282971466902487701e-02,6.955321830163903318e-03,-4.093233859574264832e-02
-1.370107769546985085e-02,-5.159147172145974597e-02,1.464206271614911826e-02
2.668708707311383960e-02,4.577574585845541749e-02,3.868718949421608155e-02
7.929969981261490719e-03,7.093298733921239718e-02,4.451456849055908382e-02
-2.227527892629896020e-02,-4.054680645687788743e-02,-5.580211954103067584e-02
3.546197020791293231e-02,-1.134251685133024976e-02,-2.002531221556230409e-02
7.005469338546169156e-02,6.480920071205287236e-02,-2.960899120799850848e-02
-3.998601112660225831e-02,5.886317435253871772e-02,-4.709122259093113938e-02
9.588062824736724721e-03,4.878254985449194392e-02,-3.299731822163849346e-03
-6.841034364894271746e-02,6.190242843632575570e-02,3.359791922109912204e-02
1.044460356961095931e-02,5.376655895881887054e-02,4.816967935911083132e-02
3.943562161420582912e-02,-3.280635231447919659e-02,1.223243615839287451e-02
-2.782532282080304314e-02,9.186456438178083883e-02,-7.098962584925290475e-02
5.980318708122191185e-02,-2.583931241054619656e-03,3.108710217491691616e-02
4.616219449088292820e-02,-5.994431259387948685e-02,-1.378666541617759068e-03
-2.927082331015027836e-02,-2.083156788272209209e-02,1.233152350007313096e-02
-2.043323872590405849e-02,-1.007146062518541607e-01,2.223166088544926283e-02
3.067451837117270153e-02,7.868204895324755477e-03,-5.481955718042615111e-02
7.008957645050548080e-02,-3.211344294487809142e-02,4.009847502385519707e-02
-6.544315437898730325e-02,-2.585508099594915205e-02,5.021169380356015760e-02
-1.851747066811123361e-04,-1.438423293692149031e-02,-5.081372562500652279e-02
1.857239130560263407e-02,2.660049506197853519e-02,6.962251109392247894e-02
-2.638189134824653337e-02,-2.877898781893719823e-02,-3.792982500298539006e-02
2.679954990276754495e-04,1.268709911026925062e-02,-4.100219575333943073e-02
3.342671521247063404e-02,-2.292896542870374171e-02,1.940138491404554480e-02
-3.899677432626144635e-02,6.019685217334373034e-03,-1.551929368387102402e-02
7.368937060414760751e-03,-7.902556481419161297e-03,-1.228907334212186661e-02
-3.204661344657962901e-02,-2.606999128780405905e-02,3.106045034366546054e-02
2.414808472387303812e-02,-1.211032044915604823e-02,-2.619421885991643495e-02
-8.773401062443111909e-02,8.821518902682749796e-02,4.092247377828730354e-02
3.197736751641976072e-02,-1.216981734118542484e-02,2.716727270594872408e-03
-4.498499253192888431e-02,1.193803897526872276e-03,5.631441692125332271e-02
8.289753836580267266e-03,6.018262045104825174e-03,6.981980292774223051e-02
4.534008455288356110e-02,1.779806466514368204e-02,9.996625764108686349e-03
9.236958643548984910e-03,-3.996241025423291626e-02,-6.389579125269664699e-03
-2.177453211887317788e-02,-1.173905613721321853e-03,-8.133621978948407313e-03
1.878601315555415013e-02,-8.472822995724693662e-02,4.190246687108005463e-02
7.894399976194720406e-03,8.819487596036491850e-02,3.612135482338439674e-02
-4.377499612396494599e-02,1.034561878070619917e-01,-2.860123599917745521e-02
-5.381161611863115313e-02,-3.895893344767633812e-03,-9.111550604294367528e-03
1.164694554753109741e-03,-8.068958663276094845e-03,4.887385710521571086e-02
-7.712584896308063986e-03,2.515889608662118596e-02,4.222227840191181830e-02
5.928457476224099909e-03,9.083761915496369561e-04,-6.005230345797470809e-02
2.518625846086838121e-02,4.145743205800661579e-02,-6.766410417158826018e-02
7.478006842722373588e-04,-1.795623124012529510e-03,-9.369978772862233574e-03
3.696729296539932874e-02,-7.345029052577814466e-02,3.768270032948292658e-02
3.470854504021399223e-02,1.125901440022353782e-02,-6.392496029008608305e-02
1.824432889416866682e-02,-2.470932081907399949e-02,-3.308287396850429635e-02
4.432577848660856912e-02,7.994472266831516294e-02,7.180433691381526984e-02
-4.642457045273996885e-02,-2.741518390296020583e-02,3.796475800632991005e-02
6.684546829908663904e-03,-1.586586022531741649e-02,3.978097551573104435e-02
-2.201045623571460524e-03,-5.170494417025898320e-02,3.079094311370438736e-02
-2.735356394329218829e-02,-1.423371262124536844e-02,4.349984377161258964e-02
-3.290122182156488689e-02,8.795303511154825907e-03,-2.107286637020164277e-02
2.920149617514879517e-02,-2.394797034279097514e-02,-5.413067926146052783e-02
5.324197576006778343e-02,-1.168720194435455412e-01,-2.007946151148654740e-02
3.161878895479078994e-02,6.243252459434804787e-03,-2.832104516954403808e-02
2.401775590103421773e-02,1.166323297126931058e-02,7.988683794387108072e-02
-9.123763009264505841e-02,7.322986035234770041e-02,7.674992282754505846e-03
8.461944220132121622e-03,-2.335482245390457443e-02,-4.710835155443564293e-02
-5.439516533147391308e-02,6.864581093223963426e-02,-8.230882423152019456e-02
3.072615892320102945e-02,-3.537511733366264545e-03,-4.041882916708594564e-02
2.618546974701478625e-02,-2.087553052876758852e-02,-9.226522259096855971e-03
-3.523673576201862435e-03,1.997558209975778404e-02,-2.807119529680779033e-02
2.558012005934657412e-02,-3.479690799405711632e-02,2.293219144324379344e-02
6.391732158414382969e-02,3.343143239752952023e-02,9.479166267720783023e-02
8.506159721802070486e-03,1.275568039108587173e-03,-3.292706113956449243e-02
4.864748744338711489e-02,-1.331153720119209773e-02,-4.524132863064653232e-02
-7.824799985908868771e-02,5.183759741977584518e-02,3.916314859102662527e-02
1.436277606618176911e-02,-4.965843906149673692e-03,-9.216549470562411181e-03
5.506237405744133367e-03,5.576450046459685561e-02,2.444485111527073401e-02
5.542762126795615363e-03,8.491077693727064335e-02,2.736375221362062453e-03
9.156474400222724269e-03,3.357400208157235166e-02,-5.971409006248741547e-03
-3.023629578843466982e-03,7.883457469611983293e-02,-1.001156628457638281e-01
-4.364970254130072502e-02,-4.611690351594532888e-03,1.213045161236694404e-02
6.791088156816207921e-02,-2.735646809374831998e-02,6.433515293625712006e-02
2.740092847170328208e-02,1.227114490668278733e-02,3.483127196640636164e-02
-5.446725137826257702e-03,5.076951009040169341e-03,1.370490564126385369e-01
2.949963170025535555e-02,1.758226935840029662e-02,3.672302091789683004e-02
6.573705481572041792e-03,-4.286563694279955233e-02,2.757615190998560090e-02
-1.887640027312968011e-02,6.461300450546075824e-02,-2.104184288763124092e-02
-2.380938217210293306e-02,-5.968486654269757746e-02,2.858241008893372750e-02
-3.722085248291763515e-02,8.896489100142135342e-02,-4.127439874403705800e-02
-9.682317810721832729e-02,3.452006781284378684e-02,3.499108678658550964e-02
2.705973007031088964e-02,-3.189669884049502191e-02,9.273098798192625294e-03
-4.474058684536267455e-02,-7.364017834654982761e-03,-4.609644474520248336e-02
-4.617933210545731998e-02,-4.791444397132869210e-02,3.536860809419735407e-03
-1.099284558595011035e-01,-2.243838800088054572e-02,-4.535278434445214751e-02
-2.770932833829589399e-03,-3.644561602315333354e-02,-3.520121457541498106e-02
2.439351894511453470e-02,-5.530924833419258169e-02,-7.867565523435522679e-02
-1.189670813409632322e-02,-1.550614431936334255e-02,-9.365457440867988592e-03
1.551934491205834120e-02,-2.847071890555587931e-02,2.272918375638349059e-02
-3.510148053606978319e-02,-2.420228478526629048e-02,2.275101685909801039e-02
3.356049874919349914e-03,-8.488319119185862294e-02,-1.413399501915385895e-02
5.037939666241471326e-02,-3.596780191989338432e-02,-3.902696748767082308e-02
3.268108254319873618e-02,-3.888561073848485761e-02,3.197627783137422510e-04
-3.148416787013998130e-02,5.227661072894110306e-02,5.070164598764904940e-02
-3.641340829032001930e-02,1.754680882456105886e-02,3.219682430313455107e-02
1.124738007133628190e-02,-4.987777265278738048e-02,-2.863424012866332830e-03
-5.223137979344506798e-02,-6.136651406123582592e-02,-2.172790777332172379e-02
-3.847029038703021764e-03,6.668084478644313758e-03,-3.436519786718258279e-02
2.944303348501070561e-02,1.050560194038814826e-03,-5.462535520065155137e-03
-2.574821114460883881e-02,1.266092821939511850e-02,-4.367783368102191172e-02
6.054460055020296355e-02,7.645791759478852943e-03,-5.045007763931371597e-02
-4.735474906633135167e-02,-5.741984934142994185e-03,1.394838843261239636e-02
2.389169732909238869e-02,-3.915169765417066822e-02,3.324138096880180013e-03
-6.693000578181867999e-02,2.485052730891653544e-02,2.366487673751896392e-02
3.968290283059270479e-02,5.374668211913150202e-03,-1.008877121566269242e-02
1.782526552379939261e-02,3.399582758733479121e-02,-1.709700564425812447e-02
4.270188243982758758e-03,1.496488402851046604e-02,3.309283532731826204e-03
6.874080315920236446e-03,1.111185270698918787e-02,-2.615197890042647924e-02
1.211355639378158475e-02,-2.749008855551093172e-02,5.216287947046074208e-02
-2.042655073322289377e-02,1.055849909287265992e-01,-5.604535685067245886e-03
-7.105046794975967972e-02,2.642803999491484795e-03,-7.536609657420358099e-02
-7.816483357011542663e-03,6.046613813800007925e-02,1.769171448013984529e-02
-2.034720814657558011e-02,-1.497605962366641702e-02,-2.027613498127724503e-04
3.263746252846733836e-02,-4.961028099426129101e-02,5.857251977467146931e-02
5.619669756847619352e-02,2.372379657779355791e-02,1.840276262465786322e-02
-6.995795945172861297e-02,2.930028664099946362e-02,1.739662100438112841e-02
-2.501733589818726233e-02,-2.021890674528634135e-02,5.347617704097029634e-02
2.900612791954011727e-02,5.499015940707413334e-03,2.698392830455808439e-02
6.008993254997902628e-02,8.494626538216708961e-03,-2.660516890856997902e-03
-1.718819675903423758e-02,5.420690207802104921e-02,-6.530756958220117203e-02
-7.451294812814891755e-02,-3.510114309056897638e-03,-2.434380836366072456e-02
-1.974362225413588828e-02,4.572171874305074740e-02,3.384110160718106775e-02
-9.039676068710680856e-02,-4.319149873618575303e-02,-2.314897356268820830e-02
-2.185684974331711383e-02,5.104423958588329147e-02,7.840175218218101150e-02
-3.547783621692670447e-02,3.140466688410938761e-02,-1.287871065402059444e-02
-2.452046494221118283e-02,5.122954096169531416e-03,1.175296771785793934e-02
5.310653362139041572e-02,-7.524203987968028362e-02,6.717993782991968366e-02
-2.000487216262903430e-03,-8.334882543753875661e-02,-4.499890584272938504e-02
9.988493569506669278e-02,2.577906132715740775e-02,-1.373930764775227291e-02
-7.116142852564010489e-03,-3.167019238734184849e-04,4.222593364357452028e-02
-2.138388347831290948e-02,-1.702251564523040578e-02,-1.051543742992458452e-02
6.193043391962423094e-02,-3.321638993627000491e-02,2.683970737243189606e-03
-6.124687090027763209e-03,1.022758814484912154e-01,5.397351110149475190e-02
1.411385966377410629e-02,-3.298866932362969073e-02,1.808824857281869647e-02
3.317618501820653737e-02,-1.154883344130826564e-02,4.433604649662706981e-02
-3.776620882026616305e-02,-2.780091316117822182e-03,-6.763187553640914729e-03
