accel_x (m/s^2),accel_y (m/s^2),accel_z (m/s^2)
1.014002693978474255e-04,4.982460931928360976e-05,-9.794368680727004062e+00
2.221551217939627494e-04,1.358523308147713621e-05,-9.793899372042645268e+00
2.184602048490792876e-04,1.502258917079948672e-05,-9.794037716347341771e+00
-1.069241864463880542e-04,-4.384520059025323379e-05,-9.794857429489628231e+00
-1.842225058138175333e-04,-5.296171388249473413e-05,-9.794198505657297105e+00
3.979312422911795095e-06,-2.746909454407067965e-05,-9.794992735983893084e+00
4.411795812081812859e-05,7.098455693615761603e-05,-9.794518193743842360e+00
4.328884246005515701e-05,-4.875208818560537374e-05,-9.794405374127197916e+00
-3.420427031075657970e-04,-1.857522943153181762e-04,-9.794245243920926214e+00
-1.558047482183315044e-04,-6.666704697138415648e-05,-9.794076431239837177e+00
1.651284499816475196e-04,-2.436636786083836532e-04,-9.794488391798772398e+00
-4.216222070280728766e-05,5.691715009935472552e-04,-9.795174896927296260e+00
2.591719608597515623e-04,8.410841927481076759e-05,-9.794564817680621260e+00
-1.325452235962816256e-04,1.098675407953805469e-04,-9.794732532019040150e+00
7.404012701642671661e-05,1.546510215252849525e-04,-9.794757194241508813e+00
4.020800461509973025e-05,1.418233797676397400e-04,-9.794183649039167605e+00
-2.018989304581584351e-04,-6.097159703236682054e-06,-9.794298416537058571e+00
1.131488351986204092e-04,6.704001754049292475e-05,-9.794519638848461440e+00
-9.935453038828033088e-05,1.201550655966863849e-04,-9.794291804128871348e+00
-1.982977914783884396e-05,-2.169888886120161810e-04,-9.794381672878836653e+00
9.704240197330011534e-05,1.868075778241316842e-04,-9.794822802416543794e+00
6.691527820173971339e-05,-4.373398492811526552e-05,-9.794499590748372952e+00
-1.909466372194634721e-04,-8.514894260246087983e-05,-9.794123451191973473e+00
3.492272714130218949e-05,8.071264859180004138e-05,-9.794458756247488296e+00
7.688320498126228586e-05,1.209672645225794548e-04,-9.794232828731878726e+00
-1.180153111990622615e-04,-1.989646037525373459e-04,-9.794144274961476881e+00
-1.144821986059577762e-04,-1.997479177183992768e-04,-9.794197369848770762e+00
-1.537287085978243542e-04,2.209698223189592958e-04,-9.794268096644440647e+00
-1.026838456046967846e-04,-1.288424555940687890e-04,-9.794176209003010669e+00
2.733524567620538334e-04,1.391239543565392465e-04,-9.794652281992277665e+00
-2.100604756506856794e-05,-4.019795382817254755e-05,-9.794639202274806777e+00
-1.185426437856558387e-04,-3.253622629942075947e-05,-9.794708975886495139e+00
6.470757851877327552e-06,2.146600135998404731e-04,-9.795030634691428872e+00
1.072580149233665336e-04,1.022591425099395838e-04,-9.794908690963918474e+00
-3.087059248532990265e-04,1.807178405326030507e-05,-9.794428872481086401e+00
1.253323184263449423e-04,2.538870333080494104e-04,-9.794625628589992417e+00
-2.108840871420411913e-04,1.962502385147087700e-04,-9.795018214492642983e+00
7.265235853199156137e-07,-1.611447175443720650e-04,-9.794624530131313733e+00
2.538966415222573911e-04,-6.681790642734379451e-05,-9.794353831843526592e+00
-1.301597052853565911e-04,-6.166371485213887759e-05,-9.794447899747932951e+00
-2.389088734976640082e-04,1.437929115926270219e-04,-9.795099743951430682e+00
8.639611258485211699e-05,-1.181089619868393100e-04,-9.794438631682158558e+00
-8.629517676011080678e-05,1.181001449156836850e-04,-9.794570508850631185e+00
-9.713960681538555734e-05,-1.551831051123113321e-07,-9.794151333817383787e+00
-3.298833786785459440e-05,-1.178341111796939747e-04,-9.794203293910840102e+00
1.136086305445684091e-04,4.725528697919534527e-05,-9.794424049544042887e+00
9.531095458946543754e-05,4.752909490579014789e-05,-9.794641020400602471e+00
-1.399517072359175168e-05,-3.513383511650722165e-05,-9.794303078697030429e+00
-2.134936563948392635e-04,-3.669154115607960832e-05,-9.794509684674133965e+00
-3.454500775046229666e-04,1.045551103191833312e-04,-9.794131890445724409e+00
-1.000988076133557377e-04,-7.020584645772236481e-05,-9.794335149047157074e+00
-1.233108343387909916e-04,-2.590953345337187455e-04,-9.794345282957706900e+00
-2.064513640186453787e-04,-9.801977069219731421e-05,-9.794377371504845442e+00
-2.353260669853298294e-05,-3.897909317687925140e-05,-9.794902710169120397e+00
1.063378506984107171e-04,-1.865040215589726673e-04,-9.794959970282661743e+00
-8.352094524174021311e-05,1.402399192645794256e-04,-9.795211611240768335e+00
1.355814472906944344e-04,-2.217494931301165013e-04,-9.794510862460027667e+00
6.890146906435706809e-05,2.197136185289373124e-04,-9.793951522721503267e+00
5.119888793352021512e-05,-9.620137384214728460e-05,-9.795181970934210725e+00
5.972668238491446597e-06,7.940279415566261427e-05,-9.794589671154120936e+00
-2.629730749537619516e-04,3.176642392204842417e-04,-9.794767853731915608e+00
6.325723149433068405e-05,-3.805420966590616965e-07,-9.794939181396072669e+00
-1.848317496616550654e-04,-9.824332430973481639e-05,-9.794657229534180942e+00
-2.407259626904422118e-04,3.485155352955439270e-04,-9.794394617346286580e+00
2.631857227377419023e-05,-1.393512192298331409e-04,-9.794935183162074566e+00
1.265263019053577704e-04,-1.147259556902112236e-04,-9.794731863655741222e+00
2.194530865349976338e-04,1.651577616406472570e-04,-9.794862550546765689e+00
3.847065189285625141e-04,-3.277235589779521749e-04,-9.794625361222633941e+00
-1.581488102135644974e-04,1.844467501212515201e-04,-9.794550926113490874e+00
1.924641245079979998e-05,4.580217108240818035e-04,-9.794012255023819336e+00
1.470758766784340953e-04,-3.080730816293779156e-04,-9.794670678522953366e+00
-1.845858948471803727e-04,4.277200702383132170e-05,-9.794529143057685516e+00
9.987226527178975910e-05,1.089950822966967290e-04,-9.794912897882174008e+00
-3.400899199389265928e-05,5.261979146425114183e-04,-9.794518387260501058e+00
1.396774748389428215e-04,1.444642305846435739e-04,-9.794988881914623136e+00
-4.205924167999880382e-04,4.175202714547829823e-05,-9.794987323787591293e+00
-5.257357017066757640e-05,3.257469077786525084e-04,-9.794228901642027196e+00
-7.609096815747472048e-05,-1.894556633805360448e-04,-9.794334686451083627e+00
1.407141694728975836e-05,-5.781155113359498499e-05,-9.794754029409471485e+00
-2.493515439273489946e-04,-6.106736415780340257e-05,-9.794061176519594625e+00
1.046332135802517638e-04,7.177021205954615078e-05,-9.794677507593753774e+00
4.751954310671364467e-05,-5.144606368157940033e-05,-9.795056602236000387e+00
1.654255606278697056e-05,-1.438101329687640584e-04,-9.794117604572340596e+00
1.727447818678580396e-04,-4.086844227956834689e-06,-9.794921634212588657e+00
1.318087995458752497e-04,-9.428895969437694851e-05,-9.794862203304070647e+00
-1.453397138843956612e-04,-5.434152021276704230e-05,-9.794537331893264920e+00
1.829133144613288452e-04,-1.397895804514132252e-04,-9.793899918214506783e+00
1.451351176443166368e-04,1.855976992730887863e-05,-9.794653669208059910e+00
-1.372817696187739861e-04,-2.285814704990229605e-04,-9.794639552553595863e+00
1.884682816467344097e-05,2.031284823529355449e-04,-9.794847221694331196e+00
-2.135638340667255451e-04,-4.189489068545374688e-04,-9.794241559439070599e+00
1.282854006332739881e-04,-1.170151496023968940e-04,-9.794419596834076813e+00
-1.277137520800967693e-04,-4.543436687317298868e-04,-9.795085838168667181e+00
-1.789037385525535915e-04,-1.629651679952172881e-04,-9.794854744303034266e+00
-1.011990150972983077e-04,-1.582279589267117869e-04,-9.794881295258132781e+00
8.276407124074195256e-05,-5.284821978583369054e-05,-9.795077920022077222e+00
-2.317742156551911268e-04,2.160487984839871978e-04,-9.794676379471734862e+00
-4.320691311484692407e-04,2.029887229042012645e-05,-9.794294737902452752e+00
-8.332971559580909114e-05,-1.366466039193402692e-04,-9.794270972143438669e+00
1.835622952458099665e-04,-2.855488658993826298e-04,-9.794110058204040570e+00
-9.546400823793021453e-05,-2.631643614246227095e-05,-9.794675589135763971e+00
2.028901423793995069e-05,1.054301927466382694e-04,-9.794511878775105984e+00
-8.425437421824685455e-05,-3.866185595920695721e-05,-9.794456228742362214e+00
-1.910150794685367586e-04,-4.058030809591708899e-04,-9.795135197202332833e+00
2.052391848370950294e-04,-1.649513925759985510e-04,-9.794573023399577139e+00
5.424075814417360255e-05,-1.825236126998982774e-04,-9.794574835480023722e+00
5.144913275267916997e-06,-2.465423039082984143e-04,-9.794638894231907145e+00
3.271467748576778055e-04,-1.834578675457676890e-04,-9.794120566277507933e+00
5.708938660834770006e-05,1.751062985389532835e-04,-9.794774179889758514e+00
1.376117154983964462e-04,2.903009822100329883e-04,-9.794369178292317457e+00
1.670340303200691960e-04,-1.193528954909119511e-04,-9.793794170833690416e+00
8.315453725130534388e-05,-1.749455578046874493e-04,-9.794746695948544968e+00
-1.598008154851095696e-04,9.250644314749752336e-05,-9.794564547771882346e+00
-1.460400366989246653e-04,-6.830438318816224651e-05,-9.794755000600680717e+00
-1.119680665643590283e-04,1.808502900423946408e-05,-9.794007120570826785e+00
-4.037915918005259260e-04,-4.082881567473278231e-04,-9.794631106754824401e+00
-2.059477467681114987e-05,-3.135667605742435454e-04,-9.794630616084488040e+00
2.035197207801011461e-04,8.780128348197908331e-05,-9.794413914303529367e+00
2.163083377234996073e-05,1.494972837433939967e-04,-9.793859095048899732e+00
-3.761675488930366865e-05,-1.466401519519776682e-05,-9.794155842116429866e+00
2.984337011144287959e-04,-2.846039108027383232e-04,-9.794598890436036598e+00
1.817075410265440137e-04,-7.531245459037627405e-05,-9.794619450746733236e+00
2.137059761866141969e-04,1.551319020173542041e-04,-9.794452263222044763e+00
-4.850020468657418807e-05,-3.055348103316794621e-05,-9.794506030918835648e+00
-2.271037845071832527e-05,7.493698882982207443e-06,-9.794605075298834507e+00
-2.665729775651584014e-05,-7.126020249197222427e-05,-9.794437716453444409e+00
1.542911086499081932e-04,-6.582219125565507908e-05,-9.794710715094199216e+00
2.532332255466753098e-04,-2.035969230223860966e-04,-9.794773176995303032e+00
-5.517126729043050231e-05,-3.956554553846990444e-04,-9.794400018996681112e+00
1.275288338906359754e-04,-2.054799616223499815e-05,-9.794613309075570484e+00
1.629563420873536323e-04,1.747966080064284461e-04,-9.794527262759032737e+00
-1.286764771898640791e-04,-2.859204702621093641e-04,-9.794366893137009811e+00
7.593873189016844231e-05,-8.940631843826001793e-05,-9.794699619974565508e+00
7.691931496624915396e-05,-1.274646380404481508e-04,-9.794413921993491812e+00
7.045884347356010308e-05,9.906975642417370108e-05,-9.795140796375861214e+00
-3.264760418573226441e-04,-1.028594415890911151e-05,-9.794651593655895994e+00
9.213207271521479513e-05,2.012459962615312952e-04,-9.794282361906995860e+00
6.851547703705283484e-05,2.294835150932328491e-04,-9.794535428522335607e+00
7.501011279938622062e-05,-2.086537998635880115e-04,-9.794994747881121455e+00
6.658733305688437683e-05,-3.832712897140757652e-05,-9.794474654173503936e+00
2.692740422299262182e-04,7.207156718257920469e-05,-9.795479115510246970e+00
2.078503505520516443e-04,1.921985949728093068e-04,-9.795044649378800372e+00
-4.147531977390439615e-05,-1.850213434969305278e-05,-9.794733924360574662e+00
2.356248626044975486e-04,-2.355360732972700303e-04,-9.794729978588605945e+00
5.894934872562894093e-05,-1.976579368849015817e-07,-9.794947178653460540e+00
-8.566994236049048611e-05,-1.865750815535779862e-04,-9.794835926486706867e+00
8.703649347212425900e-05,-6.758104251096992049e-06,-9.794421919753332872e+00
1.288123860699954030e-04,-5.181699125941350046e-06,-9.794871383942560072e+00
1.977340631037105719e-04,7.993836402628478938e-05,-9.794458889801754609e+00
-1.012115857183357750e-04,-4.599993811416988208e-04,-9.794177817391751972e+00
-2.549179418491413340e-04,-5.990727955265852259e-05,-9.794500671686353854e+00
-9.633694400316033027e-05,-1.408984055697780433e-04,-9.794542593989719492e+00
-1.359268679689488296e-04,4.323938808286505899e-06,-9.794948191342740529e+00
1.786172258764759987e-04,-1.126530040764456633e-04,-9.794672016120509639e+00
1.498342088989302473e-04,3.973595003479584472e-04,-9.794848164067644802e+00
-7.355546526454626011e-05,-6.194960122860646414e-05,-9.794401555661851333e+00
-2.065681656864515293e-04,-9.266167436633703652e-05,-9.794493425142666965e+00
-2.226582593799126305e-04,-2.873999591767215688e-07,-9.794870943509657479e+00
-1.549242033314401684e-04,-3.783132285701724815e-06,-9.794766731021724127e+00
-6.006344001825551939e-05,6.209566037363880946e-05,-9.794318864204502262e+00
5.490056593207258022e-05,1.268418302348583613e-04,-9.794449085382506581e+00
2.868979655814992932e-04,-2.750323938900827128e-05,-9.794595483871148645e+00
-1.008378074952441701e-04,-1.773825393418544858e-05,-9.794576463765320540e+00
2.803931340943696654e-05,-6.823765158659562350e-05,-9.794457637076952494e+00
-2.291609633522961095e-04,2.106630547586519167e-04,-9.794160483345297763e+00
1.271135122671799834e-05,1.576341419504384122e-04,-9.794681783010162235e+00
1.530283856820749671e-04,-9.846818295565593505e-05,-9.794231959207412075e+00
1.098543896141547635e-04,-2.272500320306226960e-04,-9.794609402793309272e+00
2.106236349804627476e-04,1.134760115571002331e-05,-9.794361847918862551e+00
2.153225544935963255e-04,-4.563506967441403250e-06,-9.794087222706313156e+00
-2.064430902875004055e-04,-2.996711481895252644e-04,-9.794634528897468329e+00
2.304436549372364316e-04,1.221475606358286901e-04,-9.794844187668875435e+00
-1.058305064632585605e-04,1.367393037382681319e-04,-9.794584839269720788e+00
2.553118695682661028e-05,1.203831466463641084e-06,-9.794565774163334737e+00
4.220180301883896270e-05,-1.485128532560830886e-04,-9.794531610687053913e+00
2.438019443570515750e-04,1.696655988049194095e-04,-9.794411528391675503e+00
-8.972526214548175662e-06,-1.461903846785001350e-04,-9.794558341723226036e+00
-6.632019710146426158e-05,-7.875870758104006611e-06,-9.794341687991982681e+00
-1.163102800542930589e-04,-2.564114661575861735e-04,-9.794584973451168963e+00
1.985453085296519989e-04,6.512918872395374772e-05,-9.794439253248491184e+00
2.322410659336258292e-04,2.782717682295925818e-06,-9.794968933534303090e+00
-2.682833482831245824e-04,-5.554101871527373824e-05,-9.794353685855035963e+00
-2.255089258681487741e-04,2.292815596884064088e-05,-9.794204576681959651e+00
-2.925615523118421215e-05,-1.432030960609301023e-04,-9.794536946992893789e+00
-2.791357071708795023e-05,1.435367387321265936e-04,-9.794864569102593066e+00
-7.577248618011966909e-06,-7.388575754713434471e-05,-9.794667143092956607e+00
3.955966307923340685e-04,-1.239816362563434194e-05,-9.794332353253254908e+00
-1.572759050195052613e-04,-2.477913983635063799e-04,-9.794793964382305873e+00
-7.894180608228558492e-05,-6.129331984903417789e-05,-9.794412216707399921e+00
-2.389634514714507687e-04,-2.144877310347773308e-04,-9.795069937565303420e+00
-9.380570452058108904e-05,-2.378444694746338324e-04,-9.794669786244798004e+00
2.123432707855617350e-04,-1.858293827794819518e-04,-9.794338039848058841e+00
7.241906318731353987e-06,1.233037997970206669e-05,-9.793993494529267707e+00
-1.129426101130507151e-04,4.870912094966416757e-05,-9.794361245385466930e+00
-1.656157314220752018e-04,-1.217517657086691121e-04,-9.795108538460691960e+00
-2.803666947409113950e-06,-1.393306540991796688e-04,-9.794379710438164466e+00
4.277192609093249091e-05,1.024807569684447621e-04,-9.794862742815368506e+00
-1.260221890836792633e-04,-4.990454009512476367e-06,-9.794266071442265797e+00
-1.666936858607707224e-04,-1.617594158655949791e-04,-9.794632967407020274e+00
1.774537593409198104e-04,-1.880589305206951185e-04,-9.794140640791789920e+00
5.976614718588548549e-05,-1.231841522879299658e-04,-9.794400340550486916e+00
-7.075387427779304484e-06,-9.092738174048871239e-05,-9.794307830771373347e+00
-1.132745252262249525e-04,-2.252220802727590543e-05,-9.794280986701458858e+00
1.844753338287968792e-04,-3.782297944931813256e-06,-9.793878759150967284e+00
3.388403295766808624e-04,2.244618258190398785e-04,-9.794486088394661394e+00
-2.625946468992607216e-04,-1.305656242061577579e-04,-9.794268553327265536e+00
2.079946997348925341e-04,-8.966386777953347809e-05,-9.794257808709414093e+00
6.557697677425740801e-05,-1.872478076982297826e-04,-9.794924784193886680e+00
-4.767297180782827440e-05,-2.099872835612584792e-04,-9.794439994988636045e+00
-2.462067732768557496e-04,-3.784841215801128023e-05,-9.793997574841165843e+00
2.696745710197782824e-05,1.195550078541013513e-04,-9.794657301956302575e+00
1.289757133700987284e-04,-2.068990648842946320e-04,-9.794344713570678707e+00
-2.671532486170574510e-04,-2.920119153322980280e-04,-9.794158635599949037e+00
7.542022269656647549e-05,-2.215373551044491044e-05,-9.793949257531160413e+00
-2.530863900207049370e-04,-2.048174734017728209e-04,-9.794087359653575575e+00
4.037849015878846128e-05,-9.295960169697432460e-05,-9.794347787976738218e+00
-5.571937858499303255e-05,-2.433909506168250160e-04,-9.794575957383560905e+00
2.959716934355134942e-05,-8.468507162215709136e-05,-9.794266983473223220e+00
4.417032458817257831e-04,-1.251466721952235802e-04,-9.794377453755270579e+00
-1.052799321298561501e-04,-1.504784671491947933e-04,-9.794327700605716558e+00
-2.914106343410782307e-04,-7.263664904944296227e-05,-9.794431393627615279e+00
1.145372997020274009e-05,3.929629766153080425e-05,-9.795435104900793277e+00
-1.267243074103555143e-04,3.547205939372903463e-04,-9.795057663388318403e+00
-1.998540534054285859e-04,-1.432696418656779721e-04,-9.794729059474812871e+00
-1.644894958044776029e-05,5.634609262534024445e-05,-9.794431063551710892e+00
1.597356366414530849e-04,-9.164362370993868012e-05,-9.794622097883717515e+00
2.156891181260563281e-04,-1.426553906708351142e-04,-9.794478755353976496e+00
1.787133333048452255e-04,-1.942549323509153993e-04,-9.794364710234310323e+00
-1.490818287436625265e-04,7.508983959881060336e-06,-9.794130818932146099e+00
-3.716866474518449468e-06,-2.210587195526692895e-04,-9.794053520547377545e+00
-2.407367372462275478e-04,2.348057083964811902e-04,-9.794427536771411980e+00
-1.370490621414952460e-04,2.675770538018865195e-04,-9.794687421079020240e+00
3.513461084562492917e-04,-1.081352434244967807e-04,-9.794538144354710596e+00
9.163468904440986486e-05,-1.049470209058595460e-04,-9.793726879399711649e+00
3.807240758571958867e-04,2.040473541734261892e-04,-9.794843494965144615e+00
-2.028239434921076895e-04,-3.965454500412152780e-05,-9.794703776557449615e+00
-1.382701698794411510e-04,2.271451183177824594e-04,-9.794194046029312872e+00
1.090996810840291748e-04,1.206598316420198958e-04,-9.794428175938312719e+00
6.637319989535519162e-06,3.158822285585309564e-04,-9.795196475491449561e+00
-2.129832518897966493e-05,2.608522454576466692e-04,-9.794006261174478922e+00
-3.695407444544665943e-05,4.695064433906741524e-05,-9.794736108168718758e+00
8.032713135143105285e-05,-1.943884156571241268e-04,-9.794465448690674592e+00
-2.203577773710850291e-04,-1.195345805081444003e-04,-9.794649390434878811e+00
-1.803825127627522160e-04,-1.766612572146226154e-04,-9.794778903641962131e+00
-1.145426669054028658e-04,1.604616406038987108e-04,-9.794680424344743841e+00
1.041269861693587179e-05,-1.618708402565189252e-04,-9.793507410608187413e+00
-3.309892378869320074e-04,2.983632207994736511e-04,-9.794542500709855659e+00
9.773643345153191066e-05,-1.736795159562677974e-04,-9.794444734249129425e+00
-1.133465327997645623e-04,-1.656108286378683728e-04,-9.794789993778650228e+00
-4.284067528359879711e-05,-2.389277284861912088e-04,-9.794636382759383864e+00
-8.350379021057381809e-05,8.131051979383292761e-05,-9.794447119319654504e+00
1.032141465193807530e-04,-1.501961208522623980e-04,-9.794863653305707629e+00
-2.006243008708096800e-04,-1.038371849244114996e-05,-9.794565190720351922e+00
-3.926526044145202312e-04,-1.653109809969158630e-04,-9.794956098977911196e+00
5.247051479774158281e-05,-9.619318984694744004e-05,-9.794423802567902015e+00
2.853636304637345621e-04,-2.215403990113519505e-04,-9.794497690293727743e+00
3.065224754418477334e-05,5.516576626704452444e-05,-9.794460812903885483e+00
-5.661353136608780322e-06,8.258247192794319612e-06,-9.794502839305604169e+00
-1.548007520375617495e-04,8.467307160648309306e-05,-9.794181069996868771e+00
9.182206455547915289e-06,1.314915928997646832e-05,-9.794267173604390919e+00
-4.222200154214352533e-05,8.163285741316505140e-05,-9.794601826785397591e+00
1.884537509436533633e-04,-8.876912720860999568e-05,-9.794784952582785920e+00
-2.980420094870928980e-05,-6.464867597835178019e-05,-9.794886518458712388e+00
-2.751228101929669009e-04,-1.255891066353757748e-04,-9.794182548708759484e+00
2.199008438386989271e-04,-1.907080883446562883e-04,-9.794911048493050387e+00
-1.283660722276803361e-04,-1.268884725575761757e-06,-9.794920040170023157e+00
-4.472094885169236573e-05,-1.688947699527946090e-04,-9.794872075765933772e+00
-9.004415714714404279e-06,-1.001945513536788278e-04,-9.794490360599857226e+00
-9.477701581885858342e-05,-5.651851098519403464e-05,-9.794555355998143753e+00
-2.986915168491922462e-05,2.318910324700229129e-05,-9.795042394365466976e+00
3.418575689524686918e-05,3.021527168009303281e-04,-9.794855496718481547e+00
2.178271373593676139e-04,-4.899242343631856513e-06,-9.794486229723231574e+00
1.386129534967592573e-04,4.248796920521905334e-05,-9.794254741572698819e+00
8.999167774239000034e-05,-1.481557642119095679e-04,-9.794570037599712009e+00
-6.553818759147464338e-05,-1.357703310562087420e-04,-9.795064193708258315e+00
2.072721757904873814e-04,-8.914690852728240791e-05,-9.794189867859099508e+00
-1.029927273380179856e-04,1.897039452868921341e-04,-9.794765474841241826e+00
3.761117374665029625e-05,7.146410476622131152e-05,-9.794259635909360995e+00
1.167152373862593819e-04,-2.206308297554540501e-04,-9.794399992056630921e+00
1.471399632711554561e-04,5.958067201201393623e-05,-9.794454167941204048e+00
-1.679078230565215276e-04,-2.863200350097775846e-04,-9.794889735974361855e+00
-1.856178926850411302e-04,-1.753524587035524477e-04,-9.794633937002803492e+00
1.228954499685421171e-04,3.314882585939112937e-05,-9.794762020897771038e+00
4.506655818163583251e-05,6.029273525930889990e-05,-9.794647441368955043e+00
-2.219996514573722188e-04,-6.152883542522532049e-05,-9.794817038265168918e+00
-4.375189494503915251e-05,4.791021348131807280e-05,-9.794413039246844477e+00
2.371852494652851534e-04,-4.684884913901304676e-05,-9.794299528813720457e+00
2.574591276563737287e-04,1.743754648251997304e-04,-9.794764184727796419e+00
-1.335525718565277597e-05,2.771846357686633361e-04,-9.794766064200512545e+00
2.855192239730934643e-04,7.873768134789028690e-05,-9.794751675840041472e+00
1.977511279305535453e-04,5.238248071820009719e-05,-9.794494952605340643e+00
6.820857531554194589e-05,-1.853630492024995445e-04,-9.794539633109007326e+00
-5.398429471057286411e-05,3.529692872675328557e-04,-9.794620318654347457e+00
-2.821536820669850250e-05,2.086197292641380667e-04,-9.794736623914916507e+00
2.791626401379047960e-05,-6.753258603085175163e-05,-9.794265245445657797e+00
-1.304728314413040912e-04,-1.771952526538616451e-04,-9.794546511431560631e+00
1.695241179925321116e-04,-1.574113109692881762e-04,-9.794427018902391424e+00
-2.911066846565104824e-05,-2.304962390675414083e-04,-9.794171724352798591e+00
-5.399075823904781889e-05,-1.361319743430239348e-04,-9.794379733882314198e+00
3.390592232369394124e-04,7.889949675904298998e-05,-9.794474199719367391e+00
1.353883570367670087e-05,-1.527599883290985800e-04,-9.794547207970106584e+00
-1.580055199654324346e-04,2.801227994188758221e-04,-9.794541632747991500e+00
-2.014082900674400722e-04,2.240521247050319002e-05,-9.794768648267178079e+00
-4.406691018628092627e-05,-2.023652330694934785e-04,-9.794277801686389395e+00
-1.459007049132135167e-04,-1.714217480440926222e-04,-9.795408590437185481e+00
-6.673258755597530616e-05,6.178626619076853200e-05,-9.794681794008365472e+00
-2.227540882233277069e-05,1.863411665376612895e-04,-9.793892474034199935e+00
1.516447748204946165e-04,8.782032026876576811e-05,-9.794483578133581503e+00
-1.203702616956911601e-04,-1.132912964475787888e-04,-9.794734452769029431e+00
1.577659888246960116e-04,-1.550469323296624401e-04,-9.794185920425547920e+00
-1.916517165613275116e-04,-1.441445099088300790e-04,-9.795100205401354287e+00
-1.916226037729196435e-04,3.090603847760404961e-05,-9.794707625973799736e+00
-9.392776643711190721e-05,3.182913441922772244e-04,-9.794397958664704973e+00
2.075072130946900163e-05,2.321772129042377745e-04,-9.794978790568977800e+00
-6.984089622623489027e-05,-1.118194856696168765e-04,-9.794324854056267071e+00
-5.476925250521164903e-05,4.537608350266672975e-05,-9.794247143414429146e+00
1.289200376629965879e-04,6.456993420258555396e-05,-9.794121460237946053e+00
1.350069502446943879e-04,2.254433803052801634e-04,-9.795023040495406619e+00
2.522633112082142215e-04,1.355637434777952550e-04,-9.794401258448550252e+00
-2.194663943610677839e-04,6.575958983576260769e-05,-9.794230224637310300e+00
1.337149415383935569e-04,2.867755078174806028e-05,-9.794990747835727873e+00
-1.090543194129801621e-07,7.427167183597070687e-05,-9.794319723960139612e+00
-1.864737052350069367e-04,1.564721971205846075e-05,-9.794667753547514621e+00
-1.230807399039009729e-04,-5.854582892475876507e-05,-9.794398174895158959e+00
1.921098461230727971e-04,1.762706757289453103e-04,-9.794322124360441251e+00
2.414957837286272615e-04,1.568668467484511122e-04,-9.794446493118785568e+00
-8.836791717128855900e-06,-5.831973659814358648e-05,-9.794669667509165123e+00
-2.095667944480170890e-04,7.803191013355215383e-05,-9.794792873689438295e+00
2.383289792266824597e-04,-4.023655070717522094e-05,-9.794919863822928008e+00
6.448633501730302163e-05,-6.548978772535023586e-05,-9.794733763181783459e+00
1.218437450303015772e-04,-1.045588333898724362e-04,-9.794125006942252298e+00
1.485433406004767003e-04,2.197568699180626757e-04,-9.794123381073111645e+00
-2.665997137312303266e-04,2.235678802741445815e-05,-9.794809920899696820e+00
-1.157296614840493690e-04,-1.032622598658496386e-04,-9.794710510936583958e+00
-5.452855409620871181e-05,-3.971355440411260853e-05,-9.794870166754240159e+00
-2.755017924966469099e-04,-2.362902538964121437e-04,-9.794280158963722727e+00
2.975487003248331367e-05,-2.272839082636379912e-04,-9.794759703717355492e+00
-1.906776028781604162e-04,7.514442847001307499e-05,-9.794246482499938011e+00
9.689567164578017072e-05,2.129404587243166676e-05,-9.794660856588052411e+00
2.146377032886287483e-04,2.119591041092735715e-05,-9.793907344660945924e+00
-1.555442297101654672e-04,1.659666691720481800e-04,-9.794258264516008339e+00
1.625018179382418579e-04,1.337512621780823522e-05,-9.794230733504862840e+00
-1.904470924932617759e-04,1.898102326243737302e-04,-9.794967462833843896e+00
1.372560215055920342e-05,2.393575921778404270e-05,-9.795445357913745710e+00
-1.367231709525110162e-04,3.710766858876162573e-04,-9.794591867371041261e+00
-1.632031212816300052e-04,4.405345427373825637e-04,-9.795377743021912664e+00
8.011172292038873225e-05,1.994721239216625674e-05,-9.794736836524617019e+00
1.750973494037742724e-05,7.089722037684509121e-05,-9.794072624812068639e+00
1.420117213611107843e-04,1.581662272418424796e-04,-9.794682748147844009e+00
1.622936238188645789e-04,2.341688094921608279e-05,-9.795809303324606532e+00
-2.959901661981742993e-04,-4.343015525224740771e-05,-9.795030579439941931e+00
1.191276324390586966e-04,-2.151748220313324860e-04,-9.794620407249489347e+00
-1.027413687511220558e-04,1.762402977754804682e-04,-9.795011516330367485e+00
2.287307817648931505e-04,-1.271279354913977977e-04,-9.795279031564854577e+00
8.811006618268634719e-05,2.249386944628157517e-05,-9.794439948598910206e+00
1.046146690563695361e-04,9.972277973971537305e-05,-9.793550407302083372e+00
1.303985385374335814e-04,-5.134182693487179675e-05,-9.794731909300097072e+00
-9.271075091509643220e-05,1.713821406593612541e-04,-9.793890271549132720e+00
-1.405599334186797760e-05,-8.652859160748329411e-05,-9.794306513798838765e+00
1.576389386772304377e-04,1.928309814766280606e-04,-9.795279197293904616e+00
-2.243881440746451250e-04,-1.469637956991614355e-04,-9.794578925721948437e+00
1.269008579288976235e-04,1.586607775981148339e-04,-9.794319180027368787e+00
1.833403215204400629e-04,-1.218419926952652241e-04,-9.794089547004354301e+00
2.084135598755686072e-04,6.666415517902118731e-05,-9.795212501408773420e+00
2.028590349757050074e-04,3.829794322440904894e-04,-9.795157021227673511e+00
-2.400411019486916231e-04,3.569896193672229216e-04,-9.793857627575409452e+00
9.640088401667594095e-05,-6.212572207987894133e-05,-9.794577354891988108e+00
1.319167914253856102e-04,1.053852397653687545e-04,-9.794934625429524644e+00
1.027770169607949329e-04,-6.702862726309046404e-05,-9.793996462856551233e+00
-1.940539913664396984e-04,2.725899875761896241e-05,-9.794867450044220547e+00
1.516829595243196342e-04,-5.775056011027181050e-05,-9.794101816676839434e+00
-1.357879092429508478e-04,-1.877405140655318298e-04,-9.794570916190084020e+00
-5.917167130724730552e-05,-2.478639730720198607e-05,-9.794666473695157194e+00
-3.145032585033818344e-04,2.614363745416145015e-04,-9.794180604151259573e+00
1.086404919479384574e-04,1.645273625582835040e-04,-9.794608113184066767e+00
-6.253450358457639084e-05,-1.354349056348510790e-04,-9.794538885522792171e+00
2.808075658291144623e-04,-9.281834422210019642e-05,-9.795016071162606863e+00
6.866305823003126678e-06,-1.105117773324678535e-06,-9.794276758084889067e+00
3.851844163053896875e-04,-1.367680001274728502e-04,-9.794598976697736603e+00
9.144743647444738546e-05,7.875133309393950762e-05,-9.795188393920899017e+00
1.384892212281504482e-05,1.058794009559452920e-04,-9.794475494888404299e+00
-1.082343989325135365e-04,4.980365156180513073e-05,-9.794591345217057210e+00
-5.266247626584083687e-05,1.758633030320482459e-04,-9.793951277745003736e+00
-1.950275875702117115e-04,1.255198858831542029e-04,-9.795012841462561681e+00
2.451843664427196087e-04,3.116871757750498966e-04,-9.795032341984754254e+00
-2.017656777065292316e-04,-9.867070700012437788e-06,-9.794970070604811951e+00
-1.168056196534430222e-04,-2.756104539201388072e-05,-9.794544168829411035e+00
6.699171503927263383e-05,1.230147190627365846e-04,-9.794124455936300322e+00
-4.638457597003625428e-05,-3.415289277029578160e-05,-9.794483826670903781e+00
2.899184732742610948e-06,-1.214429756035856638e-04,-9.794414208535256350e+00
1.876112471439719440e-04,-2.186841003285299844e-04,-9.794259893929703864e+00
-1.930687790284704643e-04,2.102164683032857962e-06,-9.794292150050688761e+00
-2.459940207787801415e-05,3.443702118606762578e-05,-9.794545140976332220e+00
-1.774105916584280314e-04,-3.020748288706468095e-04,-9.794088273129734290e+00
-2.435196464700666984e-04,-1.398382967742465199e-04,-9.794738712191303875e+00
5.192602830544575300e-05,1.159369269613055479e-04,-9.794946582478397445e+00
-1.034813088920219130e-04,-1.392917880460523418e-04,-9.794353777427559749e+00
6.104382129198104303e-05,3.525251386060418765e-05,-9.794548878513223755e+00
4.624090266668533336e-05,-2.934878225748106519e-05,-9.794642697540695053e+00
-1.206809079161416583e-04,-1.287176337842329751e-04,-9.794723098181599141e+00
2.969176456894052126e-04,-3.394518534781074961e-05,-9.794396273884517612e+00
-3.698575953155489114e-05,8.159345547581658487e-06,-9.795000880746574268e+00
8.732340678707933986e-05,5.394434434514573770e-05,-9.794417190480597668e+00
-1.690303985892774687e-05,-6.266351798969943890e-05,-9.794307014841175274e+00
-2.362462811290755727e-04,1.379513915667903660e-04,-9.794928011252736155e+00
-9.238274427048074678e-05,1.603237319518806465e-04,-9.794939536655691725e+00
7.108768882074954971e-05,-1.389787122468407940e-04,-9.794749330696312484e+00
3.642187356654196835e-05,1.975205766057493866e-04,-9.794694791960004920e+00
3.419277390221109862e-06,2.636506621022563610e-04,-9.794551320442904441e+00
3.978510224900216549e-05,1.929307190367686952e-04,-9.794441520446278915e+00
-2.196664095257166698e-05,7.759851410629483280e-05,-9.794713068223822816e+00
3.655923275677896577e-05,-1.722800406102392557e-05,-9.794184391546624013e+00
1.022544977314275596e-05,2.818932183013925415e-06,-9.794804142700932914e+00
-7.597246990527475652e-06,2.275758533545855513e-04,-9.794813382138421787e+00
-1.396587866229357310e-04,8.106677494610976429e-05,-9.794617529534036748e+00
-5.385461412946328306e-05,8.058356629112752695e-07,-9.794456995379132280e+00
1.314281255207353049e-05,-3.034469304984620491e-04,-9.794749116397962752e+00
2.501125513764626963e-04,-3.535574660662634531e-05,-9.794315785436916499e+00
2.926138759748771873e-05,-1.641674943384516857e-04,-9.794587705192423499e+00
-2.664495428052617671e-04,7.011676041487487055e-05,-9.794631842300519864e+00
-2.907840087608186354e-05,1.077765802755722415e-04,-9.794277034783105407e+00
1.252029168903057437e-04,3.814301671952863824e-05,-9.794608859093084874e+00
2.218072404409370435e-05,-8.649118398379985703e-05,-9.794394574765121320e+00
1.521238839425005152e-04,1.621260738968205805e-05,-9.794587186562914383e+00
-3.806132459473056357e-05,1.349443545865062761e-04,-9.795072393532391786e+00
2.691851534669910330e-04,-1.463214412657974043e-04,-9.794398864247380487e+00
2.599604709571244794e-04,1.067945614840979393e-04,-9.794731734656712874e+00
1.631241875956399419e-05,1.054949908988498064e-04,-9.794454343279074493e+00
1.181663002873304627e-04,-1.317971945769343838e-04,-9.794093432164897806e+00
2.116214750415023899e-04,5.404661609027707880e-05,-9.794372068560472044e+00
-2.464917034659103558e-04,7.295161172701480055e-05,-9.795111457383947950e+00
4.616311509378290474e-05,5.814511260699534271e-05,-9.794423356631714483e+00
-2.366698792787999778e-04,2.055020372758952461e-04,-9.794403096216123927e+00
7.633578288393428246e-05,-4.701569628088748932e-05,-9.794698961971487705e+00
2.867615486068348339e-04,4.689003023827579116e-05,-9.794741956247365877e+00
-2.404213065809587206e-04,-1.851019526901983116e-04,-9.794360888324900927e+00
1.280304362767949698e-04,-6.391404331878934976e-05,-9.795103346022695945e+00
7.455119868534374264e-05,-1.355126985243443642e-04,-9.794531193389735435e+00
-4.362657677384359605e-05,-2.079332053353772172e-04,-9.794852174004150314e+00
4.523147731159150436e-05,5.010823895367802711e-05,-9.794613553185746113e+00
-1.510168173901796221e-04,9.449851181494878260e-05,-9.794633260267586294e+00
2.238787556474066537e-04,-3.054994177335535149e-04,-9.794532833897047652e+00
2.381917504434019020e-04,1.325303194204796836e-04,-9.794674872962449541e+00
6.473501248271517489e-05,9.715136249442620506e-05,-9.794534293234191225e+00
-7.465043812892536361e-05,-7.291279716805748557e-05,-9.794480714971317781e+00
-1.538896847051796155e-04,-1.530510828007337941e-04,-9.794798334660619332e+00
1.102248775955876520e-04,5.591926076617816603e-05,-9.794431960053485042e+00
-2.534278112391824631e-04,1.690720513919517938e-04,-9.793689962361588286e+00
5.659175608600702291e-05,-9.007460842043285532e-05,-9.794347218299796154e+00
1.793826397667372928e-04,-1.258182092033577966e-04,-9.794302464730016311e+00
-1.212148494025046535e-04,2.454571459519251111e-04,-9.794575605145897867e+00
1.491633369525272761e-04,-1.105268666911030459e-04,-9.794918082272232596e+00
-1.424484013577391873e-04,-6.696855515975867214e-05,-9.794123429764058031e+00
-5.996586921282871346e-05,-2.372693257528777917e-04,-9.793950384548006483e+00
6.961843430118331037e-05,-1.629266215934268821e-04,-9.794331214408970254e+00
1.385387792048245318e-04,-7.638310250826049644e-05,-9.795295219445094403e+00
4.149575141953099658e-05,3.750353379288837993e-05,-9.794500768605265861e+00
1.411337702216264604e-04,3.382761166422527531e-04,-9.794155457399053688e+00
-3.416961384624754832e-04,6.684475233576950097e-05,-9.794615287462642428e+00
-1.189757112552758183e-04,3.548279608367483772e-04,-9.794760257346935006e+00
-1.499982114831254550e-04,8.889582454895787473e-05,-9.794603163602207729e+00
-3.886482650226219136e-04,-8.567982813639373352e-05,-9.794320612322568564e+00
-1.816220980666831007e-04,1.209511401184153255e-04,-9.794327646162461321e+00
1.427252862886978127e-04,1.546651355940099621e-04,-9.794599908984038095e+00
-1.049205447599634624e-04,5.274124381922625838e-05,-9.794835329326467388e+00
-5.789823894758081455e-06,6.876802117341175460e-05,-9.794275326440734730e+00
-1.907842833455057174e-04,-4.779344970148998936e-05,-9.794371459159036064e+00
2.761540904321113155e-04,5.131249789154455459e-05,-9.794021651185502719e+00
-2.683989171097929350e-04,-3.523303021434121468e-05,-9.794214728041287898e+00
1.882308338231393377e-04,-1.316020482468483751e-05,-9.795075810906162417e+00
6.420889471480044992e-05,-4.717286085715774300e-05,-9.794402239716800906e+00
-1.492271362845470288e-04,-5.252872775646669163e-05,-9.793911344705042765e+00
1.166397129442519264e-04,1.083910624997419807e-04,-9.794503353418841485e+00
1.807760978479158983e-05,-3.173569954691725630e-04,-9.794334857556927787e+00
-2.813851600271704873e-04,3.598801428454594635e-05,-9.793961004078727939e+00
1.217871856336874223e-04,-1.132318063475615168e-04,-9.794559413143900883e+00
3.295434505762614812e-04,1.416576729246321706e-04,-9.794645043588436906e+00
-1.653513994794553166e-04,3.665106048931142347e-04,-9.794510324210046193e+00
-2.765880191176468394e-04,3.831786653680666023e-04,-9.794479684062372016e+00
-9.586245947886593672e-05,-1.349589673353164673e-04,-9.795053031521426590e+00
-1.961286076522231387e-04,2.012245159286145922e-04,-9.794228938186874345e+00
-6.122026542710602129e-05,-9.867929060683024796e-05,-9.794357644624080095e+00
-1.237362416524780259e-04,-1.444197976960062961e-04,-9.794534302121592262e+00
9.128121995569193437e-05,-6.522903540273217312e-05,-9.794624094768860090e+00
1.695971062697072362e-04,1.698569649681854843e-04,-9.794873563988762299e+00
5.958338458430298396e-05,-9.599442339462281766e-05,-9.794160092821989849e+00
2.428416063363328012e-04,-3.196333447208686519e-04,-9.794575925755379942e+00
5.768597131277959108e-05,2.679913638024303496e-05,-9.794473105645771227e+00
9.204689350387286516e-05,-8.624417433407145350e-05,-9.795021093489090447e+00
1.772042653688674573e-04,-3.124020587949184052e-04,-9.794874719850543698e+00
2.503638859617155865e-04,-6.857193823201982106e-07,-9.794928180929030503e+00
-1.408449379308632612e-04,1.634611866301449582e-04,-9.795065408704882515e+00
-1.209910147899643590e-04,-4.181377377873882694e-04,-9.794780286988141071e+00
4.201434292706875107e-04,1.489662076857460387e-04,-9.794680652161577683e+00
1.639552409292744674e-04,4.434493884289529992e-05,-9.794192442318044201e+00
-1.378300379578658273e-04,9.624625270234984931e-05,-9.794455557683740210e+00
-2.303895721706661045e-04,-1.257337360010605501e-04,-9.794355759296813346e+00
1.752650324799042607e-04,-2.572817974555175195e-04,-9.794126484874439598e+00
-1.029402105255986498e-04,5.296012756455262308e-06,-9.794668302920380043e+00
1.527929918521787683e-04,1.243790446092689524e-04,-9.794103764301677728e+00
9.997131022455153504e-01,-1.232901142314236844e-04,-9.794797523579756415e+00
1.000686724219842949e+00,-3.302720316697386072e-04,-9.794606152630016993e+00
1.001310593062771703e+00,-1.271783878417920722e-03,-9.795287825306356666e+00
1.002724901101216926e+00,-2.393836769794578222e-03,-9.795309350651150382e+00
1.004963196514991441e+00,-3.885618709889728135e-03,-9.795856871675146849e+00
1.007542900499929450e+00,-5.641635977108739285e-03,-9.796068804094767657e+00
1.010339917094703832e+00,-7.734872025996764912e-03,-9.796774043575650737e+00
1.013718276402023832e+00,-9.700581116820818431e-03,-9.796502281999309503e+00
1.017700334500326376e+00,-1.232949499817807826e-02,-9.798060488863942652e+00
1.022177542680857920e+00,-1.494098439733367208e-02,-9.799452316218296488e+00
1.026654892302711231e+00,-1.776276805305287282e-02,-9.799811767592263578e+00
1.031902701522797949e+00,-2.035495846555805677e-02,-9.800461905462194423e+00
1.037498067184922768e+00,-2.320681154989517880e-02,-9.801511791587653732e+00
1.043054090992377114e+00,-2.686030617468757736e-02,-9.801768785181330657e+00
1.048975879788823340e+00,-2.966376113238483950e-02,-9.803281775413180910e+00
1.055309953955647861e+00,-3.315274779104572522e-02,-9.804330803748435130e+00
1.061844239055269368e+00,-3.620657342006149138e-02,-9.805271129530057195e+00
1.068620380169742479e+00,-3.995924547267416110e-02,-9.806418389981285344e+00
1.075093842907871355e+00,-4.376425725699861075e-02,-9.806695507530058364e+00
1.082067955214655708e+00,-4.747383445500937688e-02,-9.808074699000961516e+00
1.089114165994377714e+00,-5.086066385091585207e-02,-9.809272381691782172e+00
1.096062943976374271e+00,-5.485945251766995850e-02,-9.809207247833409582e+00
1.103148667155109175e+00,-5.823190322688961279e-02,-9.809970889021688123e+00
1.111128451080610313e+00,-6.187397497290549053e-02,-9.811318024931585668e+00
1.118437872389095089e+00,-6.573409771864456574e-02,-9.812279364891063338e+00
1.125793237826782756e+00,-6.986738235778346129e-02,-9.813219182489197223e+00
1.133501610077456423e+00,-7.361376330475422058e-02,-9.813060845393680509e+00
1.140584952896267934e+00,-7.725713917855296653e-02,-9.814259563383403773e+00
1.148189780712922881e+00,-8.113555496433287606e-02,-9.815266672916340696e+00
1.155940277359252422e+00,-8.536487682313137482e-02,-9.814861008361859263e+00
1.163413058677767564e+00,-8.864426986856180357e-02,-9.815197698777728519e+00
1.171307955989232097e+00,-9.280268870704977413e-02,-9.816197821263116907e+00
1.178873115929385262e+00,-9.657004638473697111e-02,-9.816884508882690596e+00
1.186652365789807595e+00,-9.995953063015435014e-02,-9.817769000345114350e+00
1.193988625821840621e+00,-1.038219890308925697e-01,-9.818027750683867794e+00
1.201520440096236264e+00,-1.079475897174860533e-01,-9.819464868963386550e+00
1.209476137998343637e+00,-1.118734861035394768e-01,-9.819426189790430470e+00
1.216812324871105799e+00,-1.158350564043208741e-01,-9.820376543577836514e+00
1.224313651785439161e+00,-1.195462339502320614e-01,-9.820535973724416223e+00
1.232392093028180424e+00,-1.234027777084793775e-01,-9.821070049888113829e+00
1.239228897002503604e+00,-1.267844991551113354e-01,-9.821903738972892484e+00
1.247394880157702612e+00,-1.304156998986379934e-01,-9.821844092344036881e+00
1.254832425075705249e+00,-1.343484154431376920e-01,-9.822759816670428634e+00
1.262055382369686951e+00,-1.381793251115705501e-01,-9.822802188388244815e+00
1.269252684069348103e+00,-1.423411394874901925e-01,-9.822953737410664132e+00
1.277006177573619894e+00,-1.456006948052956385e-01,-9.823787551519707506e+00
1.284174241359797630e+00,-1.490533480634796404e-01,-9.823890901530631936e+00
1.291484217310048699e+00,-1.529750954437099075e-01,-9.823790558751568369e+00
1.299265017949611911e+00,-1.564262034562942938e-01,-9.824241027144532623e+00
1.306420489568337118e+00,-1.604090554876480001e-01,-9.825174346897295408e+00
1.313441976822727897e+00,-1.639534916803140618e-01,-9.825018043181076521e+00
1.320662203372753973e+00,-1.674454823259301783e-01,-9.825170917236928148e+00
1.328384611268801585e+00,-1.712161556632370574e-01,-9.825836662280943656e+00
1.335372374293377185e+00,-1.747200840121628795e-01,-9.826294514536060731e+00
1.342314675187253004e+00,-1.781477125852806986e-01,-9.825936828449171045e+00
1.349593716483844075e+00,-1.822005196622763501e-01,-9.826563042713061691e+00
1.356949329874996168e+00,-1.856833382913445352e-01,-9.826123265320537925e+00
1.363883706731961132e+00,-1.888673469060292431e-01,-9.826638751006527173e+00
1.370741457404611952e+00,-1.922520292505254524e-01,-9.826668050531134568e+00
1.377529524551581508e+00,-1.958283425160710078e-01,-9.827260122763213701e+00
1.384807715918226378e+00,-1.995130689762114884e-01,-9.827247223424983247e+00
1.391841504109751382e+00,-2.027320317781005354e-01,-9.827147225143377796e+00
1.398240836994034009e+00,-2.063885443381316687e-01,-9.827542042369378450e+00
1.405202056439380121e+00,-2.097636064742049722e-01,-9.828279373386683559e+00
1.412346021724484535e+00,-2.132239827054217274e-01,-9.828022298019929437e+00
1.419050123358099436e+00,-2.163042168853041569e-01,-9.827786618575180100e+00
1.425684571003793533e+00,-2.196756635753995823e-01,-9.827810996743259864e+00
1.432409747121080823e+00,-2.231182916408294969e-01,-9.828464363323510256e+00
1.439265352246973384e+00,-2.264603458621939625e-01,-9.827947666495418844e+00
1.445858210629257679e+00,-2.298224363014094718e-01,-9.827947184784610712e+00
1.452594362182025423e+00,-2.332094053770651099e-01,-9.828070932827488448e+00
1.459071462372335759e+00,-2.363148800471705502e-01,-9.828382165677860272e+00
1.465696474618132905e+00,-2.399377068824453674e-01,-9.828414463986943517e+00
1.471994291195381832e+00,-2.428215213351446466e-01,-9.828189873307849211e+00
1.478761295888774585e+00,-2.460611800471242117e-01,-9.828840488845292711e+00
1.484971985330766575e+00,-2.490300159232983479e-01,-9.828604706921806766e+00
1.491189420271568089e+00,-2.526433282001491198e-01,-9.827788764355112505e+00
1.497904979063408026e+00,-2.557593807180340018e-01,-9.828828343708748250e+00
1.504095340489469246e+00,-2.587442813672326536e-01,-9.828695635770197114e+00
1.510992630086099853e+00,-2.622319473237494369e-01,-9.828508014542963522e+00
1.516717558879540295e+00,-2.651883670207609844e-01,-9.828534046040880767e+00
1.522934378882447204e+00,-2.687235147340532593e-01,-9.828952541789703901e+00
1.529258866469551004e+00,-2.713780780760083333e-01,-9.828052058072268338e+00
1.535449391423494792e+00,-2.742485032130558276e-01,-9.829055757032195473e+00
1.541566863131910159e+00,-2.772956697071770615e-01,-9.828271625975984804e+00
1.547755084363419353e+00,-2.807321450924595285e-01,-9.828203894751961656e+00
1.553692294661005002e+00,-2.834448612897069730e-01,-9.827982400809823105e+00
1.559617520436944904e+00,-2.865563182243166529e-01,-9.828396746144543172e+00
1.565683523655402754e+00,-2.894726350761241407e-01,-9.827667343182486803e+00
1.571815322848047591e+00,-2.926624696411201931e-01,-9.827375361864303827e+00
1.577696726822354290e+00,-2.953193648117996006e-01,-9.827984838595375194e+00
1.583557261898363766e+00,-2.985196401152283019e-01,-9.827774455200714243e+00
1.589505083388336848e+00,-3.013372090903048139e-01,-9.827205993300935916e+00
1.595310003762651530e+00,-3.042166520052351220e-01,-9.827456932372967913e+00
1.601119518200205150e+00,-3.072182162049525989e-01,-9.827808256937991871e+00
1.607191544513304926e+00,-3.100730783054244100e-01,-9.826906960182009598e+00
1.612892551847277423e+00,-3.128615063258639584e-01,-9.826773285792375745e+00
1.618529831958828380e+00,-3.157642108025985328e-01,-9.827080766691439706e+00
1.624372598882020569e+00,-3.186466496572031293e-01,-9.825919887617645898e+00
1.630128146805201572e+00,-3.216957364943700548e-01,-9.826647194425019549e+00
1.635890035802273434e+00,-3.241552664693604369e-01,-9.826543758148028829e+00
1.641310699371473225e+00,-3.271083731271863249e-01,-9.825170228203431222e+00
1.646907621120484277e+00,-3.300193675468152676e-01,-9.825680667509566035e+00
1.652485767539430439e+00,-3.326401427115011078e-01,-9.825404539154646955e+00
1.657985363205927376e+00,-3.352948885140311086e-01,-9.825347734523047549e+00
1.663473051273102854e+00,-3.379667931901536582e-01,-9.824889823228655672e+00
1.669002915623191363e+00,-3.407796798752588674e-01,-9.824477689968562188e+00
1.674759828019839025e+00,-3.436673398038753713e-01,-9.824600124006213520e+00
1.679676360240844213e+00,-3.460616964054826772e-01,-9.824579239097920080e+00
1.685389002694218208e+00,-3.486745436115596952e-01,-9.824374844993386091e+00
1.690347811836048653e+00,-3.512637457596391455e-01,-9.824332337939093662e+00
1.696111771034075622e+00,-3.542504395838667608e-01,-9.824070009974725792e+00
1.701039438558047623e+00,-3.568728242358079061e-01,-9.823643173787449001e+00
1.706301754577243868e+00,-3.593429709783017012e-01,-9.822719168565031467e+00
1.711657407650364560e+00,-3.621208714791787076e-01,-9.823059100957969747e+00
1.716920761125371619e+00,-3.646485613738746911e-01,-9.822457466131673698e+00
1.722455119777794197e+00,-3.671965844311979033e-01,-9.822461253285419858e+00
1.727088250557238913e+00,-3.697889836043599665e-01,-9.822408163930091973e+00
1.732697329617770343e+00,-3.721954778979513767e-01,-9.821668106548459676e+00
1.737899136946033707e+00,-3.749333577494780578e-01,-9.822119644765223256e+00
1.742800371816764837e+00,-3.774297924678291505e-01,-9.821383205687789442e+00
1.747521718789680101e+00,-3.799684326777292842e-01,-9.820937989121887313e+00
1.752680870223404908e+00,-3.827219675555783018e-01,-9.820360158298601760e+00
1.757794594395575283e+00,-3.850606063516509026e-01,-9.820050512868906623e+00
1.762694803853034564e+00,-3.874888523287817188e-01,-9.819924730415094061e+00
1.767723632558265701e+00,-3.901895923988060177e-01,-9.819839867539412737e+00
1.772521163157749324e+00,-3.922667138468643455e-01,-9.819433395602665371e+00
1.777522860316112840e+00,-3.948952949195450590e-01,-9.818588879138916425e+00
1.782628297759685010e+00,-3.972329808947488439e-01,-9.818794700691308108e+00
1.787070699805973106e+00,-3.996405281747907878e-01,-9.818843589092216106e+00
1.792024579717448107e+00,-4.019659475090726075e-01,-9.818118644867933398e+00
1.796628213569987365e+00,-4.043934480896602679e-01,-9.817405134055542604e+00
1.801717595383410364e+00,-4.067708845096237869e-01,-9.817365727659913333e+00
1.806386136650507401e+00,-4.090221192627923608e-01,-9.816752401784652804e+00
1.810978190597037019e+00,-4.112371181529071440e-01,-9.817152237652621238e+00
1.815864369503818354e+00,-4.134111122180758602e-01,-9.816452635765411827e+00
1.820581953121836793e+00,-4.157120231523178666e-01,-9.816827483148051314e+00
1.825197828686324630e+00,-4.185452122905455874e-01,-9.815746347275254635e+00
1.829681393591856997e+00,-4.206099010449705355e-01,-9.815189537098193640e+00
1.834471091590728076e+00,-4.232900210265517771e-01,-9.815233082764512673e+00
1.838921147493598918e+00,-4.250686216451718402e-01,-9.814138991808684764e+00
1.843487073501386408e+00,-4.274528489240639884e-01,-9.814282238275685799e+00
1.847615834847147864e+00,-4.298343462807314719e-01,-9.813680104040221508e+00
1.852458877130324089e+00,-4.316906555204892415e-01,-9.813457969343781784e+00
1.856996506925246537e+00,-4.341777485701710515e-01,-9.812788040726410088e+00
1.861207319454423192e+00,-4.362110412004042703e-01,-9.812609216096189968e+00
1.865796844992379411e+00,-4.383556061463546039e-01,-9.812551303143177250e+00
1.870160785847261087e+00,-4.406807828814298111e-01,-9.812298220927109682e+00
1.874529860860054242e+00,-4.425976419125147165e-01,-9.811197506297542503e+00
1.878639917881135712e+00,-4.450398270084599539e-01,-9.811120356344819271e+00
1.883547984099771311e+00,-4.471196979846434605e-01,-9.809815239131081555e+00
1.887587923476982343e+00,-4.491906465412819349e-01,-9.809426778870150798e+00
1.891879551554748851e+00,-4.514361974291736801e-01,-9.810121589974130529e+00
1.896129766347640411e+00,-4.528716642551697813e-01,-9.809663275808622629e+00
1.900193276800134390e+00,-4.557568828113257031e-01,-9.809190066571355615e+00
1.904556125458663596e+00,-4.575986675673343052e-01,-9.808563882603680284e+00
1.908746812381787450e+00,-4.597966359066216757e-01,-9.808928311334293326e+00
1.913159330307079742e+00,-4.620115141554407279e-01,-9.807829749902849059e+00
1.917121926486453631e+00,-4.642517736789945615e-01,-9.807402014860803874e+00
1.921238289137306987e+00,-4.661867840764730708e-01,-9.806879064618097885e+00
1.925470073174445629e+00,-4.679228140562766147e-01,-9.806312751983414344e+00
1.929524578350360065e+00,-4.699594624697546186e-01,-9.806601034803428263e+00
1.933377836354397639e+00,-4.720761049740327397e-01,-9.805483570257955250e+00
1.937745274507093773e+00,-4.738641107373448014e-01,-9.805601220348437508e+00
1.941882153736246730e+00,-4.760037956612028220e-01,-9.804925540358473413e+00
1.945604200543543660e+00,-4.778895979777095238e-01,-9.804425888073106776e+00
1.949500194307899115e+00,-4.801434662559940780e-01,-9.804380740652053561e+00
1.953421152275787609e+00,-4.819136443324783525e-01,-9.804099868858621392e+00
1.957279951048362054e+00,-4.839448969918109800e-01,-9.803907718669588434e+00
1.961365075427490279e+00,-4.855879887927266325e-01,-9.803069238008085051e+00
1.965316280835625484e+00,-4.878505408982099500e-01,-9.802244970012653269e+00
1.969164001436367606e+00,-4.896593816744278516e-01,-9.801980798087155833e+00
1.972659874196788898e+00,-4.916311530145036635e-01,-9.801359688016534122e+00
1.976930589738255417e+00,-4.935863876422588725e-01,-9.800790667025157887e+00
1.980815374664595785e+00,-4.951784049127272436e-01,-9.800641509976804500e+00
1.984450158626902105e+00,-4.973833666636442441e-01,-9.800565798527728134e+00
1.988090566126728520e+00,-4.992434576879812846e-01,-9.800384357615076425e+00
1.991848560337450724e+00,-5.008681835169082053e-01,-9.799310954039766486e+00
1.995579471631882651e+00,-5.028515681210988797e-01,-9.799171830915613057e+00
1.999293677807299163e+00,-5.044011961538483746e-01,-9.798010262897582479e+00
2.003269294120726851e+00,-5.064912258882765528e-01,-9.797680153789810831e+00
2.006762120108311453e+00,-5.080951274946130525e-01,-9.797281607584851670e+00
2.010445783710584244e+00,-5.097570683422213422e-01,-9.796711885325308344e+00
2.014276831907109155e+00,-5.121527325665296004e-01,-9.796538579058051255e+00
2.018079141643179142e+00,-5.138048325433325347e-01,-9.796331848513649021e+00
2.021300428514995140e+00,-5.156574001417503217e-01,-9.795277946535128066e+00
2.025160756378729943e+00,-5.172926630129821568e-01,-9.794633533374737411e+00
2.028731009495219784e+00,-5.190859298795839072e-01,-9.794342901609686791e+00
2.031904187136456486e+00,-5.209429063929039705e-01,-9.794507301016274425e+00
2.035183350893107423e+00,-5.226039627789949016e-01,-9.793396583991016868e+00
2.039180097045278028e+00,-5.242432366686975431e-01,-9.793674698553406444e+00
2.042537360739607344e+00,-5.258585292028113978e-01,-9.792909137323944080e+00
2.046141951692707295e+00,-5.272912699563201411e-01,-9.792560625644005867e+00
2.049323602693368773e+00,-5.292755604410059878e-01,-9.792093406315773407e+00
2.053078813022233717e+00,-5.310189805147480513e-01,-9.791870295259554879e+00
2.056492335134608940e+00,-5.328105708506661875e-01,-9.791106971875642273e+00
2.059810790527326851e+00,-5.342059818922006986e-01,-9.790118183292925380e+00
2.063224674998378916e+00,-5.358722928136996355e-01,-9.790466815641808651e+00
2.066608489383405356e+00,-5.376032391040945768e-01,-9.789129719548022024e+00
2.069844652886058789e+00,-5.393937448949696067e-01,-9.789023834619431597e+00
2.073121764716701954e+00,-5.408467317258784934e-01,-9.788615394557627525e+00
2.076402017578696135e+00,-5.427511484330159730e-01,-9.788141576126239585e+00
2.079597539183781318e+00,-5.437193122828785086e-01,-9.788048409444506603e+00
2.082946607041717080e+00,-5.454667138925390901e-01,-9.787474154738740495e+00
2.086393368616226152e+00,-5.473157067927520991e-01,-9.786830553828856694e+00
2.089458914266502099e+00,-5.488897051046791598e-01,-9.786677455920216318e+00
2.092789007292603642e+00,-5.506538380354801809e-01,-9.785762299458101054e+00
2.096100243521598738e+00,-5.522654536936535408e-01,-9.784715886810094077e+00
2.098999189582793079e+00,-5.537697260033977997e-01,-9.785431828505828378e+00
2.102366695233088834e+00,-5.553604984931488353e-01,-9.783477793140054501e+00
2.105532644381501228e+00,-5.568385484068197888e-01,-9.784171515719748413e+00
2.108877267648023857e+00,-5.585660712333396782e-01,-9.783184142844769227e+00
2.111991702121645886e+00,-5.599984784105073166e-01,-9.782977435141525291e+00
2.114650421425516402e+00,-5.613121450966027659e-01,-9.782286836999155355e+00
2.117974940794584260e+00,-5.630515524060500931e-01,-9.781778572279721473e+00
2.120967768807046738e+00,-5.643776155240539660e-01,-9.781740033402121171e+00
2.124098218046058140e+00,-5.659715368068535257e-01,-9.780889096528664339e+00
2.127161792459668632e+00,-5.673801147398591649e-01,-9.780228241442413761e+00
2.130102775641987467e+00,-5.685676165885262812e-01,-9.780788702865754303e+00
2.133315533875159264e+00,-5.701201541607583412e-01,-9.778890042016147532e+00
2.136205702374587734e+00,-5.719502058125148780e-01,-9.779241759038695747e+00
2.138787148000858451e+00,-5.731557069246452363e-01,-9.778426335227445421e+00
2.142256385521535300e+00,-5.749642451707530633e-01,-9.777748229718826067e+00
2.145035616515887256e+00,-5.762299585118549894e-01,-9.777386454618159917e+00
2.148037435483528768e+00,-5.774921389495129009e-01,-9.776361508584207272e+00
2.150701513957718358e+00,-5.789616583789179982e-01,-9.776564539813902499e+00
2.153651674244929204e+00,-5.805330350587843968e-01,-9.775889890168878438e+00
2.156661075307495956e+00,-5.820496527385450314e-01,-9.775954674132561806e+00
2.159506169256045549e+00,-5.831446672543149079e-01,-9.775190024264237110e+00
2.162115511101178722e+00,-5.845956261753643135e-01,-9.774935911222122797e+00
2.165490066153643589e+00,-5.859805554000764305e-01,-9.774228049394524831e+00
2.167960787194762151e+00,-5.874242185095900348e-01,-9.773665328404668173e+00
2.170866390086259035e+00,-5.883212848655946514e-01,-9.773235481444737971e+00
2.173681301586116721e+00,-5.902816467903582165e-01,-9.772678169810420812e+00
2.176251477084464092e+00,-5.914842954485618476e-01,-9.772362818879118507e+00
2.179111162059740092e+00,-5.929198605756007545e-01,-9.772118155054167588e+00
2.181746442165342970e+00,-5.942608106577147442e-01,-9.771440231586701941e+00
2.184829275511302793e+00,-5.953737171845586706e-01,-9.771177337228291293e+00
2.187638832946462220e+00,-5.967419283262959118e-01,-9.769838771655473764e+00
2.190361615290184361e+00,-5.981669378667264780e-01,-9.769870848226556603e+00
2.192868715098465149e+00,-5.991651135346496293e-01,-9.769236796014611812e+00
2.195535903275019241e+00,-6.011153805481406209e-01,-9.768894011249056319e+00
2.198260131947223694e+00,-6.021124777892159496e-01,-9.768289385173517303e+00
2.200835120422482305e+00,-6.035503059947084914e-01,-9.767535040388196421e+00
2.203510252817072690e+00,-6.044717206915489749e-01,-9.767346355261071977e+00
2.206446664710509875e+00,-6.058268576076314416e-01,-9.767214043122240952e+00
2.208364515682650797e+00,-6.073267042614168831e-01,-9.766403014145028649e+00
2.211276062460274971e+00,-6.082696218310791325e-01,-9.765510184483884970e+00
2.213706252616763237e+00,-6.097987528447946781e-01,-9.765510046157308111e+00
2.216257338155422918e+00,-6.110583802870582781e-01,-9.764580237216469172e+00
2.218995119456471432e+00,-6.121028054302083410e-01,-9.764074395794761330e+00
2.221521498793570970e+00,-6.134852036368851902e-01,-9.763964300043616262e+00
2.224143092829125923e+00,-6.147546396406505798e-01,-9.763977471515362438e+00
2.226593446608291060e+00,-6.161454343520275101e-01,-9.763079051574136358e+00
2.228984319568001027e+00,-6.170133194216259609e-01,-9.762804673656908960e+00
2.231672590206641438e+00,-6.184921623432849680e-01,-9.762114135582351082e+00
2.234004096290825636e+00,-6.196468247436617283e-01,-9.761744125919912918e+00
2.236201245794504189e+00,-6.207394204165570528e-01,-9.761177853086362433e+00
2.238771480499233579e+00,-6.218555523360772552e-01,-9.760697621560179726e+00
2.241255300686854302e+00,-6.232299990943305223e-01,-9.760403788086209786e+00
2.243455425075843834e+00,-6.245647826060357621e-01,-9.759939572969800636e+00
2.245940614226102472e+00,-6.257165213781148427e-01,-9.758764847597062086e+00
2.248488043059777119e+00,-6.264598203158593392e-01,-9.758557992340874065e+00
2.251049956945097463e+00,-6.276658306178167779e-01,-9.758519498939909553e+00
2.253312531742247771e+00,-6.292765034665478430e-01,-9.757808350354093108e+00
2.255289779765865532e+00,-6.301541128060674790e-01,-9.757304728005093963e+00
2.257791599892489121e+00,-6.310959116516741130e-01,-9.757030709367613852e+00
2.260276702917797476e+00,-6.321710597861922576e-01,-9.755908946141593319e+00
2.262626632884838340e+00,-6.337100731418505717e-01,-9.755694217728585471e+00
2.264889502473833804e+00,-6.347624790873824807e-01,-9.755615276379161926e+00
2.267288660586321836e+00,-6.357051788288750060e-01,-9.754541931990653225e+00
2.269399924146521030e+00,-6.368874583417702961e-01,-9.754056661629894265e+00
2.271694852042025925e+00,-6.379992283559328126e-01,-9.754868678322782927e+00
2.274153246921151172e+00,-6.391838086473413671e-01,-9.753367452722931930e+00
2.276147196793298910e+00,-6.401403591135031990e-01,-9.752857344664695560e+00
2.278537803985291710e+00,-6.412535911427322821e-01,-9.752387647188324848e+00
2.280839138804279909e+00,-6.425724407867958732e-01,-9.752275677482392879e+00
2.282916692944407799e+00,-6.429826178208454257e-01,-9.752126547481182683e+00
2.285193708949464053e+00,-6.444633806986110880e-01,-9.751265224870223847e+00
2.287675982903557781e+00,-6.455728496484829382e-01,-9.750844578397488860e+00
2.289639627370171571e+00,-6.467203246025061691e-01,-9.750835726412487858e+00
2.291577347363316974e+00,-6.474221282134859923e-01,-9.749614197947428451e+00
2.293670308122116808e+00,-6.485582921828696445e-01,-9.749247629245694213e+00
2.296033740535611933e+00,-6.496460553963286921e-01,-9.749194000158789564e+00
2.298078452480852629e+00,-6.509270842685253022e-01,-9.748541351821716106e+00
2.300256748718583211e+00,-6.518627896989767079e-01,-9.748309100481909795e+00
2.302304372661977627e+00,-6.527309111711944167e-01,-9.747812626182938089e+00
2.304355932248615790e+00,-6.539556839491600382e-01,-9.746835353263557877e+00
2.306717341196879101e+00,-6.550371102134129320e-01,-9.746434092015578088e+00
2.308794758179307127e+00,-6.559506031360529121e-01,-9.745453570049173564e+00
2.310825415737732147e+00,-6.567661233185037029e-01,-9.745561206082923533e+00
2.312736203607856922e+00,-6.580891420378003343e-01,-9.745492801886120660e+00
2.314809194117354973e+00,-6.590874149794899717e-01,-9.744420928491706491e+00
2.316564837535428634e+00,-6.597108215584405189e-01,-9.744247117514973411e+00
2.318678728971101943e+00,-6.603893301629510937e-01,-9.744118441568927480e+00
2.320533813998556738e+00,-6.621336584042227802e-01,-9.743759001455018165e+00
2.322833337310738600e+00,-6.629762878662714964e-01,-9.743213345258949332e+00
2.324833649597795482e+00,-6.635677809585535103e-01,-9.742417926383218685e+00
2.326857747314124758e+00,-6.647000226293189318e-01,-9.742279353618275906e+00
2.328840033687413769e+00,-6.657883958653435519e-01,-9.742124313371464339e+00
2.330916032602591947e+00,-6.670449277496997009e-01,-9.740983930659934842e+00
2.332603735279227930e+00,-6.675339707696379410e-01,-9.740849893904577783e+00
2.334559731976915131e+00,-6.683187337392384464e-01,-9.740248725084040160e+00
2.336635983867513922e+00,-6.694653190762958062e-01,-9.740090609085873652e+00
2.338418438339671113e+00,-6.702988725993763719e-01,-9.739696359346972088e+00
2.340206871483238693e+00,-6.710656316823848666e-01,-9.738966102120738100e+00
2.342192848423546803e+00,-6.722094996134505562e-01,-9.738153262738103777e+00
2.344391186929086324e+00,-6.730098818108583014e-01,-9.737603045019717740e+00
2.346175379545882844e+00,-6.741126335387931379e-01,-9.737166825451712526e+00
2.347814660872548309e+00,-6.749237047991900607e-01,-9.737474811842762534e+00
2.349780097690758129e+00,-6.759812178713664466e-01,-9.736444256146773668e+00
2.351362412527120860e+00,-6.765478422142073844e-01,-9.735937240281081984e+00
2.353576832689686427e+00,-6.775947812105486134e-01,-9.736214793849207183e+00
2.355463780686826158e+00,-6.784266578454428709e-01,-9.734537044833292185e+00
2.357232679271375364e+00,-6.793255891647138611e-01,-9.734523530412580783e+00
2.358662695127365261e+00,-6.801457107198222163e-01,-9.734506129273491126e+00
2.360923618621074471e+00,-6.811639092437935528e-01,-9.734220490220019784e+00
2.362566205821034604e+00,-6.820392740240519558e-01,-9.733809988785024458e+00
2.364125091282376800e+00,-6.826513878371311961e-01,-9.732943949624841551e+00
2.365884279494371523e+00,-6.835201333683348368e-01,-9.732623693056238423e+00
2.367616036165940852e+00,-6.841536088162845086e-01,-9.732390200133858471e+00
2.369467927522151740e+00,-6.854887616027443009e-01,-9.732059757449690096e+00
2.371348644899401226e+00,-6.858954846448559461e-01,-9.731651945601722531e+00
2.372713066492752709e+00,-6.867472416560289616e-01,-9.730826355492055768e+00
2.374717842921853617e+00,-6.878278519403325797e-01,-9.730753557520330332e+00
2.376832549428863572e+00,-6.886052145333988461e-01,-9.730713026691013567e+00
2.378146648162767107e+00,-6.893834602499401276e-01,-9.729728185262144891e+00
2.379910490712115134e+00,-6.903430729629239648e-01,-9.729021780287762766e+00
2.381384962173133335e+00,-6.911367655019187151e-01,-9.729205723417608809e+00
2.383501863961672740e+00,-6.918878135540548202e-01,-9.727601224775956013e+00
2.384854977940525256e+00,-6.932309274426625700e-01,-9.727627960264161544e+00
2.386665293607592275e+00,-6.934940249590912931e-01,-9.727013092422460261e+00
2.388228145240140154e+00,-6.942668337681697777e-01,-9.726894130063021393e+00
2.390039968433268491e+00,-6.952468220678715838e-01,-9.726456826168625724e+00
2.391258989058219431e+00,-6.960341535118117484e-01,-9.726882468688963002e+00
2.392986280702139812e+00,-6.970809394762754740e-01,-9.725826851604326251e+00
2.394802324121031667e+00,-6.973021275759523352e-01,-9.725623057710238939e+00
2.396232810806522728e+00,-6.985132000456660828e-01,-9.725403970665199793e+00
2.397660749921316281e+00,-6.994906351169822845e-01,-9.724592162901279480e+00
2.399438380644910662e+00,-6.999853665200280739e-01,-9.724711959474408474e+00
2.401060934384492196e+00,-7.006592417728620958e-01,-9.724261772207880128e+00
2.402720789839849047e+00,-7.014067736586721002e-01,-9.723327464114584373e+00
2.404233508567204858e+00,-7.022784798744277079e-01,-9.723524494375334726e+00
2.405844913929044537e+00,-7.028254479463706961e-01,-9.722886396902632455e+00
2.407354914548164970e+00,-7.036209325567763795e-01,-9.722001594279143788e+00
2.408820491155583277e+00,-7.044171859786111378e-01,-9.722075233922835125e+00
2.410693290061420413e+00,-7.047002725286742875e-01,-9.721254414620659645e+00
2.412073978804184726e+00,-7.057813847152818454e-01,-9.720889628954257233e+00
2.413660968656236250e+00,-7.061545257318708746e-01,-9.720227018249850914e+00
2.414813581051538094e+00,-7.069763912788589177e-01,-9.720391823273899945e+00
2.416400101874297768e+00,-7.079290185952276104e-01,-9.719615555542114649e+00
2.418181783869110202e+00,-7.085589290904941162e-01,-9.719425606898537850e+00
2.419756917440115007e+00,-7.093639903382751299e-01,-9.719023320835761481e+00
2.421152434672190878e+00,-7.099110694201768990e-01,-9.718256841464913975e+00
2.422736113821850168e+00,-7.110150488713663508e-01,-9.718397576128742443e+00
2.423840670281026011e+00,-7.113336113590673637e-01,-9.717911806640683992e+00
2.425453499269873525e+00,-7.121196905311560910e-01,-9.717540961094176311e+00
2.426989146313757839e+00,-7.126499037071060139e-01,-9.716835835010876110e+00
2.428115827812135752e+00,-7.138075917299563367e-01,-9.716477654629366967e+00
2.429571269788843857e+00,-7.144114535401681065e-01,-9.716566820184080910e+00
2.431313431405702552e+00,-7.150741352932670214e-01,-9.715605657481219737e+00
2.432489094623578207e+00,-7.154631398032623713e-01,-9.715922899923336686e+00
2.434219784164887823e+00,-7.161175477602534922e-01,-9.714450186324475212e+00
2.435225113042844391e+00,-7.171218220241710739e-01,-9.714346216454567084e+00
2.436605380132916832e+00,-7.176599294751037084e-01,-9.714771479651098218e+00
2.438349074576425579e+00,-7.182264048171845827e-01,-9.713470369243518476e+00
2.439363860244906590e+00,-7.187283342873241887e-01,-9.712908324367562685e+00
2.440596427127672996e+00,-7.197405476752787301e-01,-9.713470773203480846e+00
2.442128457083263093e+00,-7.204335501243861462e-01,-9.713291848302370468e+00
2.443478074721499471e+00,-7.207973334807401544e-01,-9.712257833383523220e+00
2.444711424246694520e+00,-7.213442661985377535e-01,-9.711464366573842710e+00
2.446154182105670039e+00,-7.219202080124599297e-01,-9.711233854246071218e+00
2.447809955972606755e+00,-7.228491394320386565e-01,-9.711340010509433185e+00
2.448971750377492818e+00,-7.235812173127036395e-01,-9.711150299340417291e+00
2.449986842797390540e+00,-7.241148922720357373e-01,-9.710236748300307141e+00
2.451515474324725830e+00,-7.250356337622806402e-01,-9.709980275736345590e+00
2.452967865980003825e+00,-7.253583850859754989e-01,-9.710008624284379053e+00
2.454406952728358959e+00,-7.259386808391984358e-01,-9.709318268675502850e+00
2.455362453315679261e+00,-7.266805695058826675e-01,-9.708454937771922033e+00
2.456965072462326205e+00,-7.273222828196314049e-01,-9.708783659217386841e+00
2.458395991467669184e+00,-7.280952484838794092e-01,-9.708587750603777877e+00
2.459028833211555742e+00,-7.285522934023626052e-01,-9.707903602054285486e+00
2.460615888018541586e+00,-7.289603299813421922e-01,-9.708267218252014885e+00
2.461710380910516083e+00,-7.295424017591101151e-01,-9.706395009515841110e+00
2.463266894452037281e+00,-7.303740308665851444e-01,-9.706831699645489309e+00
2.464704773353554756e+00,-7.309354850075271415e-01,-9.706246997089291284e+00
2.465697152524754188e+00,-7.316780230410223629e-01,-9.706030620722211566e+00
2.467070050852082641e+00,-7.321822878841111049e-01,-9.705864842437931017e+00
2.468124719818657553e+00,-7.330559241143806970e-01,-9.705169393645466158e+00
2.469515711107178380e+00,-7.334351823007047022e-01,-9.705079868950184263e+00
2.470856706565998095e+00,-7.337792096142220499e-01,-9.704923891710308226e+00
2.472127877413936581e+00,-7.346018428691882818e-01,-9.704382625003264096e+00
2.472740329947133997e+00,-7.348609962029600817e-01,-9.704301068074151715e+00
2.474142233774518917e+00,-7.353761348033241996e-01,-9.703247872134705077e+00
2.475692386562819980e+00,-7.363160104573122089e-01,-9.703469575693581817e+00
2.476624126968542949e+00,-7.368728171147411743e-01,-9.702686533915564127e+00
2.477674538864761189e+00,-7.370426081629287696e-01,-9.702681940844172459e+00
2.478942968277005221e+00,-7.377802231867653937e-01,-9.702695585173433557e+00
2.479716562641392841e+00,-7.381523979519987178e-01,-9.701409953405958575e+00
2.481437424194344654e+00,-7.387729092035836276e-01,-9.701389942735692884e+00
2.482669868129995461e+00,-7.393986825396983154e-01,-9.701494891936087939e+00
2.484123493930587845e+00,-7.399669744532443305e-01,-9.701041556298942936e+00
2.484957968176857435e+00,-7.405377220264749427e-01,-9.700324863649571583e+00
2.485670539373239674e+00,-7.413404488250954216e-01,-9.699569761214362984e+00
2.486925031831166866e+00,-7.414823788128405146e-01,-9.699962355220904442e+00
2.488146728219716941e+00,-7.421773328334323461e-01,-9.699292492306364366e+00
2.489386115531251775e+00,-7.424332252417796818e-01,-9.698721345540143091e+00
2.490385135854231713e+00,-7.431695696411860785e-01,-9.698813617447006763e+00
2.491333566437537783e+00,-7.439700347238625833e-01,-9.698283702548655683e+00
2.492416914134613304e+00,-7.443593084325452747e-01,-9.698275432726985557e+00
2.493380830859356134e+00,-7.446499138309238264e-01,-9.697081937153239295e+00
2.494878092029464423e+00,-7.454872658252922335e-01,-9.697088605138477035e+00
2.496084989286821543e+00,-7.458554323962262034e-01,-9.696867151818466368e+00
2.496695520967212811e+00,-7.464490060882140732e-01,-9.696180650840251047e+00
2.498244802043577018e+00,-7.467241112061768771e-01,-9.696282955761310163e+00
2.498896963117355874e+00,-7.471375694635269404e-01,-9.696213019841575687e+00
2.500537897936296439e+00,-7.476638627268870074e-01,-9.695624555707576420e+00
2.501046676564432580e+00,-7.484783471999817417e-01,-9.695163027226051611e+00
2.502271871404361026e+00,-7.487784139145332585e-01,-9.694439625408509897e+00
2.503089833056054481e+00,-7.493873586349926175e-01,-9.694565537693440760e+00
2.504250998543561479e+00,-7.498339624998717756e-01,-9.694231232633427453e+00
2.505155912332498236e+00,-7.500660695892682472e-01,-9.693832463738175420e+00
2.506026361978680228e+00,-7.509450776484705159e-01,-9.692821589752295353e+00
2.507361933191749603e+00,-7.509806803134073672e-01,-9.693026220359300282e+00
2.508279496551880428e+00,-7.523583965613130919e-01,-9.692915015823876601e+00
2.509396597921952132e+00,-7.524071160556611293e-01,-9.692306598241827942e+00
2.510698682528747838e+00,-7.529159706396565399e-01,-9.691919309269513505e+00
2.511346942042560482e+00,-7.530607876039644433e-01,-9.691825124792645241e+00
2.512619841209794203e+00,-7.537512689327960924e-01,-9.691564402971016179e+00
2.513428735592478702e+00,-7.542012523468377694e-01,-9.691371987018365886e+00
2.514545770237169187e+00,-7.544225520150028563e-01,-9.691503308701337360e+00
2.515501652891267259e+00,-7.550784665153102981e-01,-9.690320774159896899e+00
2.516093230967727301e+00,-7.555596809759875798e-01,-9.690601187792369231e+00
2.517188788354714823e+00,-7.558242500778946660e-01,-9.690495506817706328e+00
2.518465928800333486e+00,-7.562096850151450722e-01,-9.689942852551023833e+00
2.519026507497210687e+00,-7.568125050630128969e-01,-9.689310443968352615e+00
2.520203990907558200e+00,-7.572878752586130746e-01,-9.689739805481730528e+00
2.521215080041586898e+00,-7.580254828640210496e-01,-9.688829588199324050e+00
2.521621233768263082e+00,-7.581723452766271354e-01,-9.688023179716331867e+00
2.523207968792712919e+00,-7.587028924300728283e-01,-9.687787829952142715e+00
2.523940172635875445e+00,-7.592567034470452114e-01,-9.687863219210942844e+00
2.524817423406904293e+00,-7.596269275180423941e-01,-9.687506190097188608e+00
2.525714551041615241e+00,-7.603422174201098782e-01,-9.686634408120134765e+00
2.526877195342307925e+00,-7.603658993122857090e-01,-9.686582579615892641e+00
2.527838079143634342e+00,-7.609126958406045027e-01,-9.686411972691727712e+00
2.528591290927286739e+00,-7.612968143014708922e-01,-9.686334987926622730e+00
2.529367659202928831e+00,-7.620327720304433949e-01,-9.685971723773523223e+00
2.530458702181492381e+00,-7.623219224457671306e-01,-9.685837750586960837e+00
2.530823692194804408e+00,-7.628813339937838833e-01,-9.685458738552432223e+00
2.532132369320420739e+00,-7.631575193356846532e-01,-9.685000133252257726e+00
2.533076636751116162e+00,-7.633290518039260730e-01,-9.684987275332613166e+00
2.533992612947404854e+00,-7.641931101102825696e-01,-9.684202611001046179e+00
2.534533567037448254e+00,-7.640910842192845109e-01,-9.684379945348080554e+00
2.535606405963481080e+00,-7.645577845584495824e-01,-9.683919604539655168e+00
2.536275401492432913e+00,-7.649379140719638759e-01,-9.683169381903354633e+00
2.537253339795563445e+00,-7.653344431169064599e-01,-9.683313261899185065e+00
2.538170839929271061e+00,-7.661058683387710344e-01,-9.683178937651563345e+00
2.539123814883419872e+00,-7.662070451049174391e-01,-9.683411714640531187e+00
2.539874515308000902e+00,-7.667724464062187772e-01,-9.682464713490217534e+00
2.540651844019540473e+00,-7.671568603965007727e-01,-9.682641162211456987e+00
2.541484855111133978e+00,-7.674169677578103199e-01,-9.681488829527987505e+00
2.542486057371307062e+00,-7.678874476183024100e-01,-9.682096070558021239e+00
2.543044649927997725e+00,-7.682450911770990487e-01,-9.681293332993140766e+00
2.544054978401013578e+00,-7.686862631666065981e-01,-9.681187369091526662e+00
2.545145123879077875e+00,-7.691021024730283484e-01,-9.680591183816233070e+00
2.545788554030179451e+00,-7.696303425110765373e-01,-9.680379186847209994e+00
2.546464750771391561e+00,-7.696465217842738404e-01,-9.679641510657535974e+00
2.547406994365169819e+00,-7.704728802837955692e-01,-9.680245784187082592e+00
2.547725147055981854e+00,-7.709056487112139200e-01,-9.679855425827469162e+00
2.549048806740553452e+00,-7.712750084746012869e-01,-9.678928290189446670e+00
2.549712202531603911e+00,-7.715073773905453125e-01,-9.679099734870133531e+00
2.550649689170362944e+00,-7.720306852939874398e-01,-9.678644254761373134e+00
2.551273786063005922e+00,-7.721464918510784203e-01,-9.678565003945927003e+00
2.552247018927761957e+00,-7.723264270864600434e-01,-9.678433605397822603e+00
2.553183378448758756e+00,-7.727903019420724329e-01,-9.677506436744486962e+00
2.553641142321265711e+00,-7.731382760835112666e-01,-9.677857100872016005e+00
2.554601670932381108e+00,-7.735533122783631033e-01,-9.677329943693443681e+00
2.555196171678955075e+00,-7.739520940994069065e-01,-9.676605255068263745e+00
2.556018148534575651e+00,-7.743479296398010359e-01,-9.676993917365559028e+00
2.556941499286734309e+00,-7.750174092731902942e-01,-9.677058880199318480e+00
2.557323823653063322e+00,-7.751718835479098901e-01,-9.676402858972643628e+00
2.558520940249930486e+00,-7.750907756163196716e-01,-9.675365488743731035e+00
2.558908365213498293e+00,-7.754231943497328361e-01,-9.675628276411554651e+00
2.559878775174370347e+00,-7.762477255434943046e-01,-9.675450407498653149e+00
2.560548828001074639e+00,-7.764521000356890967e-01,-9.675448136577202263e+00
2.561196296233913205e+00,-7.766922632751812605e-01,-9.674352731487298129e+00
2.561965452096953477e+00,-7.773778000511720743e-01,-9.674970047498256065e+00
2.562722524472992980e+00,-7.772925773778095460e-01,-9.674028431079262802e+00
2.563393512525785845e+00,-7.777187604866709902e-01,-9.673901839368724609e+00
2.564378117095050591e+00,-7.783408481505625920e-01,-9.674385110908035657e+00
2.564963431551950723e+00,-7.784956157019202738e-01,-9.674116614736385955e+00
2.565590641644622583e+00,-7.784212432281063521e-01,-9.673031034118139360e+00
2.566381156572925981e+00,-7.791161492180508352e-01,-9.672995939787719877e+00
2.567128970171161928e+00,-7.793011988644381605e-01,-9.672539073562710144e+00
2.567951768271183433e+00,-7.797172432242246431e-01,-9.672522213690948334e+00
2.568625714687116535e+00,-7.799095035764491701e-01,-9.672150864481372068e+00
2.569351402243091886e+00,-7.803268475340572330e-01,-9.672424672990274530e+00
2.569801596576242630e+00,-7.809209578231868232e-01,-9.672134600034537399e+00
2.570431949581283071e+00,-7.808890282357153767e-01,-9.672086342036170237e+00
2.571043148805904455e+00,-7.812614815373379873e-01,-9.670836040766248587e+00
2.571569642332953709e+00,-7.815708295228883662e-01,-9.671304295488816649e+00
2.572433708505211136e+00,-7.822263952089283379e-01,-9.671213166880454182e+00
2.573490794377613966e+00,-7.825223356299044752e-01,-9.671320609045560346e+00
2.573604332993717048e+00,-7.825329234376778853e-01,-9.669778327000498663e+00
2.574950599446366617e+00,-7.828577867753957475e-01,-9.670009797116639660e+00
2.575493530388297536e+00,-7.831655138546469441e-01,-9.669503612123756753e+00
2.575945421953270476e+00,-7.836948993300891786e-01,-9.669524404828537811e+00
2.576398980868053634e+00,-7.839922038867008780e-01,-9.669143255843755114e+00
2.576819031740339216e+00,-7.840958341895476469e-01,-9.669440876098171600e+00
2.578076948976292027e+00,-7.844003726382982045e-01,-9.668897141327871481e+00
2.578292176883675513e+00,-7.849810276097195505e-01,-9.668558905307207851e+00
2.579261705968868501e+00,-7.850957050190402464e-01,-9.668267077242006735e+00
2.579779153394742952e+00,-7.851573136699614430e-01,-9.667684420575996640e+00
2.580545262057872158e+00,-7.854803262953872212e-01,-9.668077184847458483e+00
2.581232287965254280e+00,-7.859367488219938247e-01,-9.667372510519427919e+00
2.581526836865764896e+00,-7.865653052359560249e-01,-9.667078257150587106e+00
2.582598288845069145e+00,-7.867710675018784183e-01,-9.667416179006727006e+00
2.583018803796059082e+00,-7.869933535966023852e-01,-9.667241349953048513e+00
2.583655939620038477e+00,-7.874667676919396841e-01,-9.666008454083625523e+00
2.584194488455369143e+00,-7.876908370226448630e-01,-9.666530018347284425e+00
2.584743708878746826e+00,-7.875529058323300635e-01,-9.665966471674723337e+00
2.585195909333843911e+00,-7.877858137550188822e-01,-9.666196801715107867e+00
2.586014958738312774e+00,-7.883348523803801466e-01,-9.665650369869457137e+00
2.586756305780778309e+00,-7.886392024879719242e-01,-9.665515510200110683e+00
2.587241743275769501e+00,-7.890033247261952765e-01,-9.665181079826291821e+00
2.587626499731408458e+00,-7.894006381065379330e-01,-9.665393246936821114e+00
2.588520668849541018e+00,-7.893859757822060397e-01,-9.664769363500488097e+00
2.588839213931724004e+00,-7.895087898740323906e-01,-9.665002770887214822e+00
2.589143241058600609e+00,-7.901158296268828707e-01,-9.664582689768078438e+00
2.590342935209933639e+00,-7.902709088391993708e-01,-9.664047593648170675e+00
2.590950144460397286e+00,-7.906685309098395731e-01,-9.664121847051369230e+00
2.591458221180070076e+00,-7.907418222496589433e-01,-9.663741941968410742e+00
2.591639210985724695e+00,-7.910643586314688447e-01,-9.663513901459635846e+00
2.592577708110828993e+00,-7.912608957689870604e-01,-9.662717926807053104e+00
2.593030731499552211e+00,-7.916928777191180044e-01,-9.663000837716147373e+00
2.593476882295021824e+00,-7.919943805739758647e-01,-9.662742310376955857e+00
2.594025647482412822e+00,-7.919328342151591427e-01,-9.662059128998945923e+00
2.594573586747071836e+00,-7.922108586561456001e-01,-9.662094112684853187e+00
2.595357324422312040e+00,-7.929354068906919739e-01,-9.662150971432987845e+00
2.595997884191425076e+00,-7.929137260252117070e-01,-9.662449748301135344e+00
2.596482595025631390e+00,-7.935483243145363685e-01,-9.661335230512140271e+00
2.596851534363298519e+00,-7.936034265171838520e-01,-9.661832694487086926e+00
2.597474011181149844e+00,-7.938687834158958401e-01,-9.661094804655039781e+00
2.598022166325264504e+00,-7.940669634599923921e-01,-9.660831684412427123e+00
2.598493048507807046e+00,-7.943674774533936445e-01,-9.661049275828222704e+00
2.598976289296543118e+00,-7.946665181564188662e-01,-9.660615338535045282e+00
2.599509145786932152e+00,-7.944220324735050687e-01,-9.660386076930207011e+00
2.600420630158926993e+00,-7.950252752962029268e-01,-9.660676378886007498e+00
2.600710540626944400e+00,-7.949007661205125252e-01,-9.659774193409431220e+00
2.601342607196767354e+00,-7.954750617650734323e-01,-9.660503242572437088e+00
2.601754236460096514e+00,-7.954919058160299095e-01,-9.659285293830622621e+00
2.602175882222304004e+00,-7.956935712911875624e-01,-9.658886888333348963e+00
2.602952666705194318e+00,-7.960774826926907410e-01,-9.659290479718382727e+00
2.602950896783990054e+00,-7.966721087281843916e-01,-9.658507050289284024e+00
2.603897796448398694e+00,-7.968570445888252252e-01,-9.659078874521714653e+00
2.604476983445120464e+00,-7.967592354147792211e-01,-9.658801643183707597e+00
2.604740910547711508e+00,-7.968123661284128856e-01,-9.658389338773240240e+00
2.605082186110861731e+00,-7.973566074159713635e-01,-9.657992033123615983e+00
2.605987697598494357e+00,-7.975772166332150137e-01,-9.657941586753254981e+00
2.606428364105799478e+00,-7.977777707107102101e-01,-9.657731747625106777e+00
2.606780568151688016e+00,-7.981296702566662571e-01,-9.657439027878858440e+00
2.607418157767523059e+00,-7.981359050045656600e-01,-9.657053829855321680e+00
2.607497824477807757e+00,-7.983894135457252350e-01,-9.656692135548334832e+00
2.608425453493654622e+00,-7.983924870486207581e-01,-9.657154772288519595e+00
2.608861206407643962e+00,-7.989821082040370337e-01,-9.656360164394786949e+00
2.609084904344997291e+00,-7.992415936911582142e-01,-9.656383181942905125e+00
2.609735315350625751e+00,-7.994068844000284946e-01,-9.656381565013521850e+00
2.610408556841850469e+00,-7.994776602144865185e-01,-9.656192426169898368e+00
2.610384070402796741e+00,-7.997897452841425947e-01,-9.655639493428541442e+00
2.610968887441764696e+00,-7.999210292759159069e-01,-9.655876851320785548e+00
2.611638169457343395e+00,-8.003705334632735813e-01,-9.655843037476946833e+00
2.612010154587319555e+00,-8.005343275473021381e-01,-9.655416374299633731e+00
2.612721219080722079e+00,-8.009105765264370458e-01,-9.655590559689306573e+00
2.613282286507909280e+00,-8.009761073895734773e-01,-9.655098182422044317e+00
2.613426830806776735e+00,-8.008312159528352403e-01,-9.654182235765450315e+00
2.613851100854753362e+00,-8.012794821261171041e-01,-9.654769836711919240e+00
2.614479661588550385e+00,-8.018249788993764282e-01,-9.654501812909545677e+00
2.614857825841530037e+00,-8.016364686061795419e-01,-9.654358958477660124e+00
2.615636426223230337e+00,-8.020192080955445002e-01,-9.654350423257223923e+00
2.615261297262019280e+00,-8.024176797395031757e-01,-9.653694235110604538e+00
2.616382704182362851e+00,-8.025047213345515296e-01,-9.653326638835746820e+00
2.616344833436393458e+00,-8.024503646539790092e-01,-9.653406259853491989e+00
2.617095460869460322e+00,-8.029482048342992950e-01,-9.654004272000742404e+00
2.617501049995880624e+00,-8.033910887642673471e-01,-9.653269412684034378e+00
2.618113414689219098e+00,-8.032004271495656322e-01,-9.653459065374130788e+00
2.618203973110482252e+00,-8.032385856568241556e-01,-9.653128613517262480e+00
2.618801347889446518e+00,-8.037291216121322801e-01,-9.652697959050968279e+00
2.619097096194548335e+00,-8.036651709210317351e-01,-9.652560609461444230e+00
2.619675864924727815e+00,-8.040810439947193577e-01,-9.651742822342884054e+00
2.620229612866451507e+00,-8.042570127637701516e-01,-9.652179903040702058e+00
2.620600689114022330e+00,-8.043741379217933529e-01,-9.651653184902336591e+00
2.620972288738871558e+00,-8.047296745993175460e-01,-9.651889153236687946e+00
2.621530404208289422e+00,-8.045824220182795639e-01,-9.651135723141369027e+00
2.621763083184339926e+00,-8.050889484857355338e-01,-9.651194735036696670e+00
2.622287173672583016e+00,-8.051571027490085353e-01,-9.651143500952198195e+00
2.622830209132391399e+00,-8.052928877413204622e-01,-9.651073518422496278e+00
2.623107698690784861e+00,-8.055857341738305033e-01,-9.650345247058123022e+00
2.623230651579944617e+00,-8.056974529077757241e-01,-9.650277752149198918e+00
2.623795741312071161e+00,-8.060288506267934139e-01,-9.650493261061455996e+00
2.624215477905496918e+00,-8.059762695267325139e-01,-9.649530500320338433e+00
2.624779718094387260e+00,-8.060808505239999144e-01,-9.650282162587659585e+00
2.624477863217490103e+00,-8.065690186790488436e-01,-9.649665946962862506e+00
2.625461944208883569e+00,-8.065736736758446490e-01,-9.649536310293591157e+00
2.625698708603886544e+00,-8.069918454142136488e-01,-9.649830731252828642e+00
2.626378279217484568e+00,-8.068481123145021527e-01,-9.649514113046862462e+00
2.626769351725912305e+00,-8.072076609096052735e-01,-9.649560338863370390e+00
2.627074516369133139e+00,-8.077161602787836792e-01,-9.648823787621816805e+00
2.627351474845264434e+00,-8.074315084600796055e-01,-9.648768974351947136e+00
2.627777825690048807e+00,-8.075737146714034864e-01,-9.649468013707846126e+00
2.628364259354982302e+00,-8.078048439859242258e-01,-9.648331909226124381e+00
2.628605090903907371e+00,-8.081245585549914345e-01,-9.648088800763822803e+00
2.628821990572723699e+00,-8.083354628758443461e-01,-9.648392589929084551e+00
2.629257609895966130e+00,-8.082858182287688820e-01,-9.648138089611517643e+00
2.629650347332379567e+00,-8.084927244792934342e-01,-9.647878128396133235e+00
2.630492729362845505e+00,-8.087083551398261960e-01,-9.647742255372387277e+00
2.630751487961063617e+00,-8.090684623288276756e-01,-9.647865571911408367e+00
2.630806822384292865e+00,-8.090823146714613001e-01,-9.647156643037245516e+00
2.631234448849826713e+00,-8.094440499683650536e-01,-9.647605199184361879e+00
2.631388290745284131e+00,-8.095123463086039139e-01,-9.647146242059720933e+00
2.631584032280717356e+00,-8.098675262103229855e-01,-9.646996751335699116e+00
2.632455060258372725e+00,-8.093996476453865219e-01,-9.646504556960879384e+00
2.632214396019437963e+00,-8.102996611649230241e-01,-9.646611735265048893e+00
2.632942613008472321e+00,-8.101287178514614551e-01,-9.646351395196775869e+00
2.633242681239782890e+00,-8.103974044831421253e-01,-9.646342974551533445e+00
2.633885931314511097e+00,-8.105941812726831230e-01,-9.646448413751265605e+00
2.634347863656753663e+00,-8.104759269110021203e-01,-9.646219452701620511e+00
2.634399726592342894e+00,-8.107295318918837923e-01,-9.645629066105176008e+00
2.634753397371817130e+00,-8.107641149056690200e-01,-9.646169137527465409e+00
2.634935996901432542e+00,-8.112357788523182345e-01,-9.645975462664067024e+00
2.635186802534218220e+00,-8.114495399889127825e-01,-9.644658998646656656e+00
2.635615216053424081e+00,-8.116897655793754440e-01,-9.645150208489457810e+00
2.636485232483122498e+00,-8.116878930530599945e-01,-9.644517959776310434e+00
2.636363534029400935e+00,-8.117536522883868066e-01,-9.644541242770696243e+00
2.636528845505524909e+00,-8.119174834388075412e-01,-9.644731301357218456e+00
2.637178649810864250e+00,-8.121993593082876828e-01,-9.644489059821390597e+00
2.637632471258352762e+00,-8.122579331908403866e-01,-9.644334588697931920e+00
2.638007862259066805e+00,-8.119997570960566513e-01,-9.643983692356641768e+00
2.638271630116544308e+00,-8.125373045375966496e-01,-9.644198040747230749e+00
2.638166252860000949e+00,-8.126679203552759079e-01,-9.644514661172284065e+00
2.638885122702078423e+00,-8.130440826735341187e-01,-9.643913549391914586e+00
2.639122191704512232e+00,-8.129300258404522639e-01,-9.643953815680626818e+00
2.639493824981801851e+00,-8.130887777760545942e-01,-9.643526480430793413e+00
2.640040189617026911e+00,-8.132570774537908331e-01,-9.643336361489557973e+00
2.640102668917338136e+00,-8.134412438298967984e-01,-9.643076609438763214e+00
2.640103819933393492e+00,-8.131144361258526576e-01,-9.642842473761323419e+00
2.640627739261561135e+00,-8.139480698537177039e-01,-9.643060566236179909e+00
2.641043668016863855e+00,-8.137588782768184759e-01,-9.642935728326863298e+00
2.641456346436885205e+00,-8.139128642925042012e-01,-9.642432412553267440e+00
2.641867608929117761e+00,-8.137865343193446677e-01,-9.642207348390728683e+00
2.641955624794904089e+00,-8.142875293348686982e-01,-9.642315595447811916e+00
2.642297950788941474e+00,-8.145409310807314451e-01,-9.641925807145534932e+00
2.642452998117396756e+00,-8.145427910599236654e-01,-9.642266563520065503e+00
2.642986467715211063e+00,-8.148487151313498211e-01,-9.641940929119673598e+00
2.643285234045547494e+00,-8.149662850321476304e-01,-9.641765275697366633e+00
2.643396257288109119e+00,-8.149286738231755756e-01,-9.642016595667222134e+00
2.643857069816516248e+00,-8.149772416050569124e-01,-9.641764947165063049e+00
2.644336064387954988e+00,-8.150968489273922035e-01,-9.641167223635958905e+00
2.644114882820710388e+00,-8.151777681828691335e-01,-9.640410177931892477e+00
2.644505445975619651e+00,-8.154681010679376563e-01,-9.640646681135811136e+00
2.645172243444927407e+00,-8.157003216758276221e-01,-9.640936018264532947e+00
2.645234246638230147e+00,-8.159050970206233044e-01,-9.640383483818457222e+00
2.645589891409497074e+00,-8.156456755882697252e-01,-9.640492601192217847e+00
2.646010564990001424e+00,-8.157674323188323084e-01,-9.640608832063907840e+00
2.646097605190251389e+00,-8.161394686927526676e-01,-9.640153195514297835e+00
2.646278482854390379e+00,-8.160543777253399522e-01,-9.640848525027756466e+00
2.646894614468339402e+00,-8.167383058788378891e-01,-9.639993201125980349e+00
2.646862638225836672e+00,-8.165061355692879719e-01,-9.640167456882537067e+00
2.647230553145215382e+00,-8.163456193017123441e-01,-9.639824205128158852e+00
2.647402541817625909e+00,-8.168712294302302723e-01,-9.640236577771359450e+00
2.647767829407826845e+00,-8.170136169629417244e-01,-9.639960174511081448e+00
2.647941630108856081e+00,-8.170409501201799651e-01,-9.639698632735022699e+00
2.648489856744048687e+00,-8.171189557386752123e-01,-9.639587955188646973e+00
2.648450945138596690e+00,-8.174581779746366017e-01,-9.639598073727773553e+00
2.648972727543035699e+00,-8.174513097987311516e-01,-9.639026678946502003e+00
2.649327331599204527e+00,-8.175625040149414602e-01,-9.638805718494820596e+00
2.649642540137487678e+00,-8.176202728878859682e-01,-9.639085786814298729e+00
2.649533434563308365e+00,-8.180454630312717912e-01,-9.638946891183319821e+00
2.650100782087443818e+00,-8.178728975437911108e-01,-9.638364115071627936e+00
2.650156313612274772e+00,-8.181396848114409481e-01,-9.638874126325234215e+00
2.650637468302828204e+00,-8.184912299433670935e-01,-9.639079829430434287e+00
2.650720828816773178e+00,-8.183739348263985303e-01,-9.638247054778629419e+00
2.651203434698041761e+00,-8.186126253999874702e-01,-9.638221050871951689e+00
2.651396243092369875e+00,-8.184502440469769713e-01,-9.637477410908211084e+00
2.651590151397317463e+00,-8.187868452670981068e-01,-9.637475208269444593e+00
2.652096355714297360e+00,-8.185515867474649765e-01,-9.637056154691245879e+00
2.652159485634658864e+00,-8.187609143911606102e-01,-9.637559910043927758e+00
2.652562550215711301e+00,-8.188690644027848409e-01,-9.637538400611235900e+00
2.652777330912226006e+00,-8.192819608896197980e-01,-9.637642334404374012e+00
2.652857853487983419e+00,-8.192243916007462268e-01,-9.636982099810881053e+00
2.653128199159039635e+00,-8.191708853155318382e-01,-9.637353506961764182e+00
2.653498745456934316e+00,-8.194742778773623781e-01,-9.636838448829198711e+00
2.654143404154364116e+00,-8.196866537879262671e-01,-9.636380226001644900e+00
2.653570134490631727e+00,-8.196441738634441254e-01,-9.636632304546768779e+00
2.654172412289861782e+00,-8.195214749739717641e-01,-9.636672606350309422e+00
2.654424008444407956e+00,-8.198607169536129557e-01,-9.636649475205929960e+00
2.654462642603693467e+00,-8.200853622856181246e-01,-9.636223224957475963e+00
2.654776871218001766e+00,-8.200831100482606217e-01,-9.636933804668215586e+00
2.654882441601763343e+00,-8.205787677367841759e-01,-9.636407388556214926e+00
2.655326146455430081e+00,-8.206479451481536458e-01,-9.635826876820168252e+00
2.655410487149377108e+00,-8.203832849798810001e-01,-9.636668499020986545e+00
2.656017310518223429e+00,-8.205507223382436655e-01,-9.635397559853499772e+00
2.656278355734571495e+00,-8.208612711419812635e-01,-9.636088477512986472e+00
2.656393658742497887e+00,-8.206735899532671130e-01,-9.635706143718236305e+00
2.656437937102335667e+00,-8.210302863935690088e-01,-9.634708133684460662e+00
2.656546280887558620e+00,-8.209547901834357564e-01,-9.635217575619602570e+00
2.657080510236561111e+00,-8.212993299908781797e-01,-9.634953542975692287e+00
2.657427792963833468e+00,-8.212886583218937941e-01,-9.635203515584848333e+00
2.657496537691189875e+00,-8.213007050015641575e-01,-9.634812812351626121e+00
2.657812863335245357e+00,-8.217743654055116309e-01,-9.634372359111608830e+00
2.657846583038570021e+00,-8.216034448998141837e-01,-9.634695441341788680e+00
2.658124142424565850e+00,-8.215037919435194125e-01,-9.634494628565644092e+00
2.658520653668235312e+00,-8.217433203546699039e-01,-9.634803327774219994e+00
2.658616229934100961e+00,-8.216810246438143173e-01,-9.634289305190019803e+00
2.658894238031313417e+00,-8.221151255374246070e-01,-9.633785811493719820e+00
2.658944258682758743e+00,-8.220966863384774337e-01,-9.634055053382240885e+00
2.659193264603375351e+00,-8.221209137634025721e-01,-9.634103591622364959e+00
2.659439751311237554e+00,-8.221176088221027189e-01,-9.634174244017335909e+00
2.659488504815318954e+00,-8.224918601726082246e-01,-9.633811172985327076e+00
2.659807565561203901e+00,-8.226019970191396080e-01,-9.633274798316623588e+00
2.660200398218124818e+00,-8.226500202046406196e-01,-9.633235153362035064e+00
2.660115814891373720e+00,-8.224204375325212535e-01,-9.633403085864074455e+00
2.660749262096675949e+00,-8.225306225622291967e-01,-9.632940192494821474e+00
2.660838762811820857e+00,-8.230029434854475578e-01,-9.632906557359666166e+00
2.660974468433470630e+00,-8.229788768669297205e-01,-9.633414752432388539e+00
2.660957504270300866e+00,-8.229101619548835345e-01,-9.633408668292029020e+00
2.661281481902768142e+00,-8.231336916437594908e-01,-9.632899727315082927e+00
2.661743225940386370e+00,-8.234373821396294701e-01,-9.633037741931129716e+00
2.661828921328365904e+00,-8.233120273597067662e-01,-9.632543195430121941e+00
2.662273907727316757e+00,-8.236207650971116845e-01,-9.632473039761830336e+00
2.662201443426249536e+00,-8.237099288148357346e-01,-9.632811324560002220e+00
2.662273898601895450e+00,-8.235709367376365941e-01,-9.632529721286353208e+00
2.662599477065161313e+00,-8.240259805427343487e-01,-9.631891143905535912e+00
2.663002389700512396e+00,-8.239114072047927229e-01,-9.632452296153688920e+00
2.663113740391797268e+00,-8.240216539120555073e-01,-9.632132569301891323e+00
2.663221475901203394e+00,-8.238702914188471560e-01,-9.631263486290329467e+00
2.663191245060075207e+00,-8.241865299995297933e-01,-9.632143127514069647e+00
2.663350296007339413e+00,-8.240405878760794778e-01,-9.631549597721194900e+00
2.663921676845985242e+00,-8.241118782906362572e-01,-9.632461554046736651e+00
2.663670255103209872e+00,-8.242713129884395862e-01,-9.631973963042938180e+00
2.664205017521398933e+00,-8.244463302576039432e-01,-9.631601284893777759e+00
2.664538520417950807e+00,-8.245238754490343824e-01,-9.631415324440046888e+00
2.664505106823450653e+00,-8.247654147255746304e-01,-9.630749095487789901e+00
2.664668844337361620e+00,-8.247109096272605688e-01,-9.631645536847765143e+00
2.665032636298974467e+00,-8.252671427786204550e-01,-9.631495147071088780e+00
2.664847121513000516e+00,-8.249133064723149777e-01,-9.630306113572219218e+00
2.665356478427481246e+00,-8.248626005869179600e-01,-9.630687200792364067e+00
2.665364543847906109e+00,-8.249126901011678559e-01,-9.630053735174023188e+00
2.665423473484200834e+00,-8.251045374781363906e-01,-9.631283117951921824e+00
2.665946478811918485e+00,-8.251467855922353101e-01,-9.630738207456344568e+00
2.666116981962122434e+00,-8.252918789066983063e-01,-9.630304446574143640e+00
2.666186127433907593e+00,-8.254285016692722854e-01,-9.630224738341849999e+00
2.666473729183600039e+00,-8.253488259600181287e-01,-9.630624673761280619e+00
2.666613595104938117e+00,-8.255783094403640332e-01,-9.630003782956780611e+00
2.666675596046977237e+00,-8.255645650803008495e-01,-9.630578646865920689e+00
2.666926426978359910e+00,-8.256718181681889090e-01,-9.630600132922044310e+00
2.667191097463259108e+00,-8.257144809916321382e-01,-9.629753896639648758e+00
2.667245464617336470e+00,-8.258178409877582338e-01,-9.630150350807442194e+00
2.667475997475963645e+00,-8.259656950609205461e-01,-9.629807430096304799e+00
2.667824046691301465e+00,-8.261763145120658569e-01,-9.629536657811170741e+00
2.668058731499147740e+00,-8.259233252287888627e-01,-9.629839557632045910e+00
2.667862160497229684e+00,-8.260291083228850084e-01,-9.629105328132375519e+00
2.668084155726717643e+00,-8.260142161381559545e-01,-9.629936300187351250e+00
2.668784369845778048e+00,-8.263641979546778593e-01,-9.629054962826899100e+00
2.668604352946005953e+00,-8.263351159402765322e-01,-9.629599943966654862e+00
2.668675545312044317e+00,-8.265691429699590920e-01,-9.629254376751765321e+00
2.669124291420237327e+00,-8.267304506609377546e-01,-9.628977467379639776e+00
2.669197617848260595e+00,-8.266912470130451940e-01,-9.628952393342947502e+00
2.669186881433411873e+00,-8.270198471961659470e-01,-9.628262718409432708e+00
2.669523634074727259e+00,-8.264216535401718300e-01,-9.629172698151172938e+00
2.669604526092137053e+00,-8.272537890208698785e-01,-9.628619454105047382e+00
2.669722545011836257e+00,-8.269504888356078443e-01,-9.628347535521463385e+00
2.669954322810505154e+00,-8.269766652445252886e-01,-9.628429619827539199e+00
2.670407923955913976e+00,-8.273900624090280154e-01,-9.628686490687908162e+00
2.670101902271308614e+00,-8.271808204157033995e-01,-9.628216536311530405e+00
2.670221790441154486e+00,-8.271315693782530509e-01,-9.627921342128093585e+00
2.670535115242052449e+00,-8.274490483958880649e-01,-9.628011363040807069e+00
2.670455668829386120e+00,-8.273941575596733822e-01,-9.628861142179374610e+00
2.670784381462220747e+00,-8.276327211875075252e-01,-9.627837631122364570e+00
2.670660195937849313e+00,-8.278672834439236849e-01,-9.628210104263725810e+00
2.671186274816239159e+00,-8.274645450770524713e-01,-9.627901731748567116e+00
2.671305964478564388e+00,-8.277601784342967228e-01,-9.628178243638025435e+00
2.671663219984822479e+00,-8.282245552459285287e-01,-9.628541939627382362e+00
2.671414802973859359e+00,-8.278646724003000390e-01,-9.628606889623197773e+00
2.671605801649877598e+00,-8.275810719552721961e-01,-9.627192920076613092e+00
2.671932499821084939e+00,-8.278370294923170780e-01,-9.627508662917753313e+00
2.671965874781436323e+00,-8.282784668864022759e-01,-9.627156519279912672e+00
2.672137516920208178e+00,-8.284067612220308297e-01,-9.627562916411617877e+00
2.672793941352712643e+00,-8.283250189820725584e-01,-9.626967434860000949e+00
2.672708266356457862e+00,-8.284717562577934569e-01,-9.626915298579728386e+00
2.672651545536806950e+00,-8.280507358230155823e-01,-9.627663430091843111e+00
2.672754353392229554e+00,-8.284651912432442478e-01,-9.627745193725933959e+00
2.672790853214195739e+00,-8.287146487007645002e-01,-9.627184968469864046e+00
2.673075309526166343e+00,-8.282428433875651530e-01,-9.626529539115903589e+00
2.673207025387319913e+00,-8.283333328732049861e-01,-9.627654114699444321e+00
2.673242997199044790e+00,-8.285212193932868230e-01,-9.626730679733668694e+00
2.673432501766018987e+00,-8.286702878985630072e-01,-9.626616321827700773e+00
2.673711605974217420e+00,-8.286427939954332800e-01,-9.626268078310951992e+00
2.673636663161090166e+00,-8.286563136038651578e-01,-9.626377118971250368e+00
2.674289775768406319e+00,-8.289338348045325322e-01,-9.626205380200316242e+00
2.674065889627222248e+00,-8.291515570795109369e-01,-9.626176409302805936e+00
2.673960651874652594e+00,2.074976971392650804e-01,-8.664595687230157495e+00
2.675010888209131465e+00,2.443785003302677006e-01,-8.698751929897367674e+00
2.676020479940099506e+00,2.826297142726752476e-01,-8.730547866017825953e+00
2.676877828740966692e+00,3.219864517635483980e-01,-8.760195968180426007e+00
2.678926601129280272e+00,3.618704409687818480e-01,-8.786468910053827130e+00
2.680278095489039725e+00,4.029152078994419628e-01,-8.811230184926513331e+00
2.682135133737895138e+00,4.445963525894549018e-01,-8.833517338378507944e+00
2.684309860983219664e+00,4.871090631522453918e-01,-8.853826235831954605e+00
2.686973766679159326e+00,5.311873291429560773e-01,-8.873344607629711334e+00
2.688992399711835901e+00,5.753400911453878663e-01,-8.890222392481254232e+00
2.691244533398518879e+00,6.207401578554903043e-01,-8.906988102566115728e+00
2.693737946277623863e+00,6.671321657902662405e-01,-8.922370774310962815e+00
2.696190878640750022e+00,7.141045663350806816e-01,-8.935960122751128054e+00
2.698716892364710240e+00,7.616586054997638300e-01,-8.948329139129912235e+00
2.701205104970091142e+00,8.101265652733973255e-01,-8.961082307974459482e+00
2.704114628230923856e+00,8.594789712966490747e-01,-8.972357970626058332e+00
2.706479458436702235e+00,9.095949535310142720e-01,-8.983427115571842592e+00
2.708984597482634538e+00,9.607350660015007149e-01,-8.992961890500335898e+00
2.711586395010233907e+00,1.011852659780948072e+00,-9.001352345827271506e+00
2.713705650967799698e+00,1.063677486761301250e+00,-9.010070063355374970e+00
2.716439318947593939e+00,1.116136801106608623e+00,-9.018025341361250113e+00
2.718616150899664685e+00,1.169078959454015409e+00,-9.025328677841887526e+00
2.720896242508380247e+00,1.222256220405318672e+00,-9.032575040168039138e+00
2.722773280483206992e+00,1.275615435420876409e+00,-9.038865518723298464e+00
2.724636358448965456e+00,1.329599210005712573e+00,-9.044329567774148870e+00
2.726816779044134442e+00,1.383980701347521824e+00,-9.049726372139989650e+00
2.729138626021403446e+00,1.438042764378481664e+00,-9.055359637363782355e+00
2.730466412952247346e+00,1.492979921897976237e+00,-9.059438940445769362e+00
2.732311904822517956e+00,1.548115440234654194e+00,-9.064349479751676597e+00
2.733707469935988232e+00,1.603163113307269683e+00,-9.067441080187261804e+00
2.735666861353871049e+00,1.658772009936028358e+00,-9.071773067511898603e+00
2.737085031391219836e+00,1.714093675737229594e+00,-9.074727564005394598e+00
2.738110455166237855e+00,1.769456193230872110e+00,-9.077764784468476122e+00
2.739300067980741993e+00,1.825414698951425496e+00,-9.081722080939444552e+00
2.740458735763582787e+00,1.881260634238476337e+00,-9.083582293709776323e+00
2.741225687977230763e+00,1.937616478349388105e+00,-9.086508427905032548e+00
2.742042915888991850e+00,1.993880804408681540e+00,-9.088922394001233585e+00
2.742940266033147001e+00,2.050266769980483517e+00,-9.090852897162486457e+00
2.743334568339835577e+00,2.106644180310020431e+00,-9.092523166213654306e+00
2.744126462221011309e+00,2.163090584304551367e+00,-9.094717306077860997e+00
2.744366279534065534e+00,2.219307651112091051e+00,-9.095699823353253777e+00
2.744217512095707523e+00,2.276014288421336573e+00,-9.096962739260840536e+00
2.744497325170191182e+00,2.332995672472586435e+00,-9.098666010527514558e+00
2.744610638861921359e+00,2.389751722905318676e+00,-9.099465478230481352e+00
2.744137127125596987e+00,2.446551043599299202e+00,-9.100391254948862141e+00
2.743991361681328733e+00,2.503655971474018749e+00,-9.101164863268550675e+00
2.743735288526456539e+00,2.560644697276429849e+00,-9.101515001943472072e+00
2.743387515182027503e+00,2.617600413023035255e+00,-9.101313503597401322e+00
2.742612868170183571e+00,2.674934771916886778e+00,-9.102183463481660297e+00
2.741690011581675801e+00,2.732103171301087485e+00,-9.102283945034715273e+00
2.740720949597441169e+00,2.789330726562631035e+00,-9.102439570808268599e+00
2.740006533291038604e+00,2.846284477827389914e+00,-9.102707414474602743e+00
2.739079608790974341e+00,2.904125396396148862e+00,-9.102640399111495029e+00
2.737559277006678560e+00,2.961281030644422163e+00,-9.102202752238355288e+00
2.736159086562806930e+00,3.018734016581295254e+00,-9.101783896965478959e+00
2.734581740952231499e+00,3.076392204895513238e+00,-9.101063102783884418e+00
2.732915794652964969e+00,3.134180298157750677e+00,-9.100777559635050196e+00
2.731388058674145469e+00,3.191350270552084645e+00,-9.100516322438661376e+00
2.729477883955761630e+00,3.249191219911790718e+00,-9.099328255033830359e+00
2.727616297565577330e+00,3.306795324234548694e+00,-9.099373544687015425e+00
2.725404289166387439e+00,3.362033633008608469e+00,-9.097934368613534772e+00
2.723497400923843959e+00,3.411960825452826640e+00,-9.096686632823020702e+00
2.721952841062870387e+00,3.457075142185886296e+00,-9.094949705549257857e+00
2.720834029659838116e+00,3.497898055460955558e+00,-9.093235242126262108e+00
2.719588472145681557e+00,3.534713956017310199e+00,-9.091138094610647258e+00
2.718846852429230854e+00,3.567750976460656087e+00,-9.089283283929544766e+00
2.717839915811373963e+00,3.597927531071377416e+00,-9.086812073221574693e+00
2.717164581419639457e+00,3.625204661614867430e+00,-9.084100129001194901e+00
2.716621034424239856e+00,3.649547546713661994e+00,-9.081608597595014487e+00
2.716600015716505556e+00,3.671452974675974534e+00,-9.079023444450607272e+00
2.716118985586315038e+00,3.691373290653950701e+00,-9.075448537400564675e+00
2.716364611172995769e+00,3.709153812661023952e+00,-9.072694060522906057e+00
2.716334758775457825e+00,3.725169177239139540e+00,-9.069640765547527295e+00
2.716450916559559392e+00,3.739409555807497565e+00,-9.067073479373883416e+00
2.716439795126329493e+00,3.752472652197056835e+00,-9.064459937671609069e+00
2.716393111997921661e+00,3.763908168366790097e+00,-9.060388763081359542e+00
2.716809855598363743e+00,3.774626716990047370e+00,-9.057634782768740678e+00
2.717583008339255812e+00,3.783508224165878175e+00,-9.054123158795876591e+00
2.717805267161228944e+00,3.791796788753607927e+00,-9.050903534942390749e+00
2.718941760450691358e+00,3.799221399078717809e+00,-9.047493620037043272e+00
2.719179755211048377e+00,3.805669703134173076e+00,-9.044407864106258188e+00
2.719754274953783302e+00,3.811554191487708021e+00,-9.040939757259975451e+00
2.720370308216651267e+00,3.816647242001023344e+00,-9.037656606796264924e+00
2.721167512600856764e+00,3.821016718917416011e+00,-9.034313672586902655e+00
2.721803320221008793e+00,3.825001981758440195e+00,-9.031308063124388497e+00
2.723136022423596092e+00,3.828460202691058356e+00,-9.027247788087580105e+00
2.723688629262484895e+00,3.831114265397876473e+00,-9.024507298988329040e+00
2.724810399172867825e+00,3.833854334241112660e+00,-9.021449697119317435e+00
2.725419492679282296e+00,3.835449243771035466e+00,-9.017012559023555696e+00
2.726437160371513624e+00,3.837245893159681120e+00,-9.014162640219376854e+00
2.727801015569381260e+00,3.839113333576763321e+00,-9.011725684831207062e+00
2.728669958472528467e+00,3.839944673607197601e+00,-9.007498147160488244e+00
2.729645346363643643e+00,3.841019252293964570e+00,-9.004857463654643013e+00
2.730746544221260841e+00,3.841361771792093815e+00,-9.001861003405693396e+00
2.731800727168441245e+00,3.842046073937394723e+00,-8.998051888491319872e+00
2.733076967067042506e+00,3.841990369378317727e+00,-8.994385402589585965e+00
2.734066808240278590e+00,3.842406576011964781e+00,-8.991926874614886600e+00
2.735382088564842107e+00,3.842050166699991998e+00,-8.987802989630338857e+00
2.736250342576861616e+00,3.841717786989126360e+00,-8.985060478219457636e+00
2.737505013002082599e+00,3.841145259563033765e+00,-8.982009589507294223e+00
2.739148695254798316e+00,3.840867625165231392e+00,-8.978802382334087895e+00
2.740052993652233759e+00,3.839694776172944302e+00,-8.975588169132050709e+00
2.740846328181200775e+00,3.839518916145236993e+00,-8.972475089224046130e+00
2.742435378257858325e+00,3.838111273953054958e+00,-8.969503146965239537e+00
2.743692633043508078e+00,3.837330255417110259e+00,-8.966602550426170382e+00
2.744716405160831485e+00,3.836369334252210717e+00,-8.962719397001285060e+00
2.745903445420659672e+00,3.835184370471391269e+00,-8.959840354513502803e+00
2.747678959503854212e+00,3.833518780740559073e+00,-8.956736908331446756e+00
2.748657515149495634e+00,3.832873463398343894e+00,-8.953955317237104694e+00
2.749745563698347439e+00,3.831405025850952217e+00,-8.951140871666600773e+00
2.751771679344857002e+00,3.829792632088256266e+00,-8.947175001094224811e+00
2.752564492121981843e+00,3.828305076200545720e+00,-8.944842950518067326e+00
2.754147262836406096e+00,3.826751132264660349e+00,-8.942287611919281787e+00
2.755154665519347290e+00,3.825092426151424974e+00,-8.939570266115730135e+00
2.756528805840690044e+00,3.823165934133640143e+00,-8.936526087516011074e+00
2.757942296605919719e+00,3.821926378146920822e+00,-8.932934943697901531e+00
2.759437187271674752e+00,3.820354871563910404e+00,-8.930605342372551547e+00
2.760796311484940091e+00,3.818534564876635784e+00,-8.927353269141432790e+00
2.761834533000532055e+00,3.816817982872071191e+00,-8.925115286378563439e+00
2.763381652478293038e+00,3.815034567312118430e+00,-8.922182594198257988e+00
2.765042963359472417e+00,3.813104003654383511e+00,-8.918958228482010142e+00
2.766209074154256875e+00,3.811221035127058787e+00,-8.915859151047101250e+00
2.767871084717166585e+00,3.809754668269449418e+00,-8.913545452945692560e+00
2.768686875974793793e+00,3.807612336051924729e+00,-8.910383132641825910e+00
2.770362754684132067e+00,3.805602863722916673e+00,-8.908488134626342259e+00
2.771968085726787212e+00,3.803815245856433158e+00,-8.905192195419237677e+00
2.772833060392287052e+00,3.802187809584388845e+00,-8.903442021885515700e+00
2.774685206198701515e+00,3.799694177842665610e+00,-8.899693188153083412e+00
2.776226616624838162e+00,3.797888786679280759e+00,-8.897643908473392926e+00
2.777593487864756128e+00,3.796018143378006027e+00,-8.894376174804627055e+00
2.779096563650157670e+00,3.793924657780504806e+00,-8.891669572976011793e+00
2.780180489938892663e+00,3.791851944370941307e+00,-8.889176627204200543e+00
2.781226154797956873e+00,3.789847717959570872e+00,-8.887038909935180087e+00
2.783234866405694952e+00,3.787644399682442486e+00,-8.884207578529343508e+00
2.784728156465332116e+00,3.785393913121146259e+00,-8.880755333245341276e+00
2.786389512675853997e+00,3.783556666426708848e+00,-8.878588028450391079e+00
2.787507962316486676e+00,3.781673176678951975e+00,-8.875385004424849456e+00
2.788974919770978556e+00,3.779519547077853314e+00,-8.872853199575807537e+00
2.790390880313101896e+00,3.777206112947077532e+00,-8.871044767827630295e+00
2.791722158991296165e+00,3.775167858495814599e+00,-8.867802826947229988e+00
2.793369068244382802e+00,3.772633974665643208e+00,-8.865429864706676710e+00
2.794724548767468342e+00,3.770788733782981961e+00,-8.863340842931062724e+00
2.796302711493738880e+00,3.768627269101401556e+00,-8.860918184982203627e+00
2.797348975774704538e+00,3.766296195072146080e+00,-8.858517576620435818e+00
2.799203625678880147e+00,3.764557968059044857e+00,-8.855986158396071062e+00
2.800589594146305039e+00,3.762180401667522656e+00,-8.852953858986465363e+00
2.802217422129475555e+00,3.759555849143115136e+00,-8.851630849345667684e+00
2.803626760741519508e+00,3.757295888124168037e+00,-8.848373157278606627e+00
2.804808395548695099e+00,3.755162066022533551e+00,-8.846254183333996934e+00
2.806631145764566515e+00,3.752900898806158292e+00,-8.844548756082023289e+00
2.808083698281486740e+00,3.750908050953741579e+00,-8.841274589443150589e+00
2.809790965821531206e+00,3.748456531214702903e+00,-8.839305092279147402e+00
2.810915598994689457e+00,3.746256153082372364e+00,-8.836872928648142889e+00
2.812699834680262967e+00,3.743994221126663025e+00,-8.834180394821586901e+00
2.813830830965824870e+00,3.741627700284223756e+00,-8.831904394556142179e+00
2.815420993696540641e+00,3.739531259490243897e+00,-8.830026596164602282e+00
2.816829223515233238e+00,3.737246974839488090e+00,-8.827301282304334862e+00
2.818577019470029033e+00,3.734373723055100402e+00,-8.825973339296163900e+00
2.820418126396649239e+00,3.732434348243651279e+00,-8.823035817052680585e+00
2.821521238908906160e+00,3.729899495586435521e+00,-8.820419177157893031e+00
2.822986771264679007e+00,3.727828449815682177e+00,-8.818059209485864969e+00
2.824609009076113342e+00,3.725654890794686924e+00,-8.816052784975626722e+00
2.826544595108746449e+00,3.722790380534990895e+00,-8.813288053648790310e+00
2.827433016649247843e+00,3.720452862821378659e+00,-8.811588308534926028e+00
2.829073906626349277e+00,3.718156041575972015e+00,-8.808785714428100988e+00
2.831112792899461272e+00,3.715850767343704675e+00,-8.806816574403525166e+00
2.832141529285517212e+00,3.713520433542726540e+00,-8.805153968405376119e+00
2.833433666773870652e+00,3.711319510719422343e+00,-8.803145180731142716e+00
2.835346796523853463e+00,3.709192567002435048e+00,-8.800106176957005033e+00
2.836638084364923706e+00,3.706727789459374200e+00,-8.798737997710565750e+00
2.838555516931160483e+00,3.704237482755569300e+00,-8.796375711565110223e+00
2.839992652722727051e+00,3.701795963020894753e+00,-8.794325640273703115e+00
2.841405622705267309e+00,3.699416656804454639e+00,-8.792073931172357248e+00
2.842989246281978133e+00,3.696814817133980302e+00,-8.789972760790309536e+00
2.844744729457989951e+00,3.694454721979844702e+00,-8.787554860688622682e+00
2.846168189403935678e+00,3.692187438768741004e+00,-8.786003839076053978e+00
2.847601748016741041e+00,3.689601029697653356e+00,-8.783896084445160568e+00
2.849056740552081024e+00,3.687280742893001229e+00,-8.781814627409893603e+00
2.850625847053351869e+00,3.684813645817074601e+00,-8.780200426927789792e+00
2.852332627886956740e+00,3.682276910467906283e+00,-8.778381797919944773e+00
2.853892147967957538e+00,3.680122025376576733e+00,-8.775989226072475446e+00
2.855666835905852352e+00,3.677443518280581802e+00,-8.773739802731277848e+00
2.857144269585026652e+00,3.675256632327549511e+00,-8.771543064659416800e+00
2.858675130837005085e+00,3.672899396071240830e+00,-8.769495916605791308e+00
2.860079086279916805e+00,3.670317639377008057e+00,-8.768004758562836898e+00
2.861460644178355217e+00,3.668133262868778832e+00,-8.765518316892356054e+00
2.862907784461081739e+00,3.665678177882081723e+00,-8.764140153728718019e+00
2.865005914984183111e+00,3.662943475124414316e+00,-8.761877714160810626e+00
2.866471898804468399e+00,3.660262329764877087e+00,-8.760065691830485335e+00
2.868075567503428847e+00,3.658083438054856362e+00,-8.757144446177965946e+00
2.869540011000581980e+00,3.655458852597305963e+00,-8.756005348094481278e+00
2.871051192573868427e+00,3.652988786016975631e+00,-8.754556572977589823e+00
2.872722621592310510e+00,3.650896252819418208e+00,-8.752535757301194153e+00
2.874142769022207222e+00,3.648070385874504495e+00,-8.749897934931516019e+00
2.875741176664577736e+00,3.645985008111712666e+00,-8.748294532824354874e+00
2.877507335116881837e+00,3.643312401026665537e+00,-8.746083184896262352e+00
2.879111421215357236e+00,3.640904522898845919e+00,-8.744300979192734857e+00
2.880253963521289151e+00,3.637694080745837777e+00,-8.742765667838238386e+00
2.882118797610541350e+00,3.636197605153482559e+00,-8.740929640680908719e+00
2.883587236772353180e+00,3.633649218237942513e+00,-8.739068433587819484e+00
2.885264283123517348e+00,3.630800650302929533e+00,-9.737638242835695124e+00
2.886650680727458340e+00,3.627563196106523780e+00,-9.735861280626082248e+00
2.888287750228994533e+00,3.624136661137465687e+00,-9.734459278300507279e+00
2.890211518279949932e+00,3.620764581580070640e+00,-9.731611579020444935e+00
2.891446028844900873e+00,3.617622921956356485e+00,-9.730233598272342022e+00
2.893082133533145139e+00,3.614009306368818564e+00,-9.728678738471069565e+00
2.894584006326921699e+00,3.610458317291699970e+00,-9.726438229491909837e+00
2.896252078319651257e+00,3.607506434762312697e+00,-9.724690365257767866e+00
2.897702224950178707e+00,3.603991213893366741e+00,-9.722877612474647435e+00
2.899191981542666774e+00,3.600513889292711767e+00,-9.721220689406395721e+00
2.900676753388947926e+00,3.597143701612102173e+00,-9.719713821527083297e+00
2.902363047171349297e+00,3.593852420673818493e+00,-9.717843305722830394e+00
2.903627546558029238e+00,3.590932629062070003e+00,-9.715816381914489597e+00
2.905151756982734312e+00,3.587201765537791687e+00,-9.714442343153891102e+00
2.906871259464501200e+00,3.583812373939777807e+00,-9.712680668531595174e+00
2.908638676462437456e+00,3.580646127810651169e+00,-9.711095082044790772e+00
2.910100097721709744e+00,3.577425464774539154e+00,-9.709062107038324285e+00
2.911649913964114322e+00,3.574311119090144206e+00,-9.707815109134600107e+00
2.913059210576114832e+00,3.571124845315831298e+00,-9.706251619102086892e+00
2.914924750593875125e+00,3.567612894774980337e+00,-9.704273808058555773e+00
2.916452693925945194e+00,3.564815306878282186e+00,-9.702707057559049275e+00
2.917908646708298193e+00,3.561240728747800954e+00,-9.701384416902028462e+00
2.919223822213733222e+00,3.558099967912230710e+00,-9.699661673480219903e+00
2.921602367791926280e+00,3.555158462551085474e+00,-9.698138301013869977e+00
2.923009005010927197e+00,3.551660310162580103e+00,-9.696640757874721572e+00
2.924159133326117654e+00,3.548252697593646143e+00,-9.694983153130312559e+00
2.926005254915454490e+00,3.545049755708509664e+00,-9.693165375636862535e+00
2.927562570935381636e+00,3.541941622791832778e+00,-9.691300100509922189e+00
2.929296768569357390e+00,3.538498036364086108e+00,-9.690343601119321804e+00
2.930746089652846553e+00,3.536005157262896326e+00,-9.687842566796645016e+00
2.932315914886063357e+00,3.532630156412548850e+00,-9.686873971621659862e+00
2.933596404080430098e+00,3.529497628824598721e+00,-9.685270672909535250e+00
2.935452005353620386e+00,3.526075241556549500e+00,-9.683764713818931114e+00
2.936992361281107744e+00,3.523150684253216536e+00,-9.682112069013719235e+00
2.938581550442503243e+00,3.520133767958620208e+00,-9.680793573576099931e+00
2.940550433195816105e+00,3.517018362492865702e+00,-9.678687893776439566e+00
2.941551012995368808e+00,3.513718584909219622e+00,-9.677223479050217847e+00
2.943577331385868412e+00,3.510697983123049593e+00,-9.675694016005332188e+00
2.944787351625472560e+00,3.507581927565439628e+00,-9.674523843564431402e+00
2.946712886841435175e+00,3.504209018037760970e+00,-9.673017734001273737e+00
2.948526797252611242e+00,3.501704017548351366e+00,-9.671271962138586531e+00
2.949848481671826228e+00,3.498459349814887709e+00,-9.669323369886489772e+00
2.951578150432979442e+00,3.495023848306882730e+00,-9.668571232760656997e+00
2.952982207290109962e+00,3.492127472784022135e+00,-9.666959099626113883e+00
2.954226359265223145e+00,3.488869610129060383e+00,-9.665340065908939238e+00
2.956123015509753316e+00,3.485817856575460727e+00,-9.663861360524578004e+00
2.957937294698201214e+00,3.482903525681000367e+00,-9.662869288534718493e+00
2.959712767429087954e+00,3.479822883661566113e+00,-9.661356279120441926e+00
2.960687110750460871e+00,3.476973450806970956e+00,-9.659424423004852045e+00
2.962708894917511326e+00,3.473861569040882280e+00,-9.658108019274086686e+00
2.964363772993892088e+00,3.470749590258262796e+00,-9.657046954778895298e+00
2.965653417625066179e+00,3.467881371384471834e+00,-9.654618060957011139e+00
2.967361741317060542e+00,3.464720380075133832e+00,-9.654343874453839902e+00
2.968858908685326092e+00,3.461884009301600784e+00,-9.652970267547550165e+00
2.970430988098441194e+00,3.458636342781732154e+00,-9.651207520538006790e+00
2.972303099424597583e+00,3.456049339736336545e+00,-9.649924802264056467e+00
2.973646161840138191e+00,3.452766977624949885e+00,-9.649009613220105308e+00
2.975098843906000656e+00,3.450338145050475980e+00,-9.647327027108671516e+00
2.976884951234118226e+00,3.447211218259611964e+00,-9.645394335764303051e+00
2.978337758998189422e+00,3.444115125225895024e+00,-9.644279050621239691e+00
2.979976370171947053e+00,3.441203719313513432e+00,-9.643019205452096898e+00
