gyro_x (deg/s),gyro_y (deg/s),gyro_z (deg/s)
1.613960928052166587e-03,2.119263680466686606e-03,2.199656291147202188e-03
9.260903821532213585e-04,-4.045729291105119689e-03,2.882857591743698700e-03
-1.275325325967535629e-03,2.231880481607394912e-03,7.872396808064582082e-04
7.050712373717063150e-04,-4.364185438580157894e-03,6.557761068809760249e-04
1.097072522989582782e-03,-2.379230614031297569e-03,-8.985933888834733230e-04
-1.213096536519709832e-03,1.951306124052867841e-04,1.791041651587164593e-03
1.416030966670644119e-03,-1.069647262024928623e-03,-2.261597239317537748e-03
-1.873743590453394274e-03,-2.691937715751055362e-03,-1.758366890095975580e-03
2.237331649123310180e-03,4.602830673063086631e-03,2.972093840071471024e-03
-2.260350984212871738e-03,-2.802768341194561072e-03,-2.867334975626701851e-03
1.952184387415826291e-04,5.351448065482428476e-03,-2.895288759099273767e-04
2.417721774221092898e-03,1.254874501505797400e-03,-4.236485059434155743e-04
1.282886814944824089e-03,7.615690785664770267e-04,-8.404770126865491412e-04
3.973961946583467672e-03,1.832807001936637148e-03,-6.333611876904245456e-04
2.849303897085195270e-03,8.286051544739054002e-04,-5.533387602918222363e-04
-7.097629025410550881e-04,-2.464214909199043905e-03,-7.953617627511899713e-04
-2.539718912841502745e-03,-3.501947615524384546e-03,-1.407575231835498167e-03
-2.151586772920876210e-03,-2.621893724246745182e-03,-3.357683053377210508e-04
-9.409783421805190020e-05,5.791263568831674959e-03,-1.549600537857450354e-03
1.934314663665438272e-03,1.241868853138780246e-03,3.711516021182966938e-04
1.170396282768176475e-03,-4.713866915262108007e-03,-1.619930484235045619e-03
-2.266350647219070313e-03,2.747478170240483849e-03,4.080464418033819809e-04
-5.190777006974950716e-03,-1.890974624592310074e-03,2.863400901072421859e-03
-3.332524588086439258e-03,1.344534282054387752e-03,-7.731308762201613343e-04
1.823944437182417957e-03,2.891455071725290010e-03,-5.778378967771506843e-03
-7.476331036703971799e-04,1.220086686101880171e-03,-4.450773544953405200e-03
9.722211677875618402e-04,-2.112563790339785398e-03,-3.116254182283654910e-03
2.033602784502835763e-03,-5.090033453126770581e-04,-3.004538989930988484e-03
5.402790343091909680e-04,-1.944957799956789591e-03,-4.424414496956537764e-04
8.402524194205757352e-04,5.037082810988541964e-03,-4.510618084007855452e-03
-7.042950247984452712e-04,4.514871993703243984e-03,-8.211250360116524507e-04
-3.512538624654981331e-03,1.007088678268985035e-04,1.043613367403014355e-03
2.696928593014974278e-03,-1.146936343835390076e-04,-2.530908353352404744e-03
2.170551606887602403e-03,-4.583721515158561445e-04,-6.271434747480112738e-03
2.597133092380526139e-03,3.290656333846239050e-04,-5.438318909565677262e-03
5.230609465665372795e-04,3.868192074902464771e-03,-4.540434632175209843e-04
-1.415266167837648387e-03,3.897541662266673819e-03,2.212511453086574674e-03
-1.093807837666540108e-03,1.604678106197123585e-03,-2.802239564589760999e-03
-4.319399035479579152e-03,-4.903363376174180339e-03,-3.518184882560856393e-05
-2.117378750375185654e-03,-9.587603648662399933e-05,-5.973910727952163203e-04
-2.592268244574957078e-03,1.224753006046185554e-03,1.557811079684488049e-03
-3.226298452766356907e-04,1.513678470299937087e-03,-3.129496609286161728e-03
-4.192434719704578035e-04,5.841274196402097742e-04,4.741756121347438465e-04
-2.719857311211287647e-03,-2.639027036542386257e-03,-9.495792539714130020e-04
-1.042762598010027160e-03,-4.364527693077220469e-05,-1.974825583895495687e-03
1.978616927186623801e-03,-5.751387140318809689e-03,8.565475908259994903e-04
-1.140683718046203417e-03,4.050358820805419912e-05,-8.924810259178678771e-05
-2.823744754632125879e-03,-5.113968300532263991e-03,1.731517428544278314e-03
-1.112782455378805721e-03,2.460867100164322412e-03,3.700411188355088058e-04
-1.516644582050211132e-03,-3.980424289966573957e-03,1.395545883128336724e-03
-8.637064238458305038e-04,1.804535219260813405e-03,3.527061048386652062e-03
3.644479887328974242e-04,-4.024538234167870238e-03,-2.117085067339045251e-03
-1.500886765994738879e-03,3.304115571040577501e-03,-5.152744306610195684e-04
-5.218053656727440932e-03,-4.701059781676540390e-04,2.408469589675053899e-03
-1.498802748078885329e-03,-2.768027286492215095e-03,9.258957087655406810e-05
4.442440176009724781e-03,1.476980485480355919e-03,-2.878423406297172301e-03
-1.448918054754324333e-03,-2.718048986815717501e-03,1.957079888419444372e-03
2.582458850239613890e-04,-2.670283573303799691e-03,-2.205234981994663029e-03
-1.562209036128478848e-03,-3.166336575825606445e-03,3.263964711042826455e-03
-6.840164936203537577e-04,1.096969330393514136e-03,1.642595192545640405e-03
4.589098311237404886e-04,-4.614228797309449098e-03,1.892979710908043300e-03
-1.670446015063643819e-03,-3.999169498080335124e-03,-1.095254847420617844e-06
1.311947731099230140e-03,-2.467290216581753421e-03,9.261065527951810490e-04
4.184580608189769949e-04,9.995496675129060277e-04,-2.880522928525988463e-04
-6.026464229422686184e-03,-2.001733171030620553e-03,4.404206394549724408e-03
-3.009225038605887938e-04,1.879904474333302350e-04,-5.980910680377600486e-03
2.572096505749660745e-03,-5.149613156010168693e-04,-8.763606932609632489e-04
3.460762914828114235e-04,9.941003740990333667e-04,1.586736409121618143e-03
-2.268773852304588855e-03,-2.899518527993609138e-03,-2.004972362562985541e-03
2.373571094261516662e-03,1.783646760554116924e-03,-2.059158032587523994e-03
-5.373323788394809017e-04,3.781510585386101651e-03,-1.485756775930410604e-03
1.763620148870735649e-03,9.765990949017610157e-04,-4.427476091259339129e-03
2.798761185672282974e-03,-5.920494230521727028e-04,-6.876276665944467716e-03
-2.787185575940865495e-03,1.406267718608736426e-03,1.847274749741777437e-03
2.216243837522095632e-03,9.723881174072292579e-04,1.969120059393730370e-03
-7.401992910165229242e-04,7.106787037318487970e-04,-4.793223663017964417e-03
-3.321404382813695697e-03,-2.211783667473106018e-03,2.942221790168031881e-04
-1.588816773464894186e-03,-1.267404410684541032e-03,1.249636445367452919e-03
4.592677555782484142e-03,-1.380655563256665865e-03,4.698558646002058085e-04
2.807319699686879359e-04,6.122740456905286822e-03,-1.114822660398777100e-04
4.440193998364140755e-03,-2.779167207155757314e-03,1.840792802824085372e-03
-1.476594846013481186e-03,4.113003238831316327e-03,-3.581481540329547238e-03
-2.143574857048266211e-03,3.711942906646148108e-03,4.925370214311273033e-04
-3.417120426438076310e-03,-2.388415425693642732e-03,2.078293440706677469e-03
2.639905404790025400e-03,1.471671538089533351e-03,2.326878986923130999e-03
-1.729282960619137142e-03,1.746400215595646536e-03,3.643905834533136840e-03
-1.538987322032242143e-03,-3.915355403095862545e-05,-5.087598345677069901e-03
1.123351761699351541e-04,2.301621496879470083e-03,5.203997882602587506e-03
2.695197262014918638e-04,1.740053131071702189e-03,-1.686945933097893898e-03
-1.620254446216393054e-04,-1.373126902276869008e-03,-1.015198660604392267e-04
1.716034941386119193e-03,4.952498200213356801e-03,3.103850917092868672e-03
-7.111550594671744475e-04,-7.980184698159318744e-04,1.040073555324391155e-03
1.473621196147719423e-03,2.473624476793953933e-03,7.745884296936141229e-04
-5.675957044263206085e-04,-1.037741294539530580e-03,-3.001534365702769862e-03
6.126970932352841228e-04,-4.132405558602112068e-04,5.072852236318307027e-03
-1.450065083068245372e-03,2.625370137071700045e-03,2.866743870572546499e-03
-7.908415034128187275e-04,4.510972849479146993e-03,2.088942674299740059e-03
3.065853686949151537e-03,3.971750907860492098e-03,-3.701569232185868662e-03
3.988760018936353402e-03,2.354695085597657399e-03,-2.767640069957432673e-03
-2.539040590112720628e-03,-2.726040160851428418e-03,1.172375460577174512e-03
-5.128120125876436779e-04,-1.137698084626646757e-03,1.622136809531712432e-03
1.233479150537933897e-03,7.734518814776962601e-04,-2.618605251229482941e-03
-3.852562248205849017e-03,-2.404582383690846183e-03,-4.724556999279912596e-04
-1.803802159171051360e-04,-9.230078433472350312e-04,-1.785102316998208390e-04
3.519893258130264626e-03,1.828385749265293986e-03,-5.867929785123178195e-05
-2.705183967581659219e-03,8.570908120303604013e-04,4.404645129735295858e-03
-3.088679948280513999e-03,-1.937956899003755997e-03,-1.386977460479588446e-03
-4.246194344570350561e-03,2.448274497299826602e-03,1.934049930540562108e-03
1.414605333378597066e-03,-6.047884774630022785e-04,4.716394281828506334e-03
7.055853567677951284e-07,1.512256954593155624e-03,2.061722028196896414e-03
1.962588705815583850e-03,1.272339030750306696e-04,-5.008703629842356855e-03
4.778983698811586391e-03,-4.117821780592819357e-03,3.416723379567367970e-03
2.034341535460455330e-03,2.599433277293925620e-03,1.585439478603656608e-03
6.113713005759619130e-03,-6.380481290535257657e-03,-2.535110116301193210e-03
-1.398469272476680816e-03,-4.705208626142347826e-03,-6.431187905101893492e-04
-2.993353116947197398e-03,6.444936362890081333e-05,2.086681800351727987e-03
3.220342807533278670e-05,4.032512692891846579e-03,2.335476392750297520e-03
3.515666644930815106e-03,5.168506223706983288e-03,-2.270579347864050065e-03
-2.241687898443236494e-03,-1.268907660023399324e-03,-4.693002519141624591e-03
-1.083144184472130791e-03,5.578017516753137027e-03,4.635542594223061690e-03
-1.390521529123243082e-03,1.113371320477769691e-03,-1.123313308833944445e-03
3.743359472466147725e-03,-1.111590763284290998e-03,1.206057080530152171e-03
1.016665086897183172e-03,3.432880722973375202e-04,6.076089504681193984e-04
-1.840996246559497120e-03,9.362851783767714951e-04,3.058397290080110131e-03
1.967139947065283528e-03,1.845661326837078411e-03,-5.292291481427782371e-03
2.043080824924010247e-03,-3.305536314707530413e-03,2.614143136422976952e-04
-3.747031175648749945e-03,1.438288198359420871e-04,1.518511370894298892e-04
-4.156824496581191901e-03,-2.334434116496426903e-03,8.808759781317206236e-04
-4.599679784365339787e-03,2.836833948533407394e-04,-2.510813356484039964e-03
-2.827183121275262442e-03,-2.091081875034425403e-03,1.527487317959532733e-03
3.826492773013941834e-03,-3.764999935549368654e-03,3.613724379268323794e-03
9.717278705082451609e-04,8.743636738911435887e-04,2.408591424498900731e-03
2.723685564672800267e-03,3.558770560095771113e-05,1.274267308486269233e-03
9.030678452363932653e-04,-1.678128857615340808e-03,-3.187251582589301340e-03
2.508081331805833356e-03,1.247562716317312560e-03,-2.250070724253865929e-03
2.651714355613749713e-03,-1.353413563155707973e-03,-2.524603905949162307e-03
-1.315276397127066463e-03,-2.837837755158605958e-03,3.771140059995705101e-03
1.124784119221525647e-03,-6.134488815626312156e-04,1.485199194815467558e-03
-4.959821303526380218e-05,1.690898125691773319e-03,1.857707574386078522e-03
1.381791426196612776e-03,7.851471901543155075e-04,-4.820210139985368035e-03
9.549413091940944310e-04,-1.991092623900470211e-03,8.126683236186664841e-04
4.554404372746112366e-03,3.234262462386120179e-03,-6.192654822483161133e-03
-2.632316907268165973e-03,1.324651509246137487e-03,-2.976154093785652807e-03
-1.631424368518670899e-03,6.640577884031424391e-03,-4.843519525658953120e-03
2.872373789589024486e-03,3.347815331012090213e-03,-1.676812378767572609e-03
-3.786393352412256805e-03,-3.148392803438609770e-03,3.922196994810731269e-04
9.841888079818179435e-04,1.056123639500967628e-04,1.677574617333860499e-04
1.052854317487847603e-04,-1.418538940452884626e-03,-2.655450207529165031e-03
1.721726166109626950e-03,-2.436377081040484206e-03,1.805242823879308180e-03
-1.261726611512980405e-04,-2.317728533593260091e-03,3.856575136463776530e-05
-7.049162362150638780e-04,3.366398921629680172e-03,4.530069999599335337e-04
3.664663184917905502e-03,1.288389652389285199e-03,4.419334985148851841e-03
-1.103976567356404048e-03,2.504198552697413024e-03,-5.260957068273548407e-03
-1.497668969856740884e-03,1.956224422464674861e-05,6.009973409300850859e-04
-1.236969985245473511e-04,1.952695321052587678e-03,-1.698634118537408323e-04
2.448312368536745623e-03,1.581314165238758770e-03,1.440921028956031972e-03
3.251162282638138520e-04,-5.228724617475412079e-05,1.339202259442623692e-03
-1.577411702633633702e-03,-3.816834888959327442e-03,-2.833818588470860358e-04
7.734318049957976567e-04,-2.394306977320831593e-03,-2.060538520673815040e-03
1.259795135140197178e-03,4.272964636613543754e-03,3.607897410101480653e-03
-3.036829945698558096e-03,2.225010930169671677e-03,-3.187237904875101380e-03
-4.969313672099966118e-04,-7.433920288420243535e-06,2.597339731198034570e-03
4.770139775051514784e-03,1.590941949393928070e-03,1.314773267690897210e-03
2.009385031365925733e-03,-9.746606562072647646e-04,1.740991625721476045e-03
-2.222612049301011736e-03,-7.531558552383748814e-03,-4.974602299611739342e-04
1.777574692825603826e-03,-1.033369708865230477e-04,-6.498951698312451473e-03
5.024264111166334024e-04,-2.562598980447786026e-03,-3.215644459860920751e-03
1.326475579494544718e-03,-1.064939902242390164e-03,3.668674517751949627e-03
-2.872739682143340099e-03,3.835103268347870697e-03,-1.840589338071584079e-03
-1.229812524056650988e-03,2.238987325286271018e-03,-2.288808784719110687e-03
2.811369440943817678e-03,-1.978598062789872943e-03,-5.731326202007672220e-04
1.463965079651537767e-03,-5.134217109357638344e-04,-1.360449578649804320e-05
1.589857844371691132e-03,5.093758227958893178e-04,9.752348352368068627e-04
-1.110735896935068816e-03,9.566185313038152961e-04,2.282752130730997947e-03
2.073819630937053220e-03,7.266581840427634859e-04,-1.013488096327886745e-03
-1.545196348742254892e-03,-2.822391297448826469e-03,-2.507209653455049446e-03
-1.473038954296665860e-03,3.600691490325187184e-03,4.011775998649198469e-03
-1.932436534137968985e-04,-3.971626946288285380e-03,2.722389478248832435e-03
-3.764193785761876126e-04,3.629281489090509672e-03,-3.956612112203067994e-03
3.196437998237734550e-03,-2.524635433334965467e-03,8.433678332988652718e-04
7.433088127612222894e-04,-2.396829922570633230e-03,-9.261618149150258657e-04
-8.998965404987336518e-05,9.833774347564989363e-04,-1.927294261820264656e-03
-3.019918247227115857e-03,-3.065486385088217903e-04,2.118419635450335872e-03
1.064044387536217790e-04,-1.526241275485771143e-03,4.101182430996944822e-03
-8.688249377606619035e-04,7.271031518188614262e-03,1.025517566130235885e-03
2.033539215555763349e-03,-4.838749347745327153e-03,-1.536161422675005319e-03
-1.059329362604401279e-03,4.647061436765864760e-04,2.908318084653045872e-03
9.835963574599904200e-04,2.380238145823108161e-03,-1.617009534839900214e-03
1.551994938142347777e-03,1.262610984318573212e-03,-3.938410627542431909e-03
-7.956835207687774306e-04,-1.668148637007148575e-03,1.002961598616421536e-03
-1.913171369203080620e-03,4.311193039520902124e-04,-2.492577860198103446e-03
-2.578787217739871192e-03,1.002414066496872544e-03,-3.800856480718464193e-03
1.867720765794921413e-03,2.371875123348928579e-03,1.706563966390025212e-03
-2.032742770017225906e-03,-3.317673855126690528e-03,-3.665838613392737033e-03
-3.727380951480042948e-03,2.748235219650918028e-03,4.896512970739911848e-04
-6.463773298948900055e-04,2.857215858657374992e-03,-1.670817473669521146e-03
3.609685547311798377e-03,-2.835560987343771402e-03,-3.646399121466440459e-03
4.505447446526875902e-04,1.413234612241259618e-03,1.692575213434047111e-03
-4.187193426106549862e-03,3.109923707789470811e-03,2.486262085456500751e-03
9.191818582408847532e-04,3.185049925535548502e-03,1.353998337317658101e-03
2.672997979889272461e-03,-4.199606983837351581e-04,-3.811368807233248435e-03
1.852743334005366995e-03,-1.882681343194232563e-03,-3.202832389296472737e-03
1.653564587018292427e-03,-2.404337176690158695e-04,6.002398156233813148e-03
-1.508201780743134832e-04,-2.997425651889147873e-03,-5.584448959872959621e-05
1.814029050263705730e-03,1.059632271286337817e-03,1.710564818374140132e-04
-9.776237193468383362e-04,2.446199693145022745e-03,5.003027489868918168e-03
-3.167894134753885632e-05,-3.831311278411030780e-03,1.123115736696235533e-03
8.803697201305793951e-04,6.927032464896295139e-05,-3.327861921727470057e-03
8.666626590909731276e-04,-4.705056945205890657e-04,2.682664330427086269e-03
-1.757732989088411999e-03,1.236564805973216011e-03,1.131671762093277266e-03
1.986731731069856389e-03,-3.188107842523035199e-03,2.443773002997163928e-03
-7.105236749752633042e-04,-4.086322655285412392e-04,-4.354658924528471975e-03
-1.623863753783276595e-03,9.450060919599614266e-04,-6.927749532188106490e-03
-2.096273832250970023e-03,-1.826548749495258495e-03,-2.271154535472983283e-03
1.343737357582885624e-03,-1.089662168259078251e-03,-2.046118468752793453e-04
1.567811909857994186e-03,-3.465176381009497323e-03,-1.061508031718980160e-03
9.899640677608532134e-04,9.168740330404984281e-04,-1.608664610199801162e-03
-3.657142800687712258e-03,2.742996950568551539e-04,-3.758512256830741881e-04
5.722727230026318675e-03,-8.425349275357875770e-04,1.241833335523866415e-03
1.750587473029061947e-03,-1.602137051709571092e-03,-3.443443811680792048e-03
2.823994450042180849e-03,1.583669938000747393e-03,-1.486025129281604495e-03
-1.084594561524747629e-03,-3.192627622585853930e-03,-6.098886815456925486e-04
4.103763776926284447e-03,4.166351807206376823e-03,-1.977291030721584943e-03
4.797529463555227219e-03,3.399098176528912284e-03,1.681702946746041569e-03
9.350029419279333193e-05,-2.984626035947182503e-04,-2.554397902819675707e-04
1.442502425970185577e-03,-2.501409790620113659e-03,-1.788322639801931662e-03
-2.526443989174738392e-03,2.844613826994160828e-03,2.086662498573411701e-03
2.446374605785663243e-03,2.092503141779882871e-03,-6.434541324889306432e-04
1.060489673398175841e-05,4.875431821602605777e-03,1.280043796400098073e-04
-5.350826596891489944e-04,-3.404121300232630393e-03,1.962383261537544062e-03
4.679102020564519034e-04,2.076954198971727329e-03,-4.396390258619468309e-04
-6.193475450125128946e-04,-4.122827256296073798e-04,-2.968013370226489905e-03
-8.319494853472452628e-04,8.296248416144796564e-04,3.707870069998752717e-03
-3.196815410557295612e-03,1.829372934843071560e-03,1.811108084802267064e-03
8.956813092288209944e-04,-2.611250669100998855e-03,-5.100689763140629296e-04
1.242296045839508993e-03,-2.557569728961114116e-03,-2.064438185772248316e-03
2.523845538182743851e-03,8.889865890735112455e-04,2.745371831650371105e-04
-1.271300153451038932e-03,-1.208111479905824058e-03,2.914447520643726613e-03
-1.569047118913793589e-03,9.609547625133858491e-04,-3.299091246246934391e-03
4.424893491070092631e-03,1.367682834861469509e-03,1.146057345924543372e-03
1.272878816906721378e-03,-2.114274798933111262e-03,1.911587306410913317e-03
-1.330173581707677719e-03,6.744956363541779014e-03,-2.119811593199153518e-03
-3.498925724619174078e-03,7.713688743413158518e-04,3.260338226875125235e-03
-4.278227686328925014e-03,-2.832516100171311550e-03,-1.787193209952540234e-03
3.060819701879617140e-03,8.566688797831616782e-04,-2.126808655876235264e-04
5.297581644185364765e-04,2.016039815586380402e-03,-2.079214688859244622e-03
-1.055642329628119587e-03,-1.268745524966459460e-04,4.995025669583971761e-03
4.231329384211101989e-03,-7.798402299846754699e-04,-4.514869288423227923e-04
-6.127473383719090716e-05,1.719688569231600690e-03,-1.372688351413532768e-04
1.615531705847472396e-03,-4.635081541967063339e-03,1.553460270252946755e-03
5.203380275291407146e-04,-3.764965380219722785e-03,-2.215416373522612146e-03
-1.557398574978229510e-03,7.515830018198299892e-04,1.618472322958110698e-04
-3.613503890997949147e-03,-1.536089193519701596e-03,6.167957749530915586e-03
2.912395501730294378e-03,3.373446499527225136e-03,-1.678802980287347245e-03
3.471904335674217638e-03,3.027570270728066528e-03,-3.935978302989078540e-05
5.039945705868706036e-03,-2.935330397138221498e-03,-2.552174577641510948e-03
-2.142460567922595347e-03,1.027649304512473234e-03,2.413995008987014201e-03
1.022293283053648681e-05,-8.548016303637533597e-05,-1.042536535642601611e-03
-4.812350292989894460e-04,-4.382136023031651256e-03,1.102523149470304407e-03
-4.063226447794562358e-03,-6.672362576907594003e-03,3.687492687024190256e-03
-8.463140754355833731e-04,9.070086570324173512e-04,-4.327968965715711137e-03
7.857779633108499069e-04,-2.924631400073931034e-03,-2.142702243405728100e-03
-3.781949279706814620e-04,1.015738203507937035e-03,1.072155991045190340e-03
4.823519580258400427e-03,-9.014100405402906112e-05,1.765900988372002666e-04
-4.577967674758044204e-03,1.016277662375540810e-03,-1.326052317788135090e-03
2.794001230142555137e-03,1.884186991877685171e-03,1.860410679046929422e-03
-1.386849241673301491e-03,-2.032958410351993345e-03,9.724983207689316244e-05
-1.717540812887841930e-03,-5.872332858638112073e-03,2.384052512252233906e-03
-2.662503079645889368e-03,6.189759546013166294e-04,-4.837901528548903133e-04
6.023926603364687616e-04,2.667355975514596345e-03,-2.370300676413229887e-04
3.716146127543106317e-03,7.503875802982583765e-04,1.193081893257663038e-04
1.915518317639133914e-03,-3.467215537503822321e-03,-1.909116830489243112e-03
-1.566651984915535915e-03,7.722416750539233586e-04,3.825743194587774652e-03
7.314360420665104532e-04,3.211765027360303365e-03,1.761544452569429502e-03
1.543179435052431355e-03,1.504713319016768918e-03,-4.930451508003193088e-03
1.660065128636164719e-03,-8.513521911507695734e-04,-2.257719066683276134e-03
-2.708040666447752119e-03,-2.128442435396969267e-03,2.339064880401812725e-03
-2.126939536953644525e-04,-6.027945981861646506e-03,-8.502612692862898235e-04
3.893361999963277243e-03,-4.050053181632201106e-03,7.057677852915749794e-04
-1.300693628071668414e-04,1.910486212324529138e-03,1.651839566839562483e-03
1.539015371243844391e-03,-1.065635975950187308e-03,1.245402433651983084e-03
1.022867063164495773e-03,4.422999039523390903e-04,-1.438391750814346369e-04
-4.217803665381747208e-04,7.828557211083411694e-04,3.243816475146863755e-03
5.130333164078121610e-05,5.898028896777684701e-03,-1.008624553718974384e-03
3.044360646387163274e-03,1.041045998544515077e-03,-5.936834922283669132e-04
-3.005823609735325946e-03,-1.151834364855280771e-03,1.398883696296841436e-03
8.786984526405250190e-04,-1.641049932140303640e-03,4.123462928475530231e-04
-1.774311704242833524e-03,5.115197616686073014e-04,9.360986373048120132e-04
1.763684777476009309e-03,-3.014151942152843984e-04,-3.195998995312011003e-03
-5.759457118937222645e-04,-4.223881456265332450e-03,-2.892512661728163879e-03
-5.359449164307826096e-04,-1.035255313920240830e-03,-2.026154585588665295e-03
-1.579473556401045538e-03,1.479097296748255489e-03,-4.699773044928499369e-04
1.780894435057108925e-03,-3.188386641718309218e-03,1.748490373693472764e-03
-6.517492787774510285e-03,-1.645527900590371953e-03,-2.468726226408710436e-03
-5.414397429167135036e-04,-1.950504475849713622e-03,8.731411026399168778e-04
-1.289035701916927150e-03,-1.824992280633808400e-03,-3.510020273089082578e-03
2.238083919384598053e-03,-1.267367005062190451e-04,2.597423342488009812e-04
2.733025784931154833e-03,-3.000864742709811843e-03,4.800583837947028365e-03
-2.736132680765719898e-03,-2.711180663742358051e-03,-7.681205097985013310e-04
-1.192370968085676181e-03,-3.328130889341985796e-03,1.263947960215382974e-03
-2.314635334804224492e-03,-7.224760633229624328e-04,-1.853169575407942861e-03
-1.112711478512019457e-03,-1.847965488289816591e-03,9.785714736202348477e-05
-1.893262689565521593e-03,9.689964214606887945e-04,1.623445757071342085e-03
-7.022453561451825685e-04,-2.510993389096788635e-03,-1.160531382018886081e-04
1.113025774203960289e-04,-3.236020007692121721e-03,1.602144130292531329e-03
-1.194266251894464089e-03,-1.614982932448204853e-03,-1.341016811419345339e-03
-3.630764431741859578e-03,2.495098153385220605e-03,-1.964398780412949554e-03
-5.049737230705989358e-03,-5.644268352014597295e-05,-1.071944008894120922e-03
5.113796938001873970e-04,-1.697156058284031042e-03,3.991547353510262533e-03
1.080600419368899743e-04,-2.412206075643195773e-03,3.774988161484301580e-03
3.288533041841466224e-03,2.878804246971313624e-03,-2.004723714421557208e-04
1.156976932260550539e-03,-2.484471001023307556e-03,2.616479907450013249e-03
-2.545401028979164641e-03,9.616683820027581431e-04,1.837966388999179345e-03
1.638567492427974977e-03,1.214171574362242663e-03,5.048365769848624923e-03
3.038317558101814777e-03,4.653021276994542127e-03,1.049939382223176454e-03
-3.081630633386704329e-04,-1.036872335071534418e-03,-2.817923341413293425e-03
1.264085428909397443e-03,4.635893583614692252e-04,-6.349619243426570707e-04
-4.071571897381404820e-03,-7.658954898912004663e-04,-3.386895489055129845e-04
-1.770255721486869256e-03,-3.952314357364531371e-03,-8.187639004390162307e-04
2.567159875534590855e-03,7.788770936704651326e-04,2.260814047598635036e-04
-4.507959995553860347e-04,-1.267423566094064147e-03,-4.408448534340064957e-03
-3.870027011750572579e-03,1.069132647310095481e-03,-6.793497600998946910e-04
6.971359818135145891e-05,3.046927704707720619e-03,2.898327564086903077e-04
2.432385888174075101e-03,-5.679716397818754953e-03,-1.704641547641727985e-03
2.803555349422833659e-03,-2.389792177608345090e-03,1.587830256889136192e-03
-1.382273311236245812e-03,6.408178380755484268e-04,1.616842037722117376e-03
2.663118646942355065e-03,1.356041766979934962e-03,3.521425739720631005e-03
-1.273402754114281088e-03,-1.966481927247875228e-03,4.486237815369796544e-03
6.714154702852150622e-05,4.411638731381966228e-04,6.608811495017799346e-03
-5.142578128711613929e-04,-3.514832882072592337e-03,6.337779730214926702e-03
8.153326804076125147e-04,4.443137592568703088e-03,5.052041154974736339e-03
1.122428536480608603e-03,-2.027325552946197904e-03,-8.545145083955848651e-04
2.031590499830229941e-03,1.578690682232895392e-03,-2.656402770511864797e-03
-5.576841841547724001e-04,3.179015742521645177e-03,-7.247745412738140422e-04
5.651779309698867250e-04,2.465805113138832237e-03,-1.239712030174216877e-03
-3.588444385843984463e-03,-1.276497918454608509e-03,3.786669470985308799e-03
-1.228587174738207362e-03,-4.697322270786341569e-03,1.396459974814161535e-03
-2.314484098723419096e-03,-5.907934182061356544e-03,-3.185318430167448887e-03
8.538033592320027438e-04,-1.823755944702567513e-03,-2.650043184986099719e-03
2.135724767087228675e-03,-2.676789673176180329e-03,4.890520083894524012e-05
3.246136247103685764e-03,-3.689905791249301591e-03,4.412796270662496076e-04
-2.793689862901791495e-03,-2.054152308834891749e-03,2.975570353850667815e-03
-6.507291869589912944e-05,1.100802432636901031e-03,-1.208115274786647486e-03
-1.345174731987168991e-03,2.683569617875139739e-04,-8.919870969452835165e-04
-2.223936951826687054e-03,6.275408184011537025e-04,-1.681644455757826378e-03
-4.939178692132537712e-03,-7.007510099516956630e-05,1.801553212759318418e-03
-1.417466263059885545e-03,1.661934571881224128e-03,8.845023650555360484e-04
-1.951001157651832728e-03,-1.033771440469085528e-04,-5.667409030035800441e-05
1.413359323877752408e-03,7.861870081021122289e-04,-2.316786042979709567e-04
3.013701965831471364e-03,3.657362387866603792e-03,2.094175705366644637e-03
-5.967134097916860190e-03,3.078582664991956746e-03,5.170827415451822485e-03
2.408822762777897402e-03,2.413261677658049779e-03,2.349917247203800377e-03
6.785201658824001033e-04,-1.189022250371270023e-03,-1.697230075787595747e-04
8.150880234438021834e-04,3.041687420843917824e-03,-5.210542888972515690e-04
5.604283828921690670e-03,-1.121346924475023939e-03,1.187217363307936429e-03
-1.257195915467443836e-03,2.274052307505452890e-03,-4.702889307823852698e-04
3.254653541967880985e-04,5.567483325472842278e-04,-7.526561790382236845e-04
-3.839323277089074296e-03,5.823447666718449371e-03,-2.481782882301066494e-03
-1.977885140124098062e-03,-1.565997883625405230e-03,-1.009905504285322012e-03
3.503317430722733671e-03,6.062848385833965494e-03,1.577255691433712432e-03
-1.982309647878226569e-03,-2.496793198158555292e-03,-2.689891844370901133e-03
1.677879299419093645e-04,4.653390034967164884e-03,-3.949533531353520074e-03
-1.953717805231480504e-04,-3.949605399511880305e-03,-3.491056922366219187e-04
-5.615263785801254473e-03,-4.214138281139909181e-03,-1.056789643219622566e-03
7.488923729094610401e-04,-5.729661051044444104e-04,1.756190948207795189e-03
1.100546851344607648e-03,-8.017814594993358246e-04,-2.344042169990103765e-03
-4.723450647528020484e-03,2.210231793144406924e-03,3.151719865594665698e-03
-2.691643370045213078e-04,-6.805013388888856178e-04,7.509184259643022922e-04
1.947108303195931815e-03,1.602839735739520740e-03,-3.324951123354401923e-04
-1.630156393640977463e-03,-1.886996789284324039e-03,-8.707347178665633550e-04
-5.823106039481432648e-03,-7.743540952290588978e-04,-4.932324685054300046e-04
4.147950821290409887e-03,-2.649354233724084823e-03,2.823214547211972455e-03
1.087986340837849902e-03,1.563512304537499143e-03,2.147903754367022459e-03
8.342347890671267382e-04,-3.810346556139160810e-03,-2.215456813280765411e-03
1.264873335051467274e-04,-1.270410707942647025e-03,1.545643210562087054e-03
2.700679162612458321e-03,-7.314671518021016727e-04,-1.688747122239488705e-03
3.573257155824413091e-03,3.020248667917614996e-03,-7.217048701413929538e-04
2.810264956550051225e-03,2.460578210860897477e-03,-5.806541449017113554e-03
-4.717633427886265204e-03,4.100780156611106946e-03,2.428416542866449791e-03
9.725546496731627463e-04,-1.306105419949802043e-03,-1.613455851804480867e-03
1.110998168568621495e-03,1.460300530146868558e-03,-2.038078065042645340e-03
-3.807347217025219941e-04,3.018163748409357847e-03,-5.351856120755029995e-04
5.330783606373611008e-04,-1.726163362772248832e-03,3.126105473094436139e-03
-4.463578021790412520e-03,-6.550891883469211509e-04,-3.672930056556664331e-03
-1.511238507802004690e-03,1.662561201267353595e-03,3.665314677702089137e-03
2.070219792551099714e-03,-6.156149980018392693e-04,3.319856943476298759e-03
-9.524221367131454393e-04,1.075218954731494998e-03,-1.243862803744849631e-03
3.762342022926214863e-03,-2.239322655334444884e-03,3.139104058144442043e-04
2.479864347099515823e-04,8.314623206439452491e-04,-2.999839017623886963e-03
6.226918560035340112e-05,-5.224442576840214198e-04,-9.455309259939240988e-04
2.324183192963050117e-03,3.095580367500607322e-03,1.081454863721202772e-03
1.039472267098181949e-03,-2.150753871423482892e-03,-4.897409637572331005e-04
-2.746258392137922080e-03,-5.711306744340361678e-04,-2.365485142109256833e-04
2.966939196687078985e-03,3.078973325153340924e-03,-1.512148243665365713e-03
-1.337562268804397400e-03,-1.117523612249252639e-03,-1.277433091783017295e-03
-1.522806191287788590e-03,-2.545186415674307646e-04,3.342868473546385406e-03
7.385806072322817842e-04,2.255086783201809292e-03,-5.813503335747818683e-03
-1.428144301382923941e-03,1.815711002969284124e-03,-1.832305518324421146e-03
-1.110273840748791279e-03,6.033201667346192384e-04,-2.458787704147164226e-03
-1.106870879539604592e-03,-2.129600339658448062e-05,-9.955397942163530676e-05
-5.550435037416673757e-04,1.965687633054126297e-03,4.129498826595514802e-03
-2.498982923786911619e-04,1.019392126700521860e-03,3.591876624646220956e-03
6.296971157414902025e-04,-3.279270695181735890e-03,1.829053014643068848e-03
-2.720481730352858341e-03,-2.329702498719396844e-03,2.123082054525959363e-04
2.095282646834716392e-03,3.054817709180532694e-04,-1.516194261547322217e-03
-1.579055390781915289e-03,1.425365905877319227e-04,1.386805127859719843e-03
-1.610494581413836313e-04,-3.638396531403933348e-03,-9.678151862721038777e-04
1.542376009850998306e-03,2.738444432252506392e-03,-3.511156542491076019e-03
1.882884779297042946e-03,6.732253818293362215e-04,1.241476475940929500e-03
-2.053040930618874396e-03,-2.289031246441920221e-04,-3.787281655279055824e-03
2.578819347504404148e-04,-2.154704109731105186e-03,-1.754351300952263458e-03
4.983576408545643474e-03,-2.711205634989363126e-03,-2.678301110977930090e-03
-1.690269902609068536e-03,-7.048406356377069464e-03,-2.612111895146525774e-03
1.245360968362016702e-04,-9.856223257769872181e-04,5.729294818184082344e-03
-1.164459811174843509e-03,-1.179274115178180265e-03,5.375640014634184595e-03
5.045246136346204918e-03,-2.813074055519642746e-03,4.675939866884940184e-04
2.587277773758731806e-03,-3.025858955825280229e-03,-2.934647812597353527e-04
3.507630465493496042e-03,2.872154206461418301e-03,-1.318780001279113616e-03
4.021680225711029427e-03,-1.623975670026687503e-03,1.615636946809013766e-05
-3.459494870631309692e-03,6.876858032524187352e-04,-1.095047438709538567e-03
5.016445165492319736e-04,3.637860171744105187e-03,3.487635865755172628e-03
-1.939599439702053814e-03,-2.407084783622036057e-03,8.389689000100071081e-04
-1.149126305870439967e-03,2.720061651548811611e-03,7.006417424366502740e-05
-1.531595645969175898e-03,-1.194618764281310053e-03,2.632309106921088080e-03
2.037397705229205581e-03,-1.931883165977920985e-03,-1.634089136021304707e-03
-2.536648330664838680e-04,-2.628721822367057360e-03,2.042778461994753140e-04
-2.664823974756192187e-03,1.476871434916949936e-03,5.459740061202535697e-04
-3.316275664188389222e-03,4.682197982499199107e-03,-4.129649953334358958e-05
1.706497945325739958e-03,-4.305682912794021704e-03,-2.500307659972905543e-03
-4.044936187122983727e-04,6.187157141618288914e-04,1.420033099490442810e-03
-1.662879953653869985e-04,4.167044186073524492e-04,-1.969678410279043692e-03
3.502734274580714471e-03,3.242203126659255058e-03,1.449099647631160422e-03
-1.019809087335830618e-03,-1.488156763200916988e-03,-3.769254265595844890e-03
1.339106809967316588e-04,-4.111402387969575849e-03,-2.579257203409903560e-04
-3.861243695696340694e-03,-7.342159804197555565e-04,-2.073115047881986619e-04
-1.365363097941812726e-03,6.696651034616478383e-04,4.409841036414278992e-03
-3.122375006158878679e-04,4.110113741755491322e-04,2.212598187802489354e-03
-1.744137779315389119e-03,-2.366839561699283796e-03,-3.378609137693632295e-04
-2.578078428617912570e-03,1.934459567874940783e-03,3.761625785112051538e-03
-1.033941526099070151e-03,-2.292121580940124502e-04,-1.781534334722606385e-03
6.919615158004341002e-04,1.075909868292360648e-03,3.364957471179032007e-03
2.447005504054369351e-03,2.239580475246100415e-03,-2.604599644743212355e-03
-3.230706403253069681e-03,-5.376836298650951480e-03,3.615135272794944843e-03
-1.848051002216924421e-03,5.845903422637563568e-04,-2.238044503108764516e-03
-1.034655762349669930e-03,1.115966179781427512e-03,-6.044353540685970961e-04
9.901187330378137270e-05,-9.636228363773230280e-05,-2.987535534755189279e-03
-3.473077038304499958e-03,-7.307839918255900138e-04,1.238968189887912482e-03
3.463590499933255282e-04,-1.733487655356877408e-03,-2.034158028637563995e-03
8.473839041161417094e-05,1.756976429163181926e-03,4.159897606535335594e-04
2.017445287592472061e-03,-1.232666247472907935e-03,-1.431507534880726564e-03
-2.481084156591192857e-03,-4.444812778262809475e-03,1.033543416198651763e-03
-1.434723409019961074e-03,1.036893960216007720e-03,-1.439964186801316343e-03
4.817651378408236546e-04,-1.245557863069303309e-03,1.116466143660295018e-03
-1.308312501277740514e-03,1.874160079288189444e-03,2.971475916109367951e-03
-2.759116305405874027e-03,4.657978943130040329e-03,-4.538032104292998178e-04
-2.081875003385279428e-03,-1.645117315691007817e-03,-2.319255519921575078e-03
-1.181948712621986967e-03,7.232442981840038856e-05,2.783939155459446996e-03
-2.408401882425426684e-03,-2.066120980303633474e-04,1.792013401325148964e-03
-1.764643392051826534e-03,-1.546266208273886552e-03,-1.464091325033740421e-03
-1.989998840734723577e-04,-2.147126079673788469e-03,-1.811250293228726166e-03
-9.968044141131972985e-04,-4.970123161064361403e-03,3.206187852850130894e-03
2.475804414975486117e-03,3.340988350124102918e-03,-1.967593122224357925e-03
-3.319521279909475996e-03,-2.561109725342390533e-03,-1.492790780549760376e-03
3.706261580018605385e-03,2.805156224106600087e-03,-3.884949413618913488e-04
2.407316515030662272e-03,-1.290157841419197014e-03,-2.558034997929993243e-03
-4.176843318293185607e-03,8.246529840892620564e-04,2.084306653561064822e-03
-2.361240467107218917e-03,2.577458725904694346e-03,-9.144499129992300504e-04
-3.040520528286704428e-03,-3.082879127569869340e-04,-1.420662880128226429e-03
4.203074466630021301e-04,2.289612739821560248e-03,2.154692211019754394e-04
3.108715618481588602e-03,1.999372495050692842e-03,-2.217823133314644757e-03
-1.581060242194196139e-03,-2.411163034753244141e-03,-1.141417699634187863e-03
3.070593166021330297e-03,2.127905043688570804e-03,-3.044830231350226842e-03
1.129942218817513687e-03,-2.155364649545173181e-03,2.297754061614934017e-03
9.173911078205984637e-05,-1.091636395339226845e-03,-6.937081898721189155e-04
1.046449601969888293e-03,1.578539049452920822e-03,-3.318698542599438604e-03
6.480621008559768123e-04,3.391713095964607547e-03,-2.736531891382006781e-03
8.697331267471622744e-04,-1.250449608612867834e-03,3.845019210243845638e-04
-4.378294750404891460e-03,-2.925489571609599798e-04,1.049469125805406380e-03
-1.112691809187276717e-03,-1.692324324482131093e-03,-3.280831654225584409e-03
1.181301481745255068e-03,4.845166775383323446e-04,2.714301757996013306e-03
-2.729260768499913725e-03,5.417216018870539551e-03,-3.694037228622910809e-03
-2.478488446182276934e-03,-1.313900214879250034e-03,3.038867791336242411e-03
-2.263921123840992918e-03,-2.182545456106297840e-03,-8.260234718545949499e-04
-5.193175968068036719e-04,2.056351804239435997e-04,1.859160348821013850e-03
-2.309947803964190055e-03,-1.027736037096534409e-03,-2.230461770252273844e-03
-3.221169822557817071e-04,2.203999779620944459e-04,2.758974773589004895e-03
6.612938308881077462e-04,1.240973568087209685e-03,-6.394395523630050544e-04
1.619384382800194075e-03,3.922131595132566958e-04,-3.672927577612515419e-03
-1.744376409943068380e-03,-1.474395354079229567e-03,-8.352814510117807659e-04
3.426615052707635174e-03,-3.116954724973037237e-03,-2.937745036188381571e-03
2.091637196686697234e-03,5.484789781118817528e-03,1.831907056996554418e-03
2.049728718881923401e-03,-2.093917592262713526e-03,3.350346501844602039e-03
-1.678173085412474437e-03,2.602861750498812552e-04,-1.733971374292207421e-03
-5.969471469934098211e-03,2.544711122939368603e-03,2.436182969602077291e-03
1.648711575067928143e-03,-2.812404130832397444e-04,2.876983207010719822e-03
1.024298216851463744e-04,4.385854581142637171e-04,-1.784617568382768863e-03
-1.217026157241736517e-03,3.194419378264891189e-03,9.595310145948412334e-03
-3.046047371208689299e-03,1.063767642417456222e-03,-1.065044401451963703e-03
2.141785964870176594e-03,8.242141764475906761e-04,2.609998463303096067e-03
1.193329992642340855e-03,-2.154836682328673415e-03,-1.073214820779095149e-03
2.474559625706934662e-01,2.869442844900815248e-01,3.178142051280569320e-03
4.746557533494854542e-01,5.693450389740738471e-01,-8.539251751979900747e-04
6.758332946793530471e-01,8.585433076834629862e-01,-2.036087166284260893e-03
8.526960897047540788e-01,1.148790823552079621e+00,1.685504761552540859e-03
1.027648356335055135e+00,1.435175902541470538e+00,1.539410186002369276e-03
1.168345712616622123e+00,1.716712302217420216e+00,-1.768011464843823478e-03
1.295961856962749126e+00,2.007752150535604851e+00,-1.267913724961482408e-03
1.417450986606269225e+00,2.291530135460707385e+00,-1.314854625595796370e-03
1.518869205071082806e+00,2.557254625202411535e+00,-1.697891318457932100e-03
1.619963422264845132e+00,2.794623176554069222e+00,-4.477515726228219542e-03
1.697803484154640108e+00,3.015396495037173441e+00,-6.053357199910064726e-03
1.774881249971855146e+00,3.197096462952571105e+00,-8.799528585359287988e-03
1.840042167911662530e+00,3.370085712495536789e+00,-1.052460766051083012e-02
1.897247955863163194e+00,3.517089484241289643e+00,-1.542961518670144840e-02
1.946876529551815782e+00,3.648475996187914294e+00,-8.638708972406233810e-03
1.990939446697469917e+00,3.771915420796362994e+00,-1.401183164866479612e-02
2.032516167047509370e+00,3.878391995902326084e+00,-1.153763010486075387e-02
2.064160297511953068e+00,3.965762777417068286e+00,-1.474160879339785415e-02
2.100748977168542808e+00,4.048630591966854375e+00,-2.111287487400206886e-02
2.127185828696157799e+00,4.118662666036847497e+00,-2.018291594707025127e-02
2.140974828557395959e+00,4.180258916514513423e+00,-1.944489802935596076e-02
2.172531002389206822e+00,4.238202755351555773e+00,-2.282112413551667246e-02
2.187126553443164312e+00,4.284378716353755223e+00,-2.929023237604476415e-02
2.198887539391752188e+00,4.321443397841340683e+00,-2.797944638396003894e-02
2.206992540878250697e+00,4.351363537233408074e+00,-3.100008103717960539e-02
2.216349343504823821e+00,4.381979151643144554e+00,-3.478375545635703503e-02
2.224310771349399474e+00,4.407848515020027058e+00,-3.557321747988536481e-02
2.232397607208494339e+00,4.421731112017332599e+00,-3.405164436630226527e-02
2.232817003176120085e+00,4.438283487724210552e+00,-3.677768061958004708e-02
2.235596335908467402e+00,4.444573696189367595e+00,-3.535778407177470745e-02
2.235233084696241601e+00,4.455653295934468794e+00,-4.207749720821297307e-02
2.232687863014716889e+00,4.462521364110031641e+00,-3.819035656821252039e-02
2.237019659716890541e+00,4.460616811334714882e+00,-4.782722165815837811e-02
2.227136291358240427e+00,4.460943416577699772e+00,-4.566878334574751841e-02
2.223958720726941785e+00,4.456846379350245080e+00,-4.787024262504286504e-02
2.226567773101912007e+00,4.448511277603965475e+00,-4.692763614462559796e-02
2.221354491718507962e+00,4.447576859275663708e+00,-5.209534292561616986e-02
2.209187781236302772e+00,4.438549590251949617e+00,-5.723436946304433920e-02
2.203863744033623284e+00,4.431962741814248652e+00,-5.605662533993314989e-02
2.200553927957920042e+00,4.411844637362551502e+00,-5.498921914620241019e-02
2.197297016735528352e+00,4.407989453903540245e+00,-6.102191237790698802e-02
2.185995602855204112e+00,4.398529075380334774e+00,-5.704225513662472546e-02
2.177066264940288320e+00,4.379421662087430889e+00,-6.442848745079525485e-02
2.170772041888342496e+00,4.365031054085583229e+00,-6.130107109764557777e-02
2.160654302162762441e+00,4.345456755317987252e+00,-6.493916209324845923e-02
2.153882746607068466e+00,4.333107562028953197e+00,-6.520581523513423183e-02
2.144993647058204278e+00,4.318591232979624550e+00,-7.225201771545822216e-02
2.133667235534004281e+00,4.296296925739508055e+00,-6.707455252939645285e-02
2.126417446519799359e+00,4.285985050452764789e+00,-6.688755698114076664e-02
2.115321183893530410e+00,4.265697619821641418e+00,-7.387291266981214910e-02
2.110603821020703652e+00,4.246283945971314644e+00,-6.975343164848651911e-02
2.098769972713742327e+00,4.230573658456393105e+00,-7.363715745686470748e-02
2.088003171507104572e+00,4.205341424272085682e+00,-7.124311492306491245e-02
2.076067543147425365e+00,4.194163350743239427e+00,-7.120271702242665646e-02
2.069981950183096497e+00,4.167907562788105480e+00,-7.573091532089416822e-02
2.058883486517047334e+00,4.148421267214673414e+00,-7.845555954049160396e-02
2.050874097581481870e+00,4.129797579206983649e+00,-8.190406944510347786e-02
2.038141807771106873e+00,4.111319916085237836e+00,-7.958191539699238648e-02
2.028780636841720053e+00,4.089204266056514214e+00,-7.780550047678161385e-02
2.017667315793357563e+00,4.074433584469191238e+00,-8.049624673947747278e-02
2.008692272717280236e+00,4.053125073873014905e+00,-8.364934544296483143e-02
2.002239140136728768e+00,4.025866065715223208e+00,-8.579013792262848992e-02
1.990081674622210750e+00,4.008734680783941684e+00,-8.287987031036193886e-02
1.979081085172777588e+00,3.990789729501078575e+00,-8.865894114950437221e-02
1.967793386215599405e+00,3.969767235533331551e+00,-8.851582696155986529e-02
1.959164430911410681e+00,3.955199569995684783e+00,-8.395807129308482941e-02
1.948001044440191398e+00,3.932281590544622230e+00,-9.312373742063198567e-02
1.941540305678973066e+00,3.912912028957142851e+00,-8.199268904939913116e-02
1.927715417815230259e+00,3.889295105806831021e+00,-8.877875909478383232e-02
1.921430669708116490e+00,3.871248097910088060e+00,-9.339383949235674498e-02
1.908112922735696326e+00,3.855826947597606580e+00,-9.160033553000493378e-02
1.900730291280511963e+00,3.833442050852057914e+00,-9.342807102478593861e-02
1.890115097580690184e+00,3.810004021951090891e+00,-9.585251260102420345e-02
1.882219106249037877e+00,3.792536740320938460e+00,-9.551632440387843037e-02
1.871609194515341024e+00,3.773401135890456004e+00,-9.540822387475624000e-02
1.857234909605087081e+00,3.752837314465735208e+00,-9.855334456324131576e-02
1.849172831587552635e+00,3.735792748860731649e+00,-9.671595052903210477e-02
1.837412346508267458e+00,3.718419430853363128e+00,-9.589476918993862509e-02
1.830507846208891287e+00,3.694429794666576949e+00,-9.859050846262065737e-02
1.820763134789401771e+00,3.676783714218728516e+00,-9.927270451845068844e-02
1.812019267613458329e+00,3.658061554400202642e+00,-9.864122829919526325e-02
1.801422470928432773e+00,3.642209519209056001e+00,-9.902748252058229950e-02
1.795648390334224853e+00,3.617097120834753099e+00,-1.012897977720042669e-01
1.779326916691991833e+00,3.602261703588724551e+00,-1.023112936072436696e-01
1.777051035028077264e+00,3.585146961855310899e+00,-1.001009557531223199e-01
1.765241959818992790e+00,3.565767449024205948e+00,-1.027778070394471943e-01
1.756465894844796205e+00,3.550042930215826509e+00,-9.805851962757444751e-02
1.748292881788776620e+00,3.528081759313446586e+00,-1.012265077864878404e-01
1.738035316440155409e+00,3.510693488368922921e+00,-1.054888783627902088e-01
1.730065942342706942e+00,3.489560238096495848e+00,-1.032088823784386156e-01
1.719272005489689947e+00,3.465649761462763490e+00,-9.893296785139542304e-02
1.707638218913865913e+00,3.453235356982686355e+00,-1.086463466295121694e-01
1.701867892783717418e+00,3.430581977304391739e+00,-1.063585229231023138e-01
1.691647317168214038e+00,3.414200210683181691e+00,-1.026622661287544952e-01
1.685856248092764798e+00,3.398835886533009276e+00,-1.080499046398075702e-01
1.674495267021010925e+00,3.382806452241832407e+00,-1.082086951180403905e-01
1.670839169701278770e+00,3.363820183864630664e+00,-1.052106543161744762e-01
1.656551850340030940e+00,3.345556325012672971e+00,-1.108055867030657837e-01
1.652071320585859482e+00,3.331466108934211245e+00,-1.073506058334669500e-01
1.645868016170840331e+00,3.312616903828751180e+00,-1.093753686512254492e-01
1.631468832342747532e+00,3.294111670617729803e+00,-1.101670970479216999e-01
1.623172247152262493e+00,3.276045236100971092e+00,-1.132630169197811204e-01
1.609848796304753415e+00,3.260713731236390078e+00,-1.119194740254704362e-01
1.602545290422720869e+00,3.245813076093601257e+00,-1.098549585729436812e-01
1.598239585078263580e+00,3.227191466530888952e+00,-1.123504320173979998e-01
1.587279673645525913e+00,3.207396497563499427e+00,-1.107283753438987745e-01
1.581005579332585231e+00,3.190849623116097433e+00,-1.105046548924904504e-01
1.574153175566172624e+00,3.173471770830758043e+00,-1.089103841370906572e-01
1.565775257353008376e+00,3.157719416115285060e+00,-1.113246813255961698e-01
1.554714860495993500e+00,3.143322516793374710e+00,-1.076400248827329709e-01
1.549649483558753094e+00,3.122355834030301036e+00,-1.078352781590173060e-01
1.536328358850323594e+00,3.112097965087276208e+00,-1.148590775335952829e-01
1.531913210820233795e+00,3.091004851386339958e+00,-1.145038797238724093e-01
1.522899549530128072e+00,3.073686391754379521e+00,-1.125469241867821241e-01
1.515921724499773582e+00,3.055293256757643849e+00,-1.137658409043859897e-01
1.505679827791199799e+00,3.043157768646501005e+00,-1.102438098807764777e-01
1.498669054141125168e+00,3.030761710116147700e+00,-1.161097078610652533e-01
1.487807911196048716e+00,3.010734777467474199e+00,-1.119731585179765260e-01
1.486071302494949009e+00,2.990632661166683803e+00,-1.169664061414189410e-01
1.475655043635116126e+00,2.982305932049744701e+00,-1.140189103221408012e-01
1.470163111019018976e+00,2.962365983388659973e+00,-1.179516848808229296e-01
1.464786991874274635e+00,2.948622282520248827e+00,-1.127574473351345141e-01
1.455545602111604220e+00,2.931046898662556632e+00,-1.122225847778316465e-01
1.449297334838820728e+00,2.918528869616041632e+00,-1.120469715528594340e-01
1.434263950452466574e+00,2.899674163259819526e+00,-1.169412942902365860e-01
1.429742612872952234e+00,2.885002282626901504e+00,-1.164587037105245387e-01
1.420989779997538394e+00,2.874233338562753648e+00,-1.148007398461792505e-01
1.423617911844760719e+00,2.861439401797273518e+00,-1.124786196057633303e-01
1.407051258224367052e+00,2.838085872988922898e+00,-1.194969602269494585e-01
1.398717778162931191e+00,2.826892434756418382e+00,-1.174036171132459144e-01
1.394545100906242618e+00,2.815036042769194946e+00,-1.126054808843841015e-01
1.389703493560038305e+00,2.795105622243776899e+00,-1.161479900026328449e-01
1.376207692342145572e+00,2.784608601915664838e+00,-1.184199481829094763e-01
1.373775251236116102e+00,2.768249250848453524e+00,-1.147568954082300724e-01
1.364477000862673428e+00,2.756715144002389817e+00,-1.156453440992413206e-01
1.360596522746501114e+00,2.739775553022628429e+00,-1.156625125749950467e-01
1.349923181128247718e+00,2.727148850742164843e+00,-1.168342607747563933e-01
1.341361670510264004e+00,2.710056817377923810e+00,-1.157515075741584326e-01
1.337235037865384335e+00,2.699327239643909415e+00,-1.143827347221139934e-01
1.327875551503391982e+00,2.682023522073686550e+00,-1.171468322812120044e-01
1.321783307725950873e+00,2.665038712062609338e+00,-1.150585004075210249e-01
1.310407967265442286e+00,2.656577868935023012e+00,-1.160783390744844767e-01
1.305306904009403857e+00,2.645981337805389355e+00,-1.147158833972984626e-01
1.296058894299355169e+00,2.626372201651369753e+00,-1.167059560783803990e-01
1.292545391544576816e+00,2.615515809227439092e+00,-1.138178455770133268e-01
1.289532509202981903e+00,2.600027525015615293e+00,-1.162095539126401511e-01
1.282609774384737333e+00,2.588896570909119621e+00,-1.153557305371632757e-01
1.272972442621810307e+00,2.569967573035380592e+00,-1.179429948312078341e-01
1.265379108215917370e+00,2.557346756819391054e+00,-1.127022713595857706e-01
1.261940692018447718e+00,2.550991901969299480e+00,-1.154093022735581120e-01
1.254917990250709270e+00,2.530226829452690840e+00,-1.111029707162386332e-01
1.246947841659122647e+00,2.514763249813481316e+00,-1.144785633627337651e-01
1.242659983608921825e+00,2.503124451388460070e+00,-1.171394879943142842e-01
1.234971200250318368e+00,2.492818157213680941e+00,-1.122050551134842478e-01
1.228604908496336634e+00,2.476267232942046981e+00,-1.143371219091319363e-01
1.218636718155902354e+00,2.466884758472165373e+00,-1.204501107018373374e-01
1.215700368731355008e+00,2.453131792708037384e+00,-1.154080604139838817e-01
1.210161919851100665e+00,2.441884128685028799e+00,-1.081680088510846016e-01
1.201424326894058980e+00,2.425686235446474548e+00,-1.183097910068669628e-01
1.193229283902869087e+00,2.410222798486565399e+00,-1.121956478739033897e-01
1.193178225189175823e+00,2.401660451902895232e+00,-1.160994850085208668e-01
1.188365065708174129e+00,2.387937858044788531e+00,-1.095365766335882202e-01
1.177332029962436355e+00,2.376138774422276612e+00,-1.161217588605474582e-01
1.166490258865685803e+00,2.365882996200320498e+00,-1.144632468700680916e-01
1.163840194495296299e+00,2.350121689049106344e+00,-1.138287400977096159e-01
1.158880131382565182e+00,2.336665977193590926e+00,-1.171619903202812674e-01
1.151794569391264345e+00,2.325629983688058733e+00,-1.131654502332541667e-01
1.147205685614221649e+00,2.311541473412145553e+00,-1.116577195111168458e-01
1.145913740011089477e+00,2.297964632644089900e+00,-1.152170532504326189e-01
1.133646740406871301e+00,2.290196742487123238e+00,-1.139630221568074392e-01
1.131842084088472644e+00,2.274825921394000972e+00,-1.185945176698147557e-01
1.122846744055543189e+00,2.262976655752725108e+00,-1.150235215369628944e-01
1.116669562840478802e+00,2.255074752843716723e+00,-1.156739959182450650e-01
1.109659321774264740e+00,2.244021502784907529e+00,-1.153798021258181095e-01
1.105252256737086158e+00,2.228475656570084951e+00,-1.100837709221951372e-01
1.102015354681574300e+00,2.215853730937408006e+00,-1.162482126210058475e-01
1.092525608755663846e+00,2.206644731013713834e+00,-1.070005814399886540e-01
1.086567901278190584e+00,2.196768548385565900e+00,-1.098924880743002847e-01
1.083086722341207286e+00,2.183651356549276557e+00,-1.119665053865956383e-01
1.076755017414205318e+00,2.166532655319183487e+00,-1.096057964246093669e-01
1.076225745152044722e+00,2.161285171339740074e+00,-1.085668785751490728e-01
1.065566803028542564e+00,2.149487277298564702e+00,-1.098333044507095596e-01
1.062106228511776607e+00,2.137777233984108349e+00,-1.111913073311135980e-01
1.055102707050250777e+00,2.125526726302771507e+00,-1.101648057124389457e-01
1.050711031270549878e+00,2.118256812395139299e+00,-1.147952421018563485e-01
1.046519264382796965e+00,2.105771087851293188e+00,-1.079637680923611204e-01
1.044016253420706697e+00,2.094995052445361772e+00,-1.118652730800151207e-01
1.031944928971052278e+00,2.081164860894778812e+00,-1.103419445788608871e-01
1.023134107470528686e+00,2.070122727658910033e+00,-1.093443985512335542e-01
1.017509847293206482e+00,2.064702739146934363e+00,-1.119828866144831903e-01
1.016437105296369214e+00,2.047592863479603231e+00,-1.091686224556319279e-01
1.004690055833477480e+00,2.042651770507420306e+00,-1.081619464422093196e-01
1.003263239338135993e+00,2.028822020113481006e+00,-1.058190116535378256e-01
9.995526007018477044e-01,2.011508632806841224e+00,-1.119664834277474957e-01
9.955911215364935396e-01,2.006926234234954531e+00,-1.073890773828933137e-01
9.884892276474595008e-01,1.995705735635426192e+00,-1.046357164938542528e-01
9.885231684934900898e-01,1.987556150354849560e+00,-1.087297594542256801e-01
9.826057711448941134e-01,1.972634407824926939e+00,-1.102723151003227042e-01
9.731298623803045222e-01,1.967923961110257913e+00,-1.072596389300407155e-01
9.653682752653668375e-01,1.955600077111324664e+00,-1.113749126532694450e-01
9.636761116230615487e-01,1.942075140175893333e+00,-1.127518119368632055e-01
9.620409755825630738e-01,1.937201537679509311e+00,-1.116501993776697482e-01
9.558530677876168058e-01,1.922318912088902820e+00,-1.085785817620649046e-01
9.474744792570980456e-01,1.913672083390488332e+00,-1.083207424302629895e-01
9.439057770642217404e-01,1.901530443725684805e+00,-1.055145578721092964e-01
9.414111068579518182e-01,1.891838540283345527e+00,-1.063315189671557998e-01
9.350693519806848597e-01,1.881372959140311218e+00,-1.056371241999614768e-01
9.272589394295011056e-01,1.872154032617924457e+00,-1.040288044584474075e-01
9.237246194218136086e-01,1.864017650307562279e+00,-1.022306393834984534e-01
9.207882779810312446e-01,1.857711150415525037e+00,-1.080407597843968254e-01
9.147904368115866713e-01,1.847683186668139799e+00,-1.054936309313669052e-01
9.100671668886325394e-01,1.835502559095018693e+00,-1.005518215958065009e-01
9.095721100621659838e-01,1.821475832822225138e+00,-1.065534256168460675e-01
8.989138607300443118e-01,1.816411489654223832e+00,-1.041436759647661886e-01
8.981545787433297123e-01,1.802752810269274697e+00,-1.103165692420441379e-01
8.903829158689544609e-01,1.796011663102717204e+00,-1.011464629883220279e-01
8.884869240974676563e-01,1.789018231998089847e+00,-1.001269790622060368e-01
8.808006916399350184e-01,1.777053360956468264e+00,-1.066571716472010517e-01
8.768191207864082237e-01,1.766050710355747899e+00,-1.052778227256330190e-01
8.738038425072817139e-01,1.757727068072528320e+00,-1.037139851016190550e-01
8.676545357646340273e-01,1.748814281744049959e+00,-1.050138420998465577e-01
8.593452242087066262e-01,1.741121595036720482e+00,-1.033463054367085299e-01
8.609432094589533069e-01,1.731001313338952796e+00,-1.036422194574635469e-01
8.537930998924582182e-01,1.725782008314997729e+00,-1.011003323529368059e-01
8.523504517644441281e-01,1.712789563704189444e+00,-1.000790720563352193e-01
8.482255868487569295e-01,1.706032991237491192e+00,-1.014113316545764559e-01
8.429818112585786283e-01,1.694666877350648360e+00,-9.412991717781354906e-02
8.376659905142299634e-01,1.688533983760445834e+00,-1.015854717231594040e-01
8.313988652421447911e-01,1.679213441766956860e+00,-9.962397908276482417e-02
8.292012951214913219e-01,1.668084819191738788e+00,-9.971254133666797304e-02
8.208880607304182009e-01,1.658440232114635204e+00,-1.032764476557259115e-01
8.165788519812413604e-01,1.652441382078166265e+00,-1.010584903615145275e-01
8.107521030921023275e-01,1.644431982774251289e+00,-9.852823279452709027e-02
8.112852399004333304e-01,1.633078741447233417e+00,-9.881760814197006193e-02
8.045278689891242063e-01,1.630789808306708499e+00,-1.007890964053712451e-01
8.025883040482659769e-01,1.623455277854296330e+00,-9.835941867794950610e-02
8.021400122261442833e-01,1.614138342031308238e+00,-9.640402254099712798e-02
7.916600487750129478e-01,1.597070451538306957e+00,-1.008885061973798652e-01
7.897622954089477121e-01,1.586020047921192555e+00,-1.007779141787645272e-01
7.850805907016263907e-01,1.583365605583894720e+00,-1.002754333183541180e-01
7.808960100924756675e-01,1.575494903337812502e+00,-9.756418127928211115e-02
7.804594694504991548e-01,1.564149469302421158e+00,-9.187835452940330827e-02
7.743550801201389833e-01,1.552838888027405106e+00,-9.436156990377160547e-02
7.763346430197164416e-01,1.545434199930517005e+00,-9.983632781248373556e-02
7.628735947362662584e-01,1.541217398951888695e+00,-9.516281425844951014e-02
7.588254627811721331e-01,1.532326575620496900e+00,-9.521760478550653217e-02
7.542233928008055255e-01,1.527663314015356377e+00,-9.541498098541169315e-02
7.532925477007712534e-01,1.516907310497021433e+00,-9.459984255995645963e-02
7.480329121273490145e-01,1.510678562740476627e+00,-9.244929241335199388e-02
7.464398700315904023e-01,1.503164581716272652e+00,-9.228793871123304460e-02
7.448647758651404382e-01,1.493052889534995931e+00,-8.995802793032367517e-02
7.405659695804303055e-01,1.486800359867765042e+00,-9.649362944106444628e-02
7.335710956645700165e-01,1.474876270493036934e+00,-9.620352914417347467e-02
7.318868249823416994e-01,1.469474352064417344e+00,-9.125694132453865404e-02
7.245868584290648950e-01,1.459731252387312717e+00,-9.092341307089166214e-02
7.182601848031402447e-01,1.459118479534363910e+00,-8.612278327891824403e-02
7.146501588200037114e-01,1.451759059918803940e+00,-9.210527527614888188e-02
7.172806143314431893e-01,1.439704733128901015e+00,-9.452530554991112055e-02
7.150138059131238011e-01,1.432517550568570108e+00,-9.081215936093695040e-02
7.075028949938482192e-01,1.421458807023979753e+00,-9.367343222114841994e-02
7.044598087287904375e-01,1.416846724853224382e+00,-8.752523053069634351e-02
6.988718223403692642e-01,1.413591001017817206e+00,-9.171523144585973231e-02
6.973894636611872588e-01,1.395065321167894501e+00,-8.965562387676545564e-02
6.945330671307975434e-01,1.394399944866269836e+00,-9.120806405278908402e-02
6.869400841471445807e-01,1.387202955376876323e+00,-9.042411956143195373e-02
6.842518104600954221e-01,1.380216870028006415e+00,-8.703927350825857445e-02
6.838501761613616781e-01,1.373206693362347242e+00,-8.431256209559064019e-02
6.739751001104125061e-01,1.364745904712067137e+00,-9.117533188335941174e-02
6.731453807819950397e-01,1.357494909430714713e+00,-8.647118029990105703e-02
6.735132763170907921e-01,1.349735630086407401e+00,-9.047007997781737754e-02
6.674767690860231584e-01,1.343338121214388226e+00,-8.603366931313070898e-02
6.610630445958053381e-01,1.338915181810205635e+00,-8.704682866971791277e-02
6.586796654402135021e-01,1.335534712575979777e+00,-8.569710825087836770e-02
6.577305012202512291e-01,1.326221704410830204e+00,-9.360706218426684266e-02
6.565731281681211895e-01,1.315642264716737397e+00,-8.957724472332388721e-02
6.460415923331611632e-01,1.304702614575300457e+00,-8.941458306497357400e-02
6.485281340414817963e-01,1.302205605561388424e+00,-8.725616562807464449e-02
6.434770780145313562e-01,1.300102350880678159e+00,-8.313807861424253598e-02
6.386912810791001149e-01,1.289859498461739085e+00,-8.361129978043140010e-02
6.358934114324837905e-01,1.280456206196785240e+00,-8.776974632590615888e-02
6.317161131472786018e-01,1.274860801502063046e+00,-8.430090554154348603e-02
6.316971857301849624e-01,1.274909884076347533e+00,-8.564519257261558882e-02
6.275253677957365328e-01,1.257421615091282474e+00,-8.503625801478144342e-02
6.222821952487056496e-01,1.258870262805802609e+00,-8.289338564049099356e-02
6.179460163691068431e-01,1.248076066176915466e+00,-8.071889743220558855e-02
6.216916807961666569e-01,1.240773511869000867e+00,-8.278457015065811275e-02
6.152334389386836522e-01,1.239592294252166882e+00,-8.075594571127832355e-02
6.088420041963754636e-01,1.231611880871091858e+00,-8.234295468639707405e-02
6.037610139422382449e-01,1.226168897371931354e+00,-8.126364603165414646e-02
6.007970349142169875e-01,1.215363056839498634e+00,-8.080304959907122497e-02
6.018794561347461380e-01,1.208473933496970520e+00,-8.332813795899800258e-02
5.965958450757457010e-01,1.206241276937974005e+00,-8.068800759242908405e-02
5.948291894312716099e-01,1.202864014185637709e+00,-7.988913354325095917e-02
5.909935654735002375e-01,1.193112809597196566e+00,-7.835601195412925102e-02
5.927058882006972507e-01,1.182037041002696798e+00,-7.949709365927278004e-02
5.926645895803523967e-01,1.182238236571582890e+00,-7.876096263931690877e-02
5.805712904826425547e-01,1.169998577097874026e+00,-7.751579146911441454e-02
5.749669377722793628e-01,1.164776597277723091e+00,-7.754103108317585147e-02
5.749055702146257385e-01,1.158838973081444346e+00,-7.673973948145594581e-02
5.714873142261722716e-01,1.153139432129640873e+00,-8.045034272532532171e-02
5.672450467646868999e-01,1.141619533717101564e+00,-8.103896498720808417e-02
5.648467534562656711e-01,1.143628274016853741e+00,-7.692888767728475741e-02
5.651535446037928567e-01,1.133348495660609689e+00,-7.262645315957971803e-02
5.607571616407760473e-01,1.126141297417562415e+00,-7.528975257178550928e-02
5.602039032110689432e-01,1.121035715627841212e+00,-7.694004258207019775e-02
5.572600561609960534e-01,1.121557832593768955e+00,-7.390793483628957383e-02
5.510968059246081907e-01,1.116491232645955511e+00,-7.749628639807494557e-02
5.494375107183178120e-01,1.102131720371582801e+00,-7.728223000595728365e-02
5.451984477759108660e-01,1.101217982872595647e+00,-7.758034480729548987e-02
5.424560269569728144e-01,1.092791786187622183e+00,-7.529528675146227035e-02
5.423836802139114788e-01,1.093384349065617211e+00,-7.640143389350435854e-02
5.331573741867970950e-01,1.081311277101433488e+00,-7.370660324989675161e-02
5.368717725945204577e-01,1.077909556011943160e+00,-7.666913660093249705e-02
5.316056912227034026e-01,1.075632156209090473e+00,-7.929544370029921463e-02
5.239721944756764449e-01,1.064312650938038507e+00,-7.273444462868836058e-02
5.319463439533336224e-01,1.060998009039472390e+00,-7.466624326083524943e-02
5.249886719693132031e-01,1.054489706609792909e+00,-7.875903526998707938e-02
5.202096575421668589e-01,1.048928675700538937e+00,-7.262166127881149180e-02
5.223950763625198057e-01,1.041734804993760699e+00,-7.077152726070869149e-02
5.166081976888891036e-01,1.038421000736192035e+00,-7.279435153214197651e-02
5.135127272922553887e-01,1.034742562517346309e+00,-7.307030411228805644e-02
5.122612264416441796e-01,1.029073370547170629e+00,-7.292708608719034036e-02
5.081153808468942268e-01,1.021864649004163850e+00,-7.335224645104879149e-02
5.033719393172857437e-01,1.014710159933422950e+00,-7.321312123989774656e-02
5.000143301782354888e-01,1.008664234051985797e+00,-7.056271686971916923e-02
4.988951707882464115e-01,1.009423098490783932e+00,-7.264125055800270403e-02
4.961875887942716057e-01,1.004693773191747574e+00,-7.407036149408223469e-02
4.886109850183918968e-01,9.960117195314621696e-01,-6.854432729922113610e-02
4.851435131827995240e-01,9.870871241131141671e-01,-7.139631550875451260e-02
4.852352112847717058e-01,9.868190836597043880e-01,-7.063390149166984266e-02
4.831441905644764390e-01,9.812976410452382003e-01,-6.948415911986967342e-02
4.848383817196083578e-01,9.743307559077163393e-01,-6.896028123919809016e-02
4.794512413999695299e-01,9.658216023959199648e-01,-6.687554635963116612e-02
4.776985199628747680e-01,9.658979639239476667e-01,-7.085753694295766902e-02
4.728145678665559015e-01,9.579279273843858133e-01,-6.590803535147818359e-02
4.701053724774686970e-01,9.569438913625443188e-01,-6.992826627592339805e-02
4.694707099606485468e-01,9.501644820139133474e-01,-6.900513035321094446e-02
4.671099673603687497e-01,9.417690002123370041e-01,-6.969068370632923448e-02
4.594384658253649056e-01,9.342834803594979309e-01,-6.953430851658776168e-02
4.650784617065175097e-01,9.317282113336108340e-01,-6.450986975130115764e-02
4.573384423169925550e-01,9.263452671874964350e-01,-6.729821490011775320e-02
4.590399289680865413e-01,9.253966888668176960e-01,-6.853426086537128814e-02
4.550119878925536487e-01,9.230905166671181661e-01,-7.241059398955100590e-02
4.564626398269472918e-01,9.137974732997192762e-01,-6.792073593274160215e-02
4.544251831370648143e-01,9.088888668875577670e-01,-6.772271628887467643e-02
4.482959772338906967e-01,9.027926597276534348e-01,-6.193024178148252845e-02
4.416237479795036558e-01,9.023509350610988689e-01,-6.169291157381381202e-02
4.461448215523515781e-01,8.996638600308223266e-01,-6.593657260290131106e-02
4.472447872293268678e-01,8.883034052471937558e-01,-6.414303109940362735e-02
4.404565489368323927e-01,8.837296224155465341e-01,-6.365884588398688926e-02
4.388253950906948475e-01,8.814782433111691962e-01,-6.321676796635672391e-02
4.337908713219199575e-01,8.769735176434335644e-01,-6.729860397673713412e-02
4.305993882547537455e-01,8.710115302058445419e-01,-6.109583227621828011e-02
4.368129827977826340e-01,8.693391241124717173e-01,-6.492083401724037250e-02
4.324969883405376248e-01,8.613675297374426831e-01,-6.186015388760796041e-02
4.206624913045629577e-01,8.571758668669440251e-01,-6.419975251316595299e-02
4.228420033985168525e-01,8.557059917062597165e-01,-6.208532620504943200e-02
4.274122392004547355e-01,8.505453970013090448e-01,-5.990779787565159858e-02
4.209396646385077378e-01,8.419064632833703765e-01,-5.873907852679576685e-02
4.149888574752256254e-01,8.399802019076191284e-01,-5.957039946413097281e-02
4.167850869165546923e-01,8.329149891482373613e-01,-6.102383081013943583e-02
4.107619643534289877e-01,8.315577815791325156e-01,-5.935717751125223901e-02
4.141890166484016311e-01,8.277438375959870198e-01,-5.991881358796154883e-02
4.097149263627687943e-01,8.183100967664523884e-01,-6.293264511826925089e-02
4.082176518137305976e-01,8.160363027940319425e-01,-5.752896577361791414e-02
4.054622960634858275e-01,8.137852586769706020e-01,-6.096894307479097663e-02
4.036271150631131621e-01,8.080358221865320267e-01,-5.654481990925680490e-02
4.036106093801076211e-01,8.060608189610677377e-01,-6.224712457158992907e-02
4.026141740555365667e-01,8.043551363358651951e-01,-6.030897504626111377e-02
4.014246640784238651e-01,7.965262105787083158e-01,-5.562280085683288244e-02
3.911615244110400735e-01,7.934813674950126350e-01,-6.141104370340865620e-02
3.943971999089124769e-01,7.903030640788061278e-01,-5.669446140056142586e-02
3.895277103100983074e-01,7.860710908701515898e-01,-5.926385891810569129e-02
3.865538215459885518e-01,7.801428275260138268e-01,-6.105074744244750468e-02
3.853827818586456622e-01,7.729853814697660308e-01,-6.019974722387883698e-02
3.839977834203843199e-01,7.684485810338378409e-01,-5.500336545287941997e-02
3.822072088377939103e-01,7.704753870451824804e-01,-5.892416039120931814e-02
3.771238446735484251e-01,7.654459824039460125e-01,-5.833658155682992785e-02
3.787703501940117290e-01,7.580935916922146856e-01,-5.377069573725423712e-02
3.719050668307812280e-01,7.551041296521885382e-01,-5.665508475445226594e-02
3.753469827696657712e-01,7.472515153039209768e-01,-5.646838789170940259e-02
3.744547142424469177e-01,7.410662326231679531e-01,-5.917193863656716735e-02
3.669609917056705917e-01,7.432065690483264930e-01,-5.774159708798071167e-02
3.677338679419135392e-01,7.383141440496722163e-01,-5.665008622883528633e-02
3.635985794258331238e-01,7.357717325339080405e-01,-5.870152357103693153e-02
3.654016422329842140e-01,7.345116010745392776e-01,-5.525511601249038368e-02
3.621312519276850828e-01,7.284272204047106403e-01,-5.569730195796310929e-02
3.572874731622637245e-01,7.216867398761532826e-01,-5.055922882424422615e-02
3.546792548241401999e-01,7.244273468667631333e-01,-5.578003918806349187e-02
3.557463249518088566e-01,7.164546551516256523e-01,-5.771483358068402875e-02
3.522413171690211842e-01,7.140937809058909291e-01,-5.559170836015663725e-02
3.541148596057098197e-01,7.113408325343227867e-01,-5.575214671073571576e-02
3.518018294424465897e-01,7.099211326731695859e-01,-5.368939032892204588e-02
3.515201945489302982e-01,7.011265781383945184e-01,-5.323547357309874051e-02
3.482733810059059354e-01,6.990823020193939197e-01,-5.111785853220146558e-02
3.428844527035368461e-01,6.953508625757593986e-01,-5.669556342541246657e-02
3.442822610239494874e-01,6.951864421590785437e-01,-5.219300733895349681e-02
3.412866073031229908e-01,6.910849499305841137e-01,-5.265807986863036555e-02
3.335212734438358084e-01,6.853462410074546707e-01,-5.369178664553697633e-02
3.405826194879890689e-01,6.761595718510113873e-01,-5.272258319230042206e-02
3.352018206680882351e-01,6.793523542411321614e-01,-5.403661729349193421e-02
3.330980217710047264e-01,6.725488761624220935e-01,-5.001645753539822603e-02
3.356629705988357637e-01,6.690567457822330644e-01,-5.344377964290254746e-02
3.283460419682873721e-01,6.691793137101619271e-01,-5.360056750410278209e-02
3.285155550510379663e-01,6.655159161804261592e-01,-4.953157037339919744e-02
3.295950334314428631e-01,6.634866702661434967e-01,-4.883881029798572276e-02
3.236933592204143673e-01,6.561729022976692249e-01,-4.907979692720169929e-02
3.269562327971958782e-01,6.518374818592944653e-01,-4.820045043874882779e-02
3.219221163902728500e-01,6.501496934415241791e-01,-5.015446103024814167e-02
3.175081269958168750e-01,6.468751548861887413e-01,-4.445732399891126618e-02
3.206045112612184722e-01,6.397751090172592026e-01,-4.992655303707096287e-02
3.181259751582905526e-01,6.418945033338422368e-01,-4.854304466928870132e-02
3.124336388506094853e-01,6.371903502828211163e-01,-4.537917805187328957e-02
3.174123673146567737e-01,6.325388361212438415e-01,-4.330300348439483638e-02
3.163490568785349843e-01,6.328502668032734979e-01,-5.125305054915980929e-02
3.079354077126779665e-01,6.266276555051190078e-01,-4.715817522076458379e-02
3.150420926282972989e-01,6.210400647611070690e-01,-4.705206970912580861e-02
3.090554144097304445e-01,6.205027644950601440e-01,-4.656996331487569390e-02
3.065196217266575873e-01,6.165578493828224316e-01,-4.519726737547591355e-02
3.056404922553180858e-01,6.169246452419400173e-01,-4.503163297270189325e-02
3.006819091339243966e-01,6.130394561278688093e-01,-4.809702445527637427e-02
2.969904575288044302e-01,6.069272170923336596e-01,-4.463004586892405784e-02
2.968648036216450792e-01,6.031282268898195964e-01,-4.627206034222820785e-02
3.036256340737524817e-01,6.045815694401749374e-01,-5.033482507358200131e-02
2.977784753568133436e-01,6.010020149531225542e-01,-4.671985914735765633e-02
2.939463422517337166e-01,5.972894808594297889e-01,-4.885899147935672537e-02
2.925227105991098919e-01,5.951829361605353030e-01,-4.591775214794659166e-02
2.954737883788586261e-01,5.892688762818223402e-01,-4.342584542934390529e-02
2.890280952657788283e-01,5.853052338725226456e-01,-4.368922701977196593e-02
2.855384844116393706e-01,5.854532909644858396e-01,-4.136366809590234089e-02
2.873699092624208418e-01,5.774832369897663353e-01,-5.120299261517113898e-02
2.859134405976010984e-01,5.756066625594149500e-01,-4.306851442139230518e-02
2.833592764953683507e-01,5.728173069990625255e-01,-4.147902993286985140e-02
2.848918856259239907e-01,5.685257976990643058e-01,-4.706384826877919869e-02
2.887231035504027044e-01,5.653723235450165419e-01,-4.536129856741535904e-02
2.804048386095147616e-01,5.598917998940707852e-01,-4.376695700487016893e-02
2.767792124520006558e-01,5.601213660028580010e-01,-4.782542004427522281e-02
2.768258596228301283e-01,5.546188247328138754e-01,-4.376053743232438675e-02
2.773360448534239464e-01,5.556982721871027708e-01,-4.470634734525062715e-02
2.766790030838985337e-01,5.506996810199410453e-01,-4.982533966208291254e-02
2.670616908726956562e-01,5.544109310063717322e-01,-4.368182923286911823e-02
2.717999258323387513e-01,5.487234857161971124e-01,-4.348977970966755313e-02
2.681657799096400785e-01,5.420359575609181579e-01,-4.309725954745192295e-02
2.629932775494065456e-01,5.372959197340462234e-01,-3.954805884101927210e-02
2.664951390904585771e-01,5.346087834204708011e-01,-4.551753286509575142e-02
2.667890960205728801e-01,5.366535255071084309e-01,-4.298887868296224352e-02
2.670118080057705678e-01,5.355295178364820607e-01,-4.261749018714908188e-02
2.615380293669078982e-01,5.272018723687426078e-01,-4.092284900024380223e-02
2.592278755953255076e-01,5.290044746936152231e-01,-4.365976707563018477e-02
2.592235169434623510e-01,5.184034784471774904e-01,-4.623402253498959391e-02
2.566984565211021807e-01,5.206007602755491348e-01,-4.184065614864161675e-02
2.585413486732831556e-01,5.113074252677413112e-01,-4.435010557044946622e-02
2.557248748487877532e-01,5.208037891774193184e-01,-4.055273428626634397e-02
2.579017983652748813e-01,5.147018792395883224e-01,-4.483407128953344895e-02
2.547539325664728849e-01,5.042306550406736587e-01,-3.944961878556284968e-02
2.512135545162020867e-01,5.056662633536920248e-01,-3.924090899776996183e-02
2.521537857546097827e-01,5.051533630973932265e-01,-3.626078083118956796e-02
2.433106046571696934e-01,4.988171802506958796e-01,-3.835389789844424746e-02
2.461178603772387063e-01,4.988344614831494161e-01,-3.994411975580245550e-02
2.461955093625201874e-01,4.957652238063766648e-01,-3.692464096247908417e-02
2.471611425768638348e-01,4.920274600528498077e-01,-3.971271359906997783e-02
2.455324990127969176e-01,4.910791445418939971e-01,-3.679455762751653036e-02
2.437301294567560672e-01,4.868838068907287431e-01,-3.774071300146450425e-02
2.422964392931966915e-01,4.884647582803800514e-01,-3.656986606003595486e-02
2.401344111283696681e-01,4.800395194036566338e-01,-4.389931374331573766e-02
2.383107749126091024e-01,4.772604253946424180e-01,-3.855782015006647967e-02
2.398919654388723677e-01,4.751007857638808729e-01,-4.174187256604346835e-02
2.358918125325107640e-01,4.797847606491929540e-01,-4.177916163500083879e-02
2.344850649519788777e-01,4.747889783806107933e-01,-3.712464529365117061e-02
2.316059028193180880e-01,4.721964785260720499e-01,-3.221504282256512641e-02
2.295978796109010844e-01,4.648248788765186879e-01,-3.535180466115147441e-02
2.324036509010422580e-01,4.665551438885474078e-01,-3.670888207109714724e-02
2.274587121791993294e-01,4.634368758809664368e-01,-3.687545671544883996e-02
2.288232845752378730e-01,4.570445756843241614e-01,-3.874083062156109813e-02
2.279500240686194446e-01,4.607801043254353135e-01,-3.360510790921884816e-02
2.255727324784810583e-01,4.543895954570886797e-01,-3.787795054195614020e-02
2.279382692449737624e-01,4.566325050254137485e-01,-3.424983305169296277e-02
2.208769675240176422e-01,4.575046258617076478e-01,-3.196184997693507501e-02
2.252708897349161299e-01,4.502786758640521247e-01,-3.741685091515577904e-02
2.204166173956460806e-01,4.483758590488716167e-01,-3.326824158261461328e-02
2.184022277299578485e-01,4.452424115364850277e-01,-3.561694961786455310e-02
2.158753558568437536e-01,4.381222991379599696e-01,-3.544296552452673443e-02
2.165086848167580846e-01,4.395149088225542844e-01,-3.303964786244405899e-02
2.197947577337064362e-01,4.357143837546505472e-01,-3.614491589970241642e-02
2.164142972423495903e-01,4.316375061101589417e-01,-3.693210430856017079e-02
2.191638129936757939e-01,4.328422157124055536e-01,-3.337802712567266433e-02
2.128469801075001111e-01,4.349824197592122577e-01,-3.371632479649865760e-02
2.138044320742097937e-01,4.228929185962837511e-01,-3.442360485404305503e-02
2.076967414394536027e-01,4.239327931764911850e-01,-3.310808289156149525e-02
2.116959478193496946e-01,4.222578402403802666e-01,-3.243518887876468276e-02
2.085273854105828273e-01,4.148983205020023712e-01,-3.694615175543445457e-02
2.118433840775559018e-01,4.171258820250897115e-01,-3.647529204818091703e-02
2.040856262801387100e-01,4.215285510815143799e-01,-3.390477492991961217e-02
2.103727192494256326e-01,4.104503560820164099e-01,-3.290109619325267548e-02
2.035472071900902846e-01,4.163330589880663846e-01,-3.641263989193170569e-02
2.016829309947801852e-01,4.086216167799835430e-01,-3.122543387672757284e-02
2.007820233615278394e-01,4.057088867425565626e-01,-2.746167981521580731e-02
2.048729041061020384e-01,4.065621289543196459e-01,-3.016827956127497018e-02
2.035033035901673559e-01,4.043628489116578018e-01,-3.052665811583432295e-02
2.018664968666392945e-01,4.060922858822579307e-01,-3.378275204885481525e-02
2.009661740085381676e-01,4.050638557582112997e-01,-2.971627457449946622e-02
2.011677305981283137e-01,3.966932174729104754e-01,-3.300260463897457947e-02
1.980990829136822229e-01,3.955176214535740531e-01,-2.863812968305099252e-02
1.978711826099074922e-01,3.945853311554126663e-01,-3.275588311419097565e-02
1.939918341376180022e-01,3.862352241767456063e-01,-3.254406295041584879e-02
1.922927435808968744e-01,3.879651433603429345e-01,-2.891167827844941252e-02
1.925329264766280912e-01,3.889112754230726332e-01,-3.112472441805707105e-02
1.870505754190903702e-01,3.833757482081059376e-01,-2.900146943845512831e-02
1.909576344951906257e-01,3.855332014933660068e-01,-2.860943065791972037e-02
1.866540927241540637e-01,3.802422935310227348e-01,-2.583309814008683675e-02
1.876030014394834966e-01,3.776447202686565308e-01,-3.075021332857836784e-02
1.854823401844074571e-01,3.777096111097977271e-01,-3.083717758033586651e-02
1.840632086495880282e-01,3.747829790102182868e-01,-3.467545928786264914e-02
1.909982109320531862e-01,3.763039017864717728e-01,-3.071729351949961662e-02
1.848605054446198492e-01,3.734153444246018916e-01,-3.394543817125644791e-02
1.844776520808232012e-01,3.716421508302597543e-01,-3.241990093096026870e-02
1.841631720943895101e-01,3.664125681813486524e-01,-2.774765747531419968e-02
1.822429255249260749e-01,3.634336393738403226e-01,-2.825017146873411156e-02
1.815577766363657974e-01,3.668443422173034985e-01,-2.936098091517061470e-02
1.766658572575172947e-01,3.593835766676277133e-01,-2.725302320588578187e-02
1.815903191686412954e-01,3.583953270686199843e-01,-2.981577702396166762e-02
1.779127217243016978e-01,3.608015384923223823e-01,-2.731436751869157492e-02
1.795373816039215198e-01,3.620517810077272247e-01,-3.146729790526901771e-02
1.749883763658425517e-01,3.605652095496620912e-01,-3.064379944232850650e-02
1.741541525510872102e-01,3.514554161911642161e-01,-2.825894271192707155e-02
1.719000124969124188e-01,3.481010198247300735e-01,-2.723214326465924623e-02
1.753912010225552875e-01,3.497096395835915250e-01,-2.498249368374142604e-02
1.726617270216344036e-01,3.428106183465138845e-01,-2.570801457126861353e-02
1.722536767545396474e-01,3.446473450130101424e-01,-2.887072707628390508e-02
1.694659646638042860e-01,3.437632295026856744e-01,-3.097335669486790330e-02
1.692223217800506996e-01,3.406995325931237995e-01,-2.570161429207471621e-02
1.683795552853696587e-01,3.358470715876285539e-01,-3.045393619502527460e-02
1.659903379566036175e-01,3.392331524505938223e-01,-2.877201392357234960e-02
1.676784916936878700e-01,3.353348021811703439e-01,-2.298753074789255599e-02
1.585214857884031936e-01,3.340081308671310478e-01,-2.290927087548058974e-02
1.664798314916241528e-01,3.300629598659469699e-01,-2.702876567748323244e-02
1.681020446590430761e-01,3.296649137600907165e-01,-2.221954287435561060e-02
1.650199315138350942e-01,3.285429852979258603e-01,-2.751467640567403436e-02
1.627698684042908628e-01,3.250641502249882464e-01,-3.328971697798668861e-02
1.671827791984435707e-01,3.259643239571033968e-01,-2.890562729867999017e-02
1.620268660576835718e-01,3.233502938851908204e-01,-1.783070372013947566e-02
1.615860704432181272e-01,3.185998910581068211e-01,-2.601506505241473963e-02
1.615174169347834421e-01,3.143577612733982063e-01,-2.831398866758150223e-02
1.602116126830274156e-01,3.221602748066022537e-01,-2.848515599860711872e-02
1.571714389768360531e-01,3.133846591243197310e-01,-2.647616993805775032e-02
1.595974510122580570e-01,3.174165327363358546e-01,-2.441488321130444797e-02
1.573711927381332976e-01,3.159232370816384972e-01,-2.521047496990784856e-02
1.552948223162912700e-01,3.110865270827136708e-01,-2.530561815851688559e-02
1.579992478687095858e-01,3.081767653783147320e-01,-2.024256642048392202e-02
1.530802777945752258e-01,3.110604987726525716e-01,-2.421494000839679792e-02
1.558731504083028796e-01,3.098060985753829377e-01,-2.164286801195852011e-02
1.517778447687369303e-01,3.031707061931145919e-01,-2.205979560405829654e-02
1.500735994216347291e-01,3.067496691114425800e-01,-2.631995983988242443e-02
1.469220400017706707e-01,3.027069798751205187e-01,-2.581285127513062438e-02
1.536579190897590097e-01,3.054495793511495805e-01,-2.852718422567734891e-02
1.468094229093814540e-01,3.013030303851694791e-01,-2.178275880855635657e-02
1.505408444206646212e-01,3.009126000614525953e-01,-1.807742620423326979e-02
1.496972233341120895e-01,2.936795108406514698e-01,-2.367531486391505346e-02
1.452239170314028049e-01,2.944806959247056599e-01,-2.282532098772776033e-02
1.455402252895311999e-01,2.902890124126206728e-01,-2.545824042839998913e-02
1.434082475456040784e-01,2.935565901923269383e-01,-2.087409543057542477e-02
1.448703758780289785e-01,2.899954558888416245e-01,-2.260705416904689943e-02
1.407449681116585694e-01,2.864275883072829876e-01,-2.566420500515402200e-02
1.414975911868799341e-01,2.892768929778430920e-01,-2.608569712016700626e-02
1.470882826557299849e-01,2.846668803937035253e-01,-2.622423648465640328e-02
1.369993198020915681e-01,2.900540575143943922e-01,-2.774733368605690129e-02
1.420827316805891860e-01,2.821861259010441381e-01,-2.079646146399546577e-02
1.394698040395408734e-01,2.820338241733514884e-01,-2.071026167046005617e-02
1.395900607544759697e-01,2.764726128042715447e-01,-1.980867074879491541e-02
1.393604517078211869e-01,2.809963275462922794e-01,-2.619746968975550719e-02
1.409862593760957961e-01,2.754140025384606005e-01,-2.066205801032536607e-02
1.394409418990466554e-01,2.732500664331274365e-01,-2.161071497307580358e-02
1.319281890379468691e-01,2.738504197584934463e-01,-2.131618753615753190e-02
1.329037940113428629e-01,2.700904356634092340e-01,-2.390017240260548792e-02
1.408733221234522437e-01,2.738921997066958713e-01,-2.484733514842158222e-02
1.374984314570788513e-01,2.718025718316212092e-01,-2.392649096864385774e-02
1.304837443304756595e-01,2.735286322302589723e-01,-2.477949951134100076e-02
1.413382579258770366e-01,2.635375836539609051e-01,-2.523330141298961438e-02
1.307699666454335274e-01,2.632066067731408943e-01,-1.894456117199795619e-02
1.314663907421879663e-01,2.616463438693005794e-01,-2.432358427914936214e-02
1.355803016546753559e-01,2.649102013960453750e-01,-1.860072932907590529e-02
1.297458043806443695e-01,2.631188698940005732e-01,-2.241559123956419694e-02
1.260943896260682262e-01,2.567018477655471087e-01,-2.022260090185391129e-02
1.308294703287424532e-01,2.591320466576301773e-01,-2.004812607784973652e-02
1.266650175660237465e-01,2.543395795149049898e-01,-2.249374986791043834e-02
1.266158496509647291e-01,2.588162031239354399e-01,-2.006834658273982247e-02
1.275152056084499497e-01,2.558092419848218557e-01,-1.905760374115006775e-02
1.299210290615677166e-01,2.509444395661675764e-01,-2.274487590219154837e-02
1.247369389051884020e-01,2.501015192082962635e-01,-1.938650287764612581e-02
1.253179657558675664e-01,2.503800849286256791e-01,-2.342394710599794705e-02
1.200701021600825147e-01,2.472540880602219493e-01,-2.157934213527963607e-02
1.243041801560084841e-01,2.491293192636858944e-01,-1.671199715607668210e-02
1.187299897998749937e-01,2.430131563726493082e-01,-1.990792253146764224e-02
1.250249958896207381e-01,2.367143598292412165e-01,-2.029647069489845870e-02
1.189219724226996400e-01,2.434318895263795079e-01,-1.929902944708828186e-02
1.236413735518248763e-01,2.428477942656582511e-01,-1.801438143239710368e-02
1.256541139710388721e-01,2.377296433060955283e-01,-1.731015470202796475e-02
1.174022758493577234e-01,2.405728413138537580e-01,-2.265798894464438398e-02
1.189041294470630644e-01,2.427620060885615771e-01,-1.901647854708234456e-02
1.155420783627183201e-01,2.380591335257751240e-01,-1.806529628197834150e-02
1.195988734223195626e-01,2.390650141399711381e-01,-2.035830412349967991e-02
1.184343319543059575e-01,2.349593446803549812e-01,-2.216874884324078823e-02
1.163225924916212878e-01,2.375814121337192775e-01,-1.859494204349875987e-02
1.123618641061006895e-01,2.309636003347274036e-01,-2.052521108726818380e-02
1.156321884717189524e-01,2.300402002493143472e-01,-2.353696259033992780e-02
1.164760364559133538e-01,2.267908191361823478e-01,-2.209690770770555632e-02
1.174229135132353607e-01,2.282973701917751508e-01,-1.732686019641838451e-02
1.204802101460233921e-01,2.275668888137433454e-01,-1.818114067929391814e-02
1.127763304106402104e-01,2.272237689317906650e-01,-1.584152443212332589e-02
1.130872951147536692e-01,2.251536321943103935e-01,-2.162954118300916551e-02
1.097657333624877662e-01,2.267075534222872391e-01,-2.115303733644038203e-02
1.067962221476513596e-01,2.191717236235929400e-01,-2.538066920608723909e-02
1.073857724018682652e-01,2.244972843826747722e-01,-1.866485276019791764e-02
1.055710969685821482e-01,2.210018474642144737e-01,-1.818301416100330525e-02
1.107167946979380480e-01,2.187312698989013759e-01,-2.095008272946623229e-02
1.089311085979081661e-01,2.199568017912791884e-01,-1.924050431841617045e-02
1.102380934864500145e-01,2.175028632056550670e-01,-1.804611977058828698e-02
1.103993246830630437e-01,2.153071908176880933e-01,-2.407398970522045198e-02
1.050397236605882523e-01,2.178594208157645373e-01,-2.007769540855789195e-02
1.078145079037494403e-01,2.123579516165221281e-01,-2.173395554127653326e-02
1.055956972247601017e-01,2.124578189914458903e-01,-1.229266652581146972e-02
1.073026521249743209e-01,2.166903240359192573e-01,-1.848728253144604067e-02
1.047341954407932513e-01,2.096808680048694584e-01,-2.061075338379728811e-02
1.040490545859213273e-01,2.124552739536343660e-01,-1.529854167791287745e-02
1.052691262865791816e-01,2.096080890351456893e-01,-1.866897077316838696e-02
1.056650232886217206e-01,2.077196772479038556e-01,-1.729797822996005652e-02
9.839123770929354695e-02,2.080268098062799942e-01,-1.805761761164518392e-02
1.077593981478418977e-01,2.077059080774524558e-01,-1.813574369757482360e-02
1.016787720179919002e-01,2.022299553119212556e-01,-1.357848977924687971e-02
9.635818514224413212e-02,2.002246054092550465e-01,-1.833035245365803589e-02
9.938939198120359808e-02,2.023327991121129377e-01,-1.737654033596784317e-02
1.025927468621340571e-01,2.040012439285011081e-01,-1.789656550165047086e-02
9.705900180445738157e-02,2.003643218538516402e-01,-1.897902241482403787e-02
9.829606890335733371e-02,1.961844580301632390e-01,-1.910240330361889782e-02
9.964613443058414899e-02,1.988919857792156853e-01,-1.193405486371687356e-02
9.923206355828641245e-02,1.963175333527125976e-01,-1.276057170545834459e-02
9.637755640512724042e-02,1.957418693956937961e-01,-1.945122131944369837e-02
9.671972480963682284e-02,1.967748692234378427e-01,-1.478758749056035930e-02
9.604489147008181404e-02,1.932515877208449140e-01,-1.618018589550595729e-02
9.755156103254963851e-02,1.928862894898383251e-01,-1.659022815326452460e-02
9.747349140288041891e-02,1.864905023982814380e-01,-1.448220531659382034e-02
9.587644610142782853e-02,1.886255018714974585e-01,-1.068415273877240147e-02
9.663949185134920739e-02,1.885354332998055438e-01,-1.685408767992887732e-02
9.241132385408915018e-02,1.918307326338082597e-01,-1.758002091989954024e-02
9.466448731968261920e-02,1.879645105770554048e-01,-1.222198491989369071e-02
9.212758376381847969e-02,1.895092976738118051e-01,-1.314420052078120460e-02
9.003836109093737994e-02,1.851327228216104459e-01,-1.568029025339414892e-02
9.135704264483257564e-02,1.815650048406991235e-01,-1.812790884183832982e-02
8.936977629862885575e-02,1.856930157491211986e-01,-1.197846403806224549e-02
9.010594911546129793e-02,1.871655232882372399e-01,-1.512533264820065809e-02
8.775855321323486335e-02,1.815722325835296691e-01,-1.213790848836178264e-02
8.926171736397421619e-02,1.858399857545738609e-01,-1.273476220234658236e-02
8.859062259179986687e-02,1.821602339840809048e-01,-1.332129956601145991e-02
8.360338269003234068e-02,1.833017143650012004e-01,-1.393054968859374493e-02
8.987857250090693084e-02,1.747473020633089902e-01,-1.644195951196446639e-02
8.693181811760015976e-02,1.756750394208222987e-01,-1.654474125538771614e-02
8.304952309481901385e-02,1.736452736346059122e-01,-1.100061052097318914e-02
8.845185099851252120e-02,1.800406449097509409e-01,-1.693456608393990523e-02
8.939490548560168059e-02,1.771829274591938952e-01,-1.609701263834218202e-02
8.675358351991112327e-02,1.722884677968256339e-01,-1.695284286187503237e-02
8.628982599634484052e-02,1.718426875393423148e-01,-1.496698904025373610e-02
8.679625096123090577e-02,1.684923519281689708e-01,-1.707260917416696805e-02
8.735082686845799249e-02,1.724465437709569171e-01,-1.607087500178828315e-02
8.983128580528457197e-02,1.734753720096460228e-01,-1.611333374381232822e-02
8.417000129956281329e-02,1.660746967913774574e-01,-1.964362318025807130e-02
8.408288214949177775e-02,1.681021718739709181e-01,-1.834804401283066447e-02
8.313317256572816394e-02,1.651452724473510825e-01,-1.469401096121129152e-02
8.030279144725922802e-02,1.647690311366303839e-01,-1.349551847733942989e-02
8.440804545435645623e-02,1.655093485995416669e-01,-1.577870646481448896e-02
8.465050990441633227e-02,1.666742160815139207e-01,-1.265041225069564110e-02
8.227452815021632504e-02,1.669532001450363679e-01,-1.208881204696834501e-02
8.108400566549554822e-02,1.658485338920550056e-01,-1.329526516402066393e-02
8.210877118637077698e-02,1.597795706928117065e-01,-1.985635468781595317e-02
8.168805879597439146e-02,1.619562462897140287e-01,-1.400602375042472349e-02
8.087306117367241975e-02,1.629471891940216244e-01,-1.867127582764545671e-02
7.873753435427444103e-02,1.622974022298423191e-01,-1.260823033328858228e-02
7.858586959039740027e-02,1.622295062459061521e-01,-1.139778762205352972e-02
7.841251827103691563e-02,1.575024564650709946e-01,-1.608759093116542832e-02
7.704231874793074364e-02,1.623351152156850830e-01,-1.025959114555784549e-02
7.535215189501849598e-02,1.596710333947573557e-01,-1.316952458502835231e-02
8.122759795641305847e-02,1.556140889277279338e-01,-1.463454130518121801e-02
8.062602022952945757e-02,1.530956161511828895e-01,-9.755936965611673728e-03
7.834281816027377499e-02,1.480640479261710052e-01,-2.055479136649308175e-02
7.565958102898667770e-02,1.532830376400923789e-01,-1.361059403367190224e-02
7.639695097360514608e-02,1.491431358099408744e-01,-6.981088714379067930e-03
7.675018535346236903e-02,1.499750806474930975e-01,-1.480028223941411321e-02
7.561686055494770686e-02,1.489614651213401753e-01,-1.778684607460516084e-02
7.224713919205176527e-02,1.559593614925743887e-01,-1.609294778423278269e-02
7.246473643716275226e-02,1.497049692298671186e-01,-1.354495012097604000e-02
7.436515449610207884e-02,1.503926871637233653e-01,-1.230454982418680010e-02
7.109476702408870641e-02,1.454924444764909008e-01,-1.556784099075017060e-02
7.549385001839448162e-02,1.464145099942913697e-01,-1.098212036355283687e-02
7.692529689827647121e-02,1.500751223291780789e-01,-1.118548727449287551e-02
7.586691651037540118e-02,1.464051511463683453e-01,-1.372771097952157383e-02
7.355294291140539176e-02,1.415021326203696195e-01,-1.208411873045835312e-02
6.882969933701169052e-02,1.396638723471511356e-01,-8.739769574355245318e-03
7.033118920644146344e-02,1.422966297057175478e-01,-1.229327548764782771e-02
7.481857295411252495e-02,1.396972725612397326e-01,-8.837038168306578928e-03
7.151995363270800821e-02,1.444868387869759629e-01,-1.261471804125745971e-02
6.626840966967122160e-02,1.421727534177902874e-01,-1.192051648032910194e-02
7.032402905858146924e-02,1.440893510225949303e-01,-1.618698087950656492e-02
7.216966308034752919e-02,1.385657145580926619e-01,-1.085049083159125155e-02
6.492144727475766819e-02,1.398185235170510687e-01,-1.403248956579493216e-02
6.887560637521483731e-02,1.398576443950870218e-01,-1.334014064519421089e-02
6.953519646937418586e-02,1.444122260733311236e-01,-1.273217606478393646e-02
6.965395073266350545e-02,1.332412237874404382e-01,-1.316464226309921152e-02
7.188364830272181427e-02,1.393063056837657854e-01,-9.223534434995593612e-03
6.770552833177928553e-02,1.349765278329487783e-01,-1.135767498872147958e-02
7.125471366462968192e-02,1.345778201293580667e-01,-1.002540344708407680e-02
7.256384331443294089e-02,1.309907392020009942e-01,-1.036748030999584159e-02
6.562300544896067234e-02,1.325470250705536590e-01,-4.546735220387415448e-03
6.678925245310349257e-02,1.340745381471941944e-01,-1.196640307435369380e-02
6.677433639764762674e-02,1.308738279615664635e-01,-9.717463842210722139e-03
6.514480520161818056e-02,1.316145050728771415e-01,-1.654200792061491163e-02
6.568294276584973890e-02,1.327250058164234081e-01,-1.190985523375513722e-02
6.256297871235855235e-02,1.335496414845716573e-01,-1.047018579133178820e-02
6.232384110912041891e-02,1.319206791853727023e-01,-9.265294158918338865e-03
6.211162065174859886e-02,1.290301781473370546e-01,-5.936328956446171659e-03
6.696320555453355583e-02,1.264065319845073532e-01,-9.428621214181587273e-03
5.893885713683053723e-02,1.265313193162841132e-01,-6.163913657462979923e-03
6.372444509360995768e-02,1.272002875691794210e-01,-8.481609273341152860e-03
6.249919295490841131e-02,1.272216546871382525e-01,-1.536138324937091557e-02
5.587924646093177933e-02,1.243704719638545342e-01,-9.729880007462938032e-03
6.282764105038123048e-02,1.251692742066783659e-01,-1.024998814869973462e-02
6.258186480781198491e-02,1.251402063016978372e-01,-8.459280745193366660e-03
6.073111878468307606e-02,1.188685225346082092e-01,-1.110588574149143186e-02
6.083418420040711400e-02,1.213551442710539829e-01,-6.964383029095578583e-03
6.403560605283128981e-02,1.217326490864824584e-01,-9.997921205037278714e-03
5.908787017212981107e-02,1.258508187374862697e-01,-7.475163833245560170e-03
6.211497047257442949e-02,1.224878221230311370e-01,-9.868973982536268993e-03
5.784774351095722106e-02,1.186182595476999169e-01,-7.031165448024768137e-03
5.837239742307433893e-02,1.212362369192539618e-01,-8.907248258790729720e-03
5.899645372242692809e-02,1.179855203175419892e-01,-1.157671757790378932e-02
6.177141774223537940e-02,1.185954849574864384e-01,-1.009003000442183252e-02
5.755123994106325913e-02,1.153768775614572584e-01,-1.004225657904971904e-02
5.435661019670334770e-02,1.150738150112932678e-01,-1.044766429629534477e-02
5.890634255766460242e-02,1.131138744764965121e-01,-7.424120498702463204e-03
5.628650773074748287e-02,1.131334792945452999e-01,-9.393310992448108271e-03
5.840613844026317641e-02,1.136376584875045670e-01,-1.194096197694421123e-02
5.902722032233394256e-02,1.107515494198169775e-01,-7.688722956647887040e-03
5.763003406195937872e-02,1.120085077593539202e-01,-1.001084332554555596e-02
5.323641765013722299e-02,1.091360995383218041e-01,-9.009540569456849640e-03
6.044986092115901127e-02,1.138608061212217221e-01,-5.326849278877531131e-03
5.348815792096295318e-02,1.108487262196754669e-01,-1.467917125733712337e-02
5.397804430863304553e-02,1.085932836013842606e-01,-1.224235692258632442e-02
5.418144016201732055e-02,1.074817384781892038e-01,-1.230304378253896554e-02
5.397255306918878615e-02,1.074015534294541913e-01,-6.823975429227089988e-03
5.303161748157918937e-02,1.073842116744673364e-01,-7.627716614036321452e-03
5.824985059441452340e-02,1.092845837653429325e-01,-1.316297458312445760e-02
5.167406284000636285e-02,1.077041590984262054e-01,-9.125497532555730193e-03
5.114384873839977058e-02,1.054500692013266849e-01,-7.523424019952532592e-03
5.124684709293283319e-02,1.090163173938631103e-01,-9.937655895134293177e-03
5.429464510615284595e-02,1.017968411757569913e-01,-1.075780316794921858e-02
4.950348317525710140e-02,1.082289711934504156e-01,-1.104938959451624847e-02
4.736524946376780704e-02,1.041614088597642152e-01,-1.059045034384317914e-02
5.258885333327927014e-02,1.077085695760957168e-01,-9.562436904104302388e-03
5.371754266054467458e-02,1.028141259244970546e-01,-5.552730219609836038e-03
5.090146350960648991e-02,1.075123587402528752e-01,-9.075764673367991628e-03
5.082862606059510013e-02,1.024721239372244908e-01,-1.055938689317487481e-02
5.107037403876433374e-02,1.039962427227310304e-01,-1.218801728138254117e-02
5.129261630128856275e-02,1.021695996194430245e-01,-5.360357880978899696e-03
5.403837886246503491e-02,1.049734909808724692e-01,-8.063624399300415788e-03
4.579646020087350944e-02,1.006977545431214927e-01,-6.191042079046749948e-03
5.282549197326459611e-02,9.958637229435778060e-02,-1.039912689668680452e-02
4.948834980017306068e-02,9.430259565008812517e-02,-1.256569362634893036e-02
4.681021981699488160e-02,9.949271637242292077e-02,-4.705637569750419948e-03
4.840763451026722231e-02,1.007546732890090557e-01,-7.091562447327161463e-03
5.325197038245660375e-02,9.445296077290457615e-02,-5.778211985853154431e-03
4.467547098929331578e-02,9.441638821855685704e-02,-5.553606819279788970e-03
4.492478789077602314e-02,9.296221857034003833e-02,-6.436419660274987978e-03
4.842488289370472376e-02,9.755580294739214786e-02,-4.655014976861771882e-03
4.540487028717717088e-02,9.261116114132494914e-02,-8.755885548558673889e-03
4.792334431192243199e-02,9.277205051085486709e-02,-4.337426743441397982e-03
4.662948288488437398e-02,9.610353487618249202e-02,-1.340797037416236771e-02
4.342502355045753382e-02,9.080747998677889121e-02,-7.562456468271343962e-03
4.720978739664324214e-02,9.446770103684855313e-02,-7.230484845704096726e-03
5.046646779792036963e-02,9.732233043943587514e-02,-6.998517093409231844e-03
4.695613281734874189e-02,9.592405122071083479e-02,-6.951895148085013472e-03
4.331839764684342065e-02,9.223818074847940640e-02,-8.724720446424704540e-03
4.572768755195080748e-02,9.389684368431758243e-02,-8.935263736799224643e-03
4.504878608903368359e-02,8.898480490010490795e-02,-1.167991385705650052e-02
4.572772851749316858e-02,8.959760327929922052e-02,-9.835136191752490153e-03
4.600504935316189481e-02,9.413917525727469315e-02,-1.926567128319778320e-03
3.956105776566555543e-02,8.644673702985380959e-02,-8.077161006257585832e-03
4.205412008779527144e-02,8.782646372208351149e-02,-7.277726913055012660e-03
4.168806900046191644e-02,8.957602818057493199e-02,-9.678090447362416512e-03
4.542922655872888571e-02,9.018225387717411501e-02,-7.009304534489491784e-03
4.031809035557574333e-02,8.306741968578558455e-02,-6.549249330986455300e-03
4.386755440765749414e-02,8.919445647498742968e-02,-9.816039774035235574e-03
4.330328906154256446e-02,8.767678807102512184e-02,-4.635310940275043715e-03
3.969303696255242764e-02,9.048368156210337410e-02,-5.628898568382109842e-03
4.056979770576656791e-02,8.279414689797102989e-02,-7.434904072167794302e-03
3.969165010319002096e-02,8.484420614825374796e-02,-1.089491163793219683e-02
4.476827160986094484e-02,8.841393094556422583e-02,-6.299255983824564482e-03
4.191464462823289022e-02,8.374948122502487435e-02,-3.896034744884204707e-03
4.093489913256139617e-02,8.151094678153569806e-02,-9.655535841604270461e-03
4.718750612958103052e-02,8.793708905452658764e-02,-3.750220308219815411e-03
4.113115386696368503e-02,8.612462580719723593e-02,-7.100076892089999397e-03
3.842016871339323097e-02,8.238363266562585829e-02,-7.441176202231589848e-03
4.298939896745677253e-02,8.505161788067225337e-02,-7.456429123098542305e-03
-2.944548494640881753e-01,3.565851535258285354e-01,2.517172309860136181e-01
-6.297378480299269388e-01,6.048742892283073269e-01,5.169081449596432121e-01
-9.631184808040552658e-01,8.246961339937932678e-01,7.798817196375182892e-01
-1.300760140040164492e+00,1.037757097066549061e+00,1.043329708598507155e+00
-1.638529553714589193e+00,1.218744724425691706e+00,1.309577165939135535e+00
-1.970019120621847142e+00,1.384393787874084847e+00,1.579570230534214526e+00
-2.314154880449085905e+00,1.540791590751426021e+00,1.851032595552695836e+00
-2.642714139020292397e+00,1.684762881857327921e+00,2.122462107008451504e+00
-2.981422685029565312e+00,1.809254978600706387e+00,2.395334712575871272e+00
-3.323238119332200480e+00,1.923003414910775088e+00,2.674863668442726272e+00
-3.661871206639273790e+00,2.026782827260146469e+00,2.945036736393379595e+00
-3.987569946536995147e+00,2.124842713229624369e+00,3.222048812764921166e+00
-4.330920445739652180e+00,2.209286773459717690e+00,3.499991677520802202e+00
-4.669931960770154156e+00,2.287259990070775295e+00,3.776325243024076350e+00
-5.007899463823286546e+00,2.362732927170476671e+00,4.052209030873579643e+00
-5.340813635022879424e+00,2.422470292849776552e+00,4.333090166497092000e+00
-5.661353377384282126e+00,2.481494288407595672e+00,4.606274677183887611e+00
-5.959351796961157355e+00,2.537687121731408979e+00,4.892031138724258987e+00
-6.233385388826211404e+00,2.585417843075544564e+00,5.172083406043399556e+00
-6.469611439835383671e+00,2.624028934866706742e+00,5.454695357945622547e+00
-6.697347359132199252e+00,2.667047882040416873e+00,5.738413578295981310e+00
-6.900836607059277483e+00,2.704077908290364984e+00,6.018884632268926893e+00
-7.089766873757415766e+00,2.730048211143946801e+00,6.301289569036142346e+00
-7.252259078507428569e+00,2.753722382838005522e+00,6.585349139009844421e+00
-7.411810204112894596e+00,2.773938833176459173e+00,6.863925908546465671e+00
-7.551361140217591306e+00,2.803316184965082503e+00,7.150037512077727975e+00
-7.681144460645613847e+00,2.816214525872085428e+00,7.434700601393121389e+00
-7.801323857224041092e+00,2.836514779777458806e+00,7.717554137338584752e+00
-7.915104851555414101e+00,2.850474326955014792e+00,8.003300632571075823e+00
-8.015785922372836936e+00,2.857050516238265114e+00,8.285901150708154361e+00
-8.111153073707695782e+00,2.867847562942380968e+00,8.569652826631585896e+00
-8.194022744763485022e+00,2.873088445092480292e+00,8.854161193717729361e+00
-8.281083659699655541e+00,2.882873501349348722e+00,9.137260062702935670e+00
-8.354206145817514084e+00,2.879905352924566841e+00,9.416941512049406882e+00
-8.418755086788433317e+00,2.888256830083063775e+00,9.706130991730052671e+00
-8.491473888324474473e+00,2.886753201823414550e+00,9.989206273769966060e+00
-8.550523696295579512e+00,2.886630469209290784e+00,1.027251438730324296e+01
-8.606471783552636978e+00,2.882117349886438529e+00,1.055439283481656076e+01
-8.664173569482288784e+00,2.880065673619379485e+00,1.083993335954800585e+01
-8.713377312579504874e+00,2.875311141986873320e+00,1.112664032780795154e+01
-8.762194034838767465e+00,2.874465346744047078e+00,1.140699542710676972e+01
-8.812989120916741470e+00,2.863605872235874372e+00,1.168952660914819219e+01
-8.853763433760871493e+00,2.860392353100714491e+00,1.197487485824868791e+01
-8.899021808049655036e+00,2.849912234465216354e+00,1.226283191430388086e+01
-8.942695151921794761e+00,2.837775598587665815e+00,1.254288750527379648e+01
-8.982816050459595303e+00,2.834311860144903772e+00,1.282613687543418557e+01
-9.022217139623283089e+00,2.816440857074210324e+00,1.311190544827024063e+01
-9.058995170227058580e+00,2.812759206597881256e+00,1.339666704461308555e+01
-9.093705985524593416e+00,2.793375812867115116e+00,1.367823239006705371e+01
-9.128233779881835375e+00,2.784651895411900835e+00,1.396859820051686896e+01
-9.165563053902641144e+00,2.772305294353409000e+00,1.424521875368044910e+01
-9.203773746618510998e+00,2.757873602329695473e+00,1.453290143685069147e+01
-9.236450096335168780e+00,2.741540410609601075e+00,1.481350182184044151e+01
-9.266400481984115700e+00,2.728103166821425063e+00,1.509853937977184302e+01
-9.301871361771784308e+00,2.712932545607901424e+00,1.538139985216526107e+01
-9.336583814818814275e+00,2.691056617473878365e+00,1.566087993609653317e+01
-9.370628834945799568e+00,2.678302376921807948e+00,1.594837229669631107e+01
-9.396992418463891994e+00,2.651373557861060881e+00,1.623093731786954308e+01
-9.433167243955425718e+00,2.641014338023653263e+00,1.651379390204160913e+01
-9.463221140577859458e+00,2.620603536255937005e+00,1.679520164224076950e+01
-9.489654029781394939e+00,2.599191828005400495e+00,1.706406949084598068e+01
-9.514817232394822355e+00,2.577623219037127988e+00,1.728964112855371837e+01
-9.529950586972635307e+00,2.552927367319382856e+00,1.749415557685773948e+01
-9.541140931112948920e+00,2.529179617849122153e+00,1.766182918949296266e+01
-9.540633109906103471e+00,2.505796396001858106e+00,1.780926353204252877e+01
-9.546975329353868389e+00,2.480174505206878877e+00,1.792984931200019005e+01
-9.540810183661754706e+00,2.449677098468383107e+00,1.802415004339935578e+01
-9.538863750184445323e+00,2.425628088236911228e+00,1.810742307125874717e+01
-9.527130289592308898e+00,2.401942408596643208e+00,1.817514009262448127e+01
-9.514631660121910528e+00,2.368797010491977328e+00,1.822908834142630141e+01
-9.493664308247696582e+00,2.344811576601089964e+00,1.826105043266790418e+01
-9.470235002034199212e+00,2.315739540647922645e+00,1.827685222266621778e+01
-9.453594709088376291e+00,2.285099585895717933e+00,1.829222987914074849e+01
-9.435646261966065040e+00,2.257204605908470274e+00,1.829226303910206752e+01
-9.402518616420232789e+00,2.227749676016799629e+00,1.828239662347590766e+01
-9.380548474604188058e+00,2.199741707337269148e+00,1.826925098405341075e+01
-9.350276438448746674e+00,2.168463461906933176e+00,1.825114018833311746e+01
-9.324206471777751304e+00,2.139350798645820895e+00,1.821401120640155824e+01
-9.289084620106654810e+00,2.117899322387059247e+00,1.817548986371911823e+01
-9.260278283958587764e+00,2.082827800775601812e+00,1.813556938597535861e+01
-9.226897249166121640e+00,2.059030128817715521e+00,1.808789538208637637e+01
-9.193769879676912282e+00,2.031128851586890605e+00,1.804005522887378277e+01
-9.157765725811302104e+00,1.998955014263393837e+00,1.797993779324804109e+01
-9.127632657188673448e+00,1.975698969544890105e+00,1.792786518920073036e+01
-9.087743430229654251e+00,1.951779549335560304e+00,1.786177283636194701e+01
-9.056674482834994322e+00,1.921098347097945025e+00,1.779472188817386424e+01
-9.018284355528304985e+00,1.896437428328268116e+00,1.773219087393028204e+01
-8.976151944287574125e+00,1.868224903510795176e+00,1.766616029639121876e+01
-8.943370130231135917e+00,1.837019893476625976e+00,1.759262450559279145e+01
-8.908631237511736245e+00,1.817659653555604882e+00,1.751873210374834144e+01
-8.866574519912997943e+00,1.790759230712868355e+00,1.744474977155602247e+01
-8.829855371614753423e+00,1.764160988558629350e+00,1.737154553834588810e+01
-8.790635780449747472e+00,1.739719345533742967e+00,1.729263364961708405e+01
-8.755844167429916780e+00,1.712782684523169729e+00,1.721571582607653284e+01
-8.716278493348118772e+00,1.692434049530356255e+00,1.714088323581486151e+01
-8.675283174699101707e+00,1.668270601016522914e+00,1.705766057329995533e+01
-8.638544752599127463e+00,1.637737488594539492e+00,1.698239690354020226e+01
-8.598050213546429177e+00,1.619073955693009603e+00,1.689916973788128729e+01
-8.563419214532157042e+00,1.594316574915555007e+00,1.682015671747049979e+01
-8.527789752228233766e+00,1.572997464967923031e+00,1.673899543033644122e+01
-8.489892858216656180e+00,1.549396880489193329e+00,1.666167291176604337e+01
-8.451368096115976059e+00,1.522122510886667390e+00,1.657543096425600027e+01
-8.406907492218612887e+00,1.503834390936106047e+00,1.649334483027323017e+01
-8.370059690498576899e+00,1.479539990362747304e+00,1.641155832016038119e+01
-8.331943695253329452e+00,1.461347482150932020e+00,1.633724237084869912e+01
-8.296531736996943351e+00,1.439045796489416995e+00,1.625209965517466415e+01
-8.256070975304707460e+00,1.417342953281626183e+00,1.616824457575842189e+01
-8.218734339866907490e+00,1.397945784288871174e+00,1.608744551095064068e+01
-8.181705642589554017e+00,1.373178374292714166e+00,1.600596452253531865e+01
-8.141549278315515892e+00,1.352655877909110460e+00,1.592281137918300793e+01
-8.104138772182134076e+00,1.338734882360643752e+00,1.583891665553088757e+01
-8.066118554020709652e+00,1.311750289067633357e+00,1.576128268773515373e+01
-8.031403296836764127e+00,1.292939713708077587e+00,1.568239084320899401e+01
-7.988453553360955084e+00,1.276785428702371439e+00,1.560377872941893429e+01
-7.954068782281326300e+00,1.251183705940134727e+00,1.551684330459674754e+01
-7.915527988109411162e+00,1.238033807300442657e+00,1.544403917465004028e+01
-7.882431616340026537e+00,1.217480266089937757e+00,1.536233404120199353e+01
-7.842708304493995364e+00,1.195225972641222656e+00,1.528166408618826999e+01
-7.809139246318602012e+00,1.175591718156207666e+00,1.520443741478514887e+01
-7.770128229685163035e+00,1.162204733436932091e+00,1.512739985734958381e+01
-7.733170139503182661e+00,1.142781858342347245e+00,1.504948486297146459e+01
-7.696756010953062166e+00,1.125147183049049593e+00,1.497170652819543868e+01
-7.662545217609602943e+00,1.105380540718591709e+00,1.489012784680793189e+01
-7.625996746284877226e+00,1.093442454037168110e+00,1.481232118563901423e+01
-7.586171741138928226e+00,1.079522956172571657e+00,1.474008800127410268e+01
-7.553986437723178682e+00,1.058858884789660060e+00,1.465710164229433232e+01
-7.517988151402596131e+00,1.037703654539470222e+00,1.458107994306642574e+01
-7.483809786143641674e+00,1.022062557337663602e+00,1.450606035708303665e+01
-7.444350217298901562e+00,1.005754814809235009e+00,1.442561795261967106e+01
-7.410598534262566872e+00,9.897700551699124549e-01,1.435895038881873731e+01
-7.374921896737119731e+00,9.759147824065073085e-01,1.427981853209023200e+01
-7.338783115374603483e+00,9.594429040134159203e-01,1.420359654503250901e+01
-7.301615292157997317e+00,9.471404081077311465e-01,1.412793703017187674e+01
-7.267385852902831012e+00,9.300626357375568753e-01,1.405928210459128458e+01
-7.237291496852957806e+00,9.129516380183789748e-01,1.398418584652783636e+01
-7.199407626767196255e+00,9.042464294560791371e-01,1.391053949781573529e+01
-7.170187354405287650e+00,8.847425082840615351e-01,1.383816857291131264e+01
-7.132086171149102150e+00,8.694689056197141275e-01,1.376407431806874904e+01
-7.095987426282939659e+00,8.546003439896282527e-01,1.369173046671199145e+01
-7.061575313509936613e+00,8.409268919239414330e-01,1.362120381414114867e+01
-7.029394165316730891e+00,8.289774906443287961e-01,1.354902393808235139e+01
-6.999654027199607498e+00,8.140941393834973949e-01,1.347423315478927641e+01
-6.960807855894118212e+00,8.031742784232622778e-01,1.340842984610058863e+01
-6.926182493948496166e+00,7.858808239852362876e-01,1.333386523201213336e+01
-6.897704614391340527e+00,7.700628360070035372e-01,1.326524300104732390e+01
-6.862193472553941298e+00,7.630560365071734630e-01,1.319919008007179073e+01
-6.831088617986648792e+00,7.456271831319570831e-01,1.312681080837176673e+01
-6.796979916780784947e+00,7.391693306452213896e-01,1.305891148048440620e+01
-6.757953278568086475e+00,7.201958822982100772e-01,1.299111101327905082e+01
-6.733289849282110495e+00,7.135967869853578893e-01,1.291952892550507137e+01
-6.694562978907915074e+00,6.983460539813477475e-01,1.284905739081554721e+01
-6.668186996627089691e+00,6.843946011189780965e-01,1.278312160586095025e+01
-6.631555865943204786e+00,6.713525063583140051e-01,1.271792937675079749e+01
-6.604815756683245276e+00,6.543884930477008588e-01,1.265030851938004197e+01
-6.568467794449452057e+00,6.505260030341862842e-01,1.258387741434641605e+01
-6.539326814731739823e+00,6.387550649957216553e-01,1.252114522243936889e+01
-6.503886164716482732e+00,6.247577326898039463e-01,1.245196149032679322e+01
-6.477133044400149586e+00,6.189252172600732127e-01,1.238463512618611162e+01
-6.449249257662390100e+00,6.032010405984481460e-01,1.232278214618965251e+01
-6.414194577232498418e+00,5.916466597435442454e-01,1.225806411021181042e+01
-6.380944651909855381e+00,5.788475771432081141e-01,1.219260658825006871e+01
-6.350712241700187555e+00,5.700977477571714802e-01,1.212414722888935970e+01
-6.322017664478241983e+00,5.587505215554884330e-01,1.206212527527958223e+01
-6.288968078923871552e+00,5.487707130342101003e-01,1.200338571055775461e+01
-6.262039390385473858e+00,5.424478879525513886e-01,1.193879190250503086e+01
-6.230930830174826518e+00,5.330244521947791192e-01,1.187744504367379506e+01
-6.198314755327356096e+00,5.145295536801557379e-01,1.180735392236504211e+01
-6.167009075351958636e+00,5.109786951020073298e-01,1.175238917093045643e+01
-6.138624372176455068e+00,4.952626762572869823e-01,1.168225653008903642e+01
-6.106267354477457943e+00,4.893989702498659500e-01,1.162459590511563867e+01
-6.082416438053228624e+00,4.797884923586023809e-01,1.156396142572749319e+01
-6.051347531182844186e+00,4.688653673459636795e-01,1.150636956441408998e+01
-6.018424396856064895e+00,4.593106049333172125e-01,1.144082444340818938e+01
-5.990443261023305155e+00,4.506448015722647749e-01,1.138455685571791243e+01
-5.958144764088687317e+00,4.437714684742706250e-01,1.132379751108864241e+01
-5.933018599520663905e+00,4.329195578779995723e-01,1.126078179588250450e+01
-5.904950279349523434e+00,4.258593243926164229e-01,1.120348867714606378e+01
-5.872577656181446670e+00,4.135364932214199429e-01,1.114330789048500669e+01
-5.845783041218594711e+00,4.091420915992677876e-01,1.108465273081892732e+01
-5.817917577410687713e+00,4.006461027273312547e-01,1.102198171005988847e+01
-5.789697735428085856e+00,3.925096178612697551e-01,1.097159883400268399e+01
-5.760834631042046183e+00,3.836935375308725416e-01,1.091555857681634301e+01
-5.734954048821047756e+00,3.760940073782346738e-01,1.085247008011553760e+01
-5.701251378858329666e+00,3.652631509742098048e-01,1.079610623438068373e+01
-5.671333133438994700e+00,3.546059171168765012e-01,1.074377315871547900e+01
-5.647460715340216986e+00,3.495026518363009149e-01,1.067881968367801271e+01
-5.625832394173674089e+00,3.390493979114193590e-01,1.062588292189898453e+01
-5.596894896651557261e+00,3.306045048952809817e-01,1.056787622250395309e+01
-5.564686001568179385e+00,3.244288604458187009e-01,1.051217514697090216e+01
-5.540547407643782840e+00,3.241838835164149168e-01,1.046071963358568446e+01
-5.511758430906173345e+00,3.102141914048083260e-01,1.040610656860250138e+01
-5.485092948792743783e+00,3.049811184271776776e-01,1.034723896763853190e+01
-5.457687752486080512e+00,2.986137233005932701e-01,1.029474462275491220e+01
-5.431835360294652304e+00,2.937435789041438761e-01,1.024202541467905725e+01
-5.402276912859645286e+00,2.822873241740695427e-01,1.018636025212738794e+01
-5.373109380801809110e+00,2.748761593953618632e-01,1.013406163841000840e+01
-5.348519545304620593e+00,2.708739774523377664e-01,1.007920799917981292e+01
-5.321224453155496192e+00,2.614680032120393904e-01,1.002797839220256826e+01
-5.303252691433320898e+00,2.540706966345856466e-01,9.972875765837779127e+00
-5.267023670659978229e+00,2.517419710870749117e-01,9.925233037091409471e+00
-5.249951488329836380e+00,2.417628978717142607e-01,9.867714090282277084e+00
-5.223350006669090106e+00,2.388459029245967313e-01,9.816172014223869979e+00
-5.195718806295222869e+00,2.298310128496205140e-01,9.766049970043884088e+00
-5.168061854043171977e+00,2.237580176123702136e-01,9.719070192993029877e+00
-5.144779654427523496e+00,2.194419153082660945e-01,9.660695898605382581e+00
-5.118372335424980157e+00,2.143782777029205056e-01,9.616229874425640034e+00
-5.091923393415446419e+00,2.071424750903282652e-01,9.557475999626321439e+00
-5.071265969110366534e+00,2.019813093165203632e-01,9.506981767162409724e+00
-5.042255089606842766e+00,1.935906192460190578e-01,9.460409498065990519e+00
-5.019426966644252808e+00,1.909447787163514876e-01,9.407178119832808605e+00
-4.992148200326425922e+00,1.860149218909746271e-01,9.362213078987805304e+00
-4.969531025674553071e+00,1.750691168457650382e-01,9.306767712569792295e+00
-4.941822772164966793e+00,1.743334817993172081e-01,9.259780534098489113e+00
-4.921606833098230105e+00,1.689119223083333510e-01,9.215867330559525783e+00
-4.896133878201349710e+00,1.612446054754127778e-01,9.160158886931636602e+00
-4.868259513225771329e+00,1.578548994892998714e-01,9.112511346363879383e+00
-4.845654134234501420e+00,1.553311752251297084e-01,9.063080669706996773e+00
-4.818492184370192888e+00,1.448348567572737278e-01,9.019047976231462371e+00
-4.799709042045336105e+00,1.430055052896866963e-01,8.967623588447303007e+00
-4.773363669417864941e+00,1.385686553776593055e-01,8.925322403271341187e+00
-4.750132594014880638e+00,1.317090401306620639e-01,8.877947924839300953e+00
-4.733501719233731642e+00,1.310165952727421756e-01,8.829253458145803535e+00
-4.699206758543122753e+00,1.222101894743582717e-01,8.785403535717515311e+00
-4.681726083853160247e+00,1.219344941377307479e-01,8.736614666855484046e+00
-4.659475461328648649e+00,1.113658233118335616e-01,8.690636224270834376e+00
-4.636161236840409927e+00,1.089997246598296138e-01,8.642046909577755898e+00
-4.613387541715910700e+00,1.008590722306463433e-01,8.598468792650677983e+00
-4.591900355882120088e+00,1.022086968314520200e-01,8.549914790194156566e+00
-4.568264399158751488e+00,9.580862070163620459e-02,8.507596753146028590e+00
-4.545608235787235607e+00,8.689878872066413018e-02,8.465528520022854053e+00
-4.517780482284058152e+00,9.048679813524589111e-02,8.421221723417005478e+00
-4.499332837463652979e+00,8.707088442924218463e-02,8.372852236555150540e+00
-4.477621613691471936e+00,7.755144925426851743e-02,8.330219564324051973e+00
-4.449902495275174452e+00,7.444626805834060612e-02,8.286281537080556703e+00
-4.434208010218003260e+00,7.306903383383762940e-02,8.238334499517019793e+00
-4.408721914504901918e+00,6.657253985948904940e-02,8.201847511858030515e+00
-4.390487420558243592e+00,6.047799497069038938e-02,8.157657215761696889e+00
-4.361610449096144038e+00,6.108673185365438851e-02,8.108353026738525315e+00
-4.345131879763358462e+00,5.542543389887432531e-02,8.071612238185535304e+00
-4.320419199144355460e+00,5.157900344356355221e-02,8.032556881575233731e+00
-4.300953333640525678e+00,4.810786563496689816e-02,7.983990802993125691e+00
-4.276373114465277681e+00,4.488891580068588016e-02,7.944001424767958675e+00
-4.258634929944711267e+00,4.699421540264716451e-02,7.898055402257824653e+00
-4.237948009242358260e+00,4.186107555259104690e-02,7.857728412394687112e+00
-4.215381619371767918e+00,4.022138052371276862e-02,7.816210890348481044e+00
-4.191844658768065557e+00,3.322022383334839735e-02,7.778632318446505600e+00
-4.172843402353598741e+00,2.994223736524493848e-02,7.736108284843956184e+00
-4.156685390429901261e+00,2.720893492414113921e-02,7.693612004958756856e+00
-4.130252882828672867e+00,2.216453603284042340e-02,7.653099415227020863e+00
-4.111150589078174988e+00,1.837078184895712951e-02,7.613352495506838125e+00
-4.090501232867733705e+00,1.688434556854327348e-02,7.579819275328116390e+00
-4.068954202425742572e+00,1.029956963868701274e-02,7.531829369207400759e+00
-4.050324776079790468e+00,1.043167582472677261e-02,7.491915241574743867e+00
-4.031237124215225620e+00,7.192800888236459272e-03,7.455479999775115552e+00
-4.008653033927148890e+00,7.482715671364119706e-03,7.413365540165115952e+00
-3.990337475353379570e+00,1.708502728149942666e-03,7.375895180495667169e+00
-3.970614920771796008e+00,-3.670750511441727478e-03,7.336667915111037885e+00
-3.948961448147477515e+00,-1.440708713983148391e-03,7.300769485571763084e+00
-3.930902540271282941e+00,-5.573177033119911666e-03,7.259058018666944001e+00
-3.905878887298860569e+00,-1.252110615028955050e-02,7.220308285599863041e+00
-3.895945751191632223e+00,-9.093538409199819830e-03,7.185276530009443441e+00
-3.867579034701834839e+00,-1.517275326496003371e-02,7.145359092261434064e+00
-3.853006432772689838e+00,-1.772535853877646797e-02,7.107780242109347668e+00
-3.830096786432790612e+00,-2.350022603153551284e-02,7.067834086818363559e+00
-3.811966598538578221e+00,-2.513925877039253909e-02,7.029616668592741036e+00
-3.793154612005118498e+00,-2.798407557970481255e-02,6.994584513822624139e+00
-3.772967292990614840e+00,-3.122977266600195090e-02,6.956289308649248326e+00
-3.758404975165274386e+00,-3.158553560229292179e-02,6.916429958970685021e+00
-3.739768733646643195e+00,-3.236587945325232474e-02,6.881170169683082705e+00
-3.716468199080597667e+00,-3.562510876791560172e-02,6.849234593059304821e+00
-3.702997333660525747e+00,-3.582843813774851116e-02,6.817633577214013307e+00
-3.681516480868114005e+00,-3.901460255620742279e-02,6.777747115703611769e+00
-3.662067822381497084e+00,-4.355189203486408561e-02,6.744946625882443314e+00
-3.640547124683002789e+00,-4.460878573477512071e-02,6.705876959058365117e+00
