accel_x (m/s^2),accel_y (m/s^2),accel_z (m/s^2)
-1.005677150578426549e+00,4.834288586642587759e-03,-9.800451014982551001e+00
-1.894441941448348654e+00,-8.542042976261771852e-04,-9.790035255016610094e+00
-2.707503082881058010e+00,6.231949848363360113e-03,-9.796375628946954350e+00
-3.437876603385446650e+00,-2.002314546575721145e-03,-9.804211426373868221e+00
-4.094846829319276793e+00,2.144769123452216261e-03,-9.776755350457671412e+00
-4.693040265280492562e+00,4.241854881596899413e-03,-9.790276593511777037e+00
-5.209355289700457803e+00,1.132415506762467390e-02,-9.793721115327322480e+00
-5.689400412272297203e+00,4.174488059243227148e-03,-9.813952302671708594e+00
-6.128206670594853023e+00,-6.200497888071703108e-04,-9.797569383667294574e+00
-6.507138602308998543e+00,-2.410223953274288466e-03,-9.787542678651263373e+00
-6.853952447071972820e+00,3.240405880828847382e-03,-9.787340504041114997e+00
-7.180074861563413791e+00,-7.111403365256376875e-03,-9.807316459772618344e+00
-7.455678957827063691e+00,-1.176668601411697641e-03,-9.798714470973445501e+00
-7.710736831561741944e+00,-4.232841843550271509e-03,-9.802206034237476828e+00
-7.944323693752730620e+00,8.487371291040663205e-04,-9.791917338129403348e+00
-8.151560603149208717e+00,-5.617457234223697041e-03,-9.796331453474710571e+00
-8.340667660250963067e+00,1.972375624292819866e-03,-9.805590919973342423e+00
-8.489263415278077929e+00,-1.034753778115139224e-02,-9.786883958486573221e+00
-8.651412829721854436e+00,-2.791308670889864328e-04,-9.787192225246913679e+00
-8.780300511857884516e+00,7.955720324733905457e-04,-9.786166093445849867e+00
-8.908052437011749092e+00,-2.284771262740384681e-03,-9.784177905803428388e+00
-9.020463194361923343e+00,-5.520229677639949123e-04,-9.794855904138829672e+00
-9.114075038296515885e+00,-2.037523689018444582e-03,-9.800269170773720617e+00
-9.203892957176082135e+00,-2.043365493282990521e-03,-9.792248568313786095e+00
-9.286026873579487528e+00,-4.144582267997613638e-03,-9.794841413324435919e+00
-9.356154542077254277e+00,-1.586037133253351055e-03,-9.783811114236371509e+00
-9.418385243308760479e+00,3.677727623292329200e-03,-9.803076720689254842e+00
-9.464753341627645256e+00,-6.252063041477653538e-04,-9.791756121861078910e+00
-9.525084862434949784e+00,-5.137003259136197972e-03,-9.784794181592101125e+00
-9.570029212698770493e+00,1.665108991628148514e-03,-9.793802054248684996e+00
-9.619557135606301657e+00,-2.139879360093030394e-03,-9.785399771119530854e+00
-9.653619615950246313e+00,-2.722816818603163418e-03,-9.795980728365019985e+00
-9.681180658279769702e+00,8.415938021628601232e-03,-9.794951837801285421e+00
-9.726629359565198030e+00,6.680134743954134306e-03,-9.799968251106120576e+00
-9.746753343325233132e+00,1.399157732992856564e-03,-9.804369142957741090e+00
-9.770905781156532299e+00,2.016472499519852621e-03,-9.785196861480583763e+00
-9.797473198416094320e+00,7.376938995832297251e-03,-9.794278006842503714e+00
-9.814254243528932165e+00,3.759096528454747375e-03,-9.803083587820147216e+00
-9.830370745093395257e+00,3.434299653266986111e-03,-9.809780189570361131e+00
-9.855582110261915219e+00,6.815277447959910279e-03,-9.796682319887809243e+00
-9.863893617721943841e+00,1.421931062889735930e-03,-9.797451419219473934e+00
-9.873983384698886923e+00,2.201902282169740637e-03,-9.792653394624108998e+00
-9.890090759046504587e+00,5.127891247338998114e-03,-9.804775908557143538e+00
-9.901009037942371194e+00,7.191239359227827484e-04,-9.809369199478870982e+00
-9.913571899028848833e+00,-2.963166351510465417e-03,-9.804310713610936645e+00
-9.916741987430475191e+00,-1.330023869655046383e-03,-9.795174769487253741e+00
-9.935752556415341274e+00,1.075690679133488488e-02,-9.792393458923532634e+00
-9.945849159870626011e+00,5.651213840174330318e-05,-9.789051183444447801e+00
-9.936038388625640039e+00,-2.526232753976942729e-03,-9.796447907400539279e+00
-9.941724171663041787e+00,-1.165043253094913411e-02,-9.807795494429226935e+00
-9.950312247761671003e+00,-5.791994174841624430e-04,-9.793164572399357226e+00
-9.957280891536710143e+00,-1.703793251062194359e-03,-9.788329511899137358e+00
-9.963128371932450378e+00,4.426828246478222654e-04,-9.809573410369319291e+00
-9.968746264486821218e+00,-5.505918976265728251e-03,-9.795975698693849765e+00
-9.967482410238755364e+00,-4.230054255883838876e-03,-9.786613489622036255e+00
-9.974698731827762899e+00,-4.023843611558116685e-03,-9.785108878340409433e+00
-9.972429211586934628e+00,4.232825115735891312e-03,-9.788531849565794474e+00
-9.985604741589163780e+00,4.475457596840919962e-03,-9.788886364580484667e+00
-9.975030063953687076e+00,5.368303477433776158e-03,-9.805396449438184447e+00
-9.979829810085421471e+00,9.814976021841935808e-03,-9.796473282543221472e+00
-9.989818493744850869e+00,-1.236436027756851984e-03,-9.794638243500576991e+00
-9.984334494125461035e+00,-8.761777027225536169e-03,-9.798253318006279855e+00
-9.986850369743921263e+00,1.306743122777437706e-03,-9.786988767697375025e+00
-1.000010980604616861e+01,5.012097991053516242e-03,-9.808847293020237501e+00
-9.994197192495789750e+00,4.302661622260043998e-03,-9.786788709804030262e+00
-9.990781413655438925e+00,-7.361520047052321110e-03,-9.795303855098312695e+00
-9.990568868797215174e+00,5.128440411771291278e-03,-9.784848805387460047e+00
-9.991055554737201305e+00,6.183034976687999153e-03,-9.791733318851584045e+00
-9.990798951390848615e+00,-3.193893358638819763e-03,-9.792081539741703367e+00
-9.987100395620185367e+00,-6.603698480784133719e-03,-9.805990833637405757e+00
-9.999432692942495038e+00,7.415750634525363275e-03,-9.800463366076581195e+00
-9.999889759248935306e+00,-5.198838346847126438e-03,-9.794525086030748895e+00
-9.990509286234422248e+00,6.811551849415801475e-03,-9.788900353489783157e+00
-1.000643440525004024e+01,-1.134687489133770055e-03,-9.796538423587730193e+00
-1.000112921582811687e+01,4.871694246282304644e-03,-9.785648634047602101e+00
-1.000283362309271773e+01,9.977008921642238973e-03,-9.794338798456283968e+00
-1.000269688820627678e+01,5.858502515092816731e-04,-9.793511843733158528e+00
-9.993689331939892284e+00,2.878813066972939812e-03,-9.800596777996386066e+00
-9.991864728573641941e+00,1.216945030095146693e-02,-9.787990922622254786e+00
-1.000510945618569814e+01,7.196817554415937956e-03,-9.791773365017908404e+00
-9.989848426790642222e+00,5.261492192997408411e-03,-9.800213938876765951e+00
-1.000121514807780088e+01,2.499396203642742075e-03,-9.806950631088030335e+00
-1.000067652488385939e+01,-4.984335153713200482e-03,-9.793958682893157075e+00
-9.993548218652870574e+00,-2.164574359204596461e-04,-9.803984463371609337e+00
-9.997798635918753618e+00,3.698325415484727489e-03,-9.795486495525338455e+00
-9.997105666147669822e+00,-3.367912447666652261e-03,-9.789316397600719810e+00
-9.997279777998183903e+00,4.686979426074872404e-03,-9.788325377805705330e+00
-9.998345357644067732e+00,-8.271236567925681696e-03,-9.799293034620678355e+00
-1.000503597113800325e+01,-4.793157819915027512e-03,-9.808516420368908584e+00
-9.993162978889891690e+00,-1.079170806925527394e-02,-9.794900493383126516e+00
-9.997328620037787772e+00,-3.664098652899597849e-03,-9.796595206743329953e+00
-1.000283491335523500e+01,-3.094659608596733811e-03,-9.786988474226886225e+00
-9.992935484496253906e+00,-2.204572290468439794e-03,-9.806856584630569529e+00
-9.999903157119428343e+00,-4.355851055074672247e-03,-9.788072663922745775e+00
-9.994061659614949633e+00,-2.459809626104566497e-03,-9.799919341487193236e+00
-1.000310190659998710e+01,6.648401158616599853e-03,-9.792822468597465857e+00
-9.995865105498571879e+00,-3.450861436766657075e-03,-9.792352040467855900e+00
-1.000034125894261194e+01,-7.954436431709647690e-03,-9.776396259149425561e+00
-9.996133440287904293e+00,-4.744021597154340908e-03,-9.784682106197449158e+00
-1.000511303804222507e+01,-1.473747481652724510e-03,-9.788353806639694454e+00
-1.000619552133073498e+01,-2.514345561419934708e-03,-9.793821349761511641e+00
-1.000072024928664050e+01,2.697115442714249738e-03,-9.798071107024874493e+00
-1.000743729859727260e+01,-1.256296076615489189e-03,-9.800589548372190762e+00
-1.000115369580990610e+01,-3.219532505596386148e-04,-9.807980229498499014e+00
-1.000364904832211899e+01,-1.477843157862250567e-02,-9.798999937273192629e+00
-1.000560167349959961e+01,-9.058089279914397288e-03,-9.796994703205861299e+00
-1.000086981883939607e+01,-2.880429263442059722e-03,-9.776200003119869919e+00
-1.000227610652093979e+01,-1.549258336355156590e-03,-9.794168632977889644e+00
-9.998773455224824858e+00,2.949633691429386301e-04,-9.776269738238026363e+00
-9.998880135052580442e+00,-2.045733987312037781e-03,-9.796047820840799503e+00
-9.999470736353840650e+00,4.886978638523855256e-04,-9.778046029581402010e+00
-1.000651986589988240e+01,-4.805890288862295248e-04,-9.792894349362519790e+00
-9.999211233658691356e+00,-1.782503943676524462e-03,-9.804878523711316518e+00
-1.000899644086300455e+01,2.467502445304909156e-03,-9.777390572938854163e+00
-9.999793446513589146e+00,-3.378546065537783600e-03,-9.795121055765951823e+00
-1.000742857713785661e+01,3.113383680494752510e-03,-9.794696963027320180e+00
-1.000481294585371117e+01,-1.121678535736332985e-03,-9.794267974945977784e+00
-9.990923720634064864e+00,-5.981694046549348434e-04,-9.808047481306845228e+00
-9.994713022943486180e+00,-1.026087311126239535e-03,-9.800583887840945252e+00
-9.999330659900550700e+00,2.718005411494218374e-03,-9.818699431769731589e+00
-9.993400282983587957e+00,-4.126304587440811182e-03,-9.798778848409956055e+00
-9.998244683099606789e+00,3.707589911426981046e-03,-9.786813552118548643e+00
-9.998280794372035984e+00,-4.340202648594703588e-03,-9.798540410347202467e+00
-9.999124848205873661e+00,-6.175698368883036395e-03,-9.807116362389464825e+00
-1.000842335815639572e+01,-3.393635501356249799e-03,-9.795097154017833319e+00
-9.998879270853418433e+00,1.798660161141669826e-04,-9.783832944063211912e+00
-9.996096549356888517e+00,1.596339081751724969e-03,-9.800951856697718512e+00
-1.000125669837739473e+01,-7.089448633174155832e-04,-9.788606768805950153e+00
-9.995828658277339684e+00,-4.748354354451623204e-03,-9.783645007710925157e+00
-9.997172976383442489e+00,-4.604853108407309936e-03,-9.788280732046457544e+00
-1.000421944600361890e+01,5.734890607776099714e-03,-9.792002035903950130e+00
-1.000084670319568581e+01,4.988990956044553858e-03,-9.796381843755431973e+00
-1.000138453305052266e+01,-1.699575889694937341e-03,-9.803965711835251895e+00
-1.000300610557080283e+01,-1.497635700774765889e-03,-9.786717657315490371e+00
-1.000370656949202441e+01,-1.065977856905992848e-03,-9.794018958459908220e+00
-9.999336132343520589e+00,4.501091795995685631e-03,-9.797605683494309048e+00
-9.993697358129308483e+00,-1.012298031372351999e-03,-9.772502460984517469e+00
-1.000554400089007245e+01,2.501419750565810410e-03,-9.791162324759159929e+00
-9.989611701295102009e+00,8.416066918993643595e-04,-9.785865296178540618e+00
-9.997008363183940816e+00,-7.536339153431980201e-04,-9.788877223458085197e+00
-9.998500432615269773e+00,3.045614624119355896e-03,-9.799535506717823807e+00
-9.998895272357236408e+00,7.306447936330612639e-03,-9.791253935782568973e+00
-1.000746468620097573e+01,-2.916996505729356221e-03,-9.804664009661193447e+00
-1.000227819723829015e+01,3.830301489313854557e-03,-9.797270754473226262e+00
-9.993611122568417215e+00,1.052277032862457664e-03,-9.822970135991221596e+00
-9.997622954498956105e+00,-1.934932594859948077e-03,-9.794773299717583370e+00
-1.000178108237532726e+01,2.426301637362094157e-03,-9.797232305802877406e+00
-9.996615657487501139e+00,-4.603913530733603175e-03,-9.797566216182049814e+00
-9.985433028949392664e+00,-8.706645250880039452e-04,-9.804311559048988656e+00
-1.000738670824905618e+01,-6.935236250380052200e-04,-9.796138867838697806e+00
-9.996753331492749695e+00,-8.362484393552084908e-03,-9.797575342466746662e+00
-1.000182645873126219e+01,-3.836713572179422608e-03,-9.787040779244151167e+00
-1.000571791565919888e+01,1.700666622533702523e-03,-9.791528687031446410e+00
-1.000072587976523586e+01,-1.047660120828802647e-03,-9.806555045902625167e+00
-9.996510924596181624e+00,5.458096551048563939e-04,-9.800577916847480253e+00
-1.000426660615787711e+01,-4.356344769542697093e-04,-9.788195827014487094e+00
-9.993387172053846967e+00,-1.664006308369665081e-03,-9.797599591108316019e+00
-9.987480005350272805e+00,-3.869421099774422723e-03,-9.783409568833224768e+00
-9.998242197463785175e+00,2.626036103785427296e-03,-9.794108520393544737e+00
-1.000212209131811925e+01,6.630450147926098860e-03,-9.787634105578666421e+00
-1.000238844000014105e+01,2.499399467836809895e-03,-9.790974843310623399e+00
-9.998893980540978887e+00,1.910229500684935836e-03,-9.791898816154308349e+00
-1.000451862667257252e+01,-6.051680642201279171e-04,-9.802626189275345681e+00
-1.000261487865306087e+01,1.860163783653262471e-03,-9.778416688723813976e+00
-1.000032969682359685e+01,-7.166597247976269972e-03,-9.801435782400258034e+00
-9.993860994832168387e+00,2.175929927972519631e-03,-9.791860184180620763e+00
-9.989578961374260047e+00,-8.807985657167913566e-04,-9.791861311412885627e+00
-1.000311234751527856e+01,-2.304201961554540497e-03,-9.790811582018971393e+00
-9.996897701414214410e+00,-5.602701219159619134e-03,-9.805485986147202127e+00
-1.000087460950815199e+01,-2.985192584026884373e-03,-9.812475542656724059e+00
-9.997826235464486899e+00,-1.076280898618723041e-03,-9.793868065174681448e+00
-9.991577333751134660e+00,-8.725859455711186541e-03,-9.803301290176996474e+00
-1.000031337875687854e+01,-4.120374146824775860e-03,-9.801893110210363247e+00
-9.997453916866678725e+00,2.393972972630870229e-03,-9.777125986472244179e+00
-1.001425015538850261e+01,3.144447132242617765e-03,-9.788263023893055248e+00
-1.000113846570991072e+01,-7.259723094681201508e-04,-9.797173235171275252e+00
-1.000406865007326829e+01,3.957267867769943132e-03,-9.789627526419280912e+00
-9.996480230137846590e+00,4.438005555435342760e-03,-9.781382281304320969e+00
-1.000176967952985940e+01,-1.739299632127659385e-03,-9.788186076178854833e+00
-1.000177391545153327e+01,-1.982960971521017038e-03,-9.793947706529829489e+00
-9.996476976177429918e+00,-1.512154911977097284e-03,-9.796233329838488046e+00
-1.000176631655911130e+01,-1.259872269941381736e-03,-9.805026652014539934e+00
-9.993733675523817084e+00,3.541689052812933922e-03,-9.811662740992643350e+00
-1.001656928029578886e+01,2.491053538344645355e-03,-9.791754000559102167e+00
-1.000430592114374306e+01,-4.197934782738622569e-03,-9.790683039117995534e+00
-9.997567502794948879e+00,9.254988885416459352e-03,-9.808412296877444092e+00
-1.000633829823308929e+01,-6.389032559185640013e-05,-9.799794612384076231e+00
-1.000998239727620565e+01,-1.606543711998225776e-03,-9.789389251081955123e+00
-1.000285748243375572e+01,-3.311819555219899704e-03,-9.812598544930878575e+00
-1.000116506944863737e+01,3.647745428039430270e-03,-9.806410056042963674e+00
-1.000155066050739627e+01,3.792397946538936943e-03,-9.783942374922494523e+00
-1.000068918743210666e+01,-2.973780170866140334e-03,-9.812425827133784750e+00
-1.000019931703864273e+01,-2.328296263071153067e-03,-9.800915513351821318e+00
-9.994795060706927359e+00,5.079924072660939316e-03,-9.797122114963457307e+00
-9.996339297221217279e+00,1.378643704280807210e-03,-9.783508725568925257e+00
-1.000012437648519281e+01,-1.331052328724055024e-03,-9.784790986563566051e+00
-9.994809191186611486e+00,5.830748896846906599e-04,-9.801363357839708357e+00
-1.000189092913692157e+01,-2.934890093341088226e-03,-9.793571170651819813e+00
-9.991693004206776862e+00,-3.568747752257503403e-03,-9.803271371213558183e+00
-9.998584783823494249e+00,8.651511375738713330e-03,-9.818534989750334674e+00
-1.000722423054155108e+01,-1.837757762579504727e-03,-9.806819256983368760e+00
-1.000139746359274007e+01,-8.952978982721692975e-04,-9.797629933308387606e+00
-1.000102899717674632e+01,1.627764976927790260e-03,-9.806069693358946182e+00
-1.000203136896208989e+01,1.359767192607425458e-03,-9.789719963467359065e+00
-1.000145311192967057e+01,-7.170846762466655602e-03,-9.791082091010480326e+00
-1.000334588271173963e+01,-5.515396235759843606e-03,-9.783004419002029550e+00
-9.997717736766700725e+00,2.040483785306063287e-03,-9.799881458384307464e+00
-9.999360847265698737e+00,-3.607545544718986476e-04,-9.785822463214090661e+00
-1.000655883471432084e+01,-3.269104322162383249e-03,-9.803122747792528457e+00
-9.989091590322166425e+00,6.770078088186468231e-03,-9.797566728140713721e+00
-1.001695239105406188e+01,2.689694248053349848e-03,-9.791282055199010514e+00
-1.000383051995187422e+01,-2.900176246651693397e-03,-9.782462611503730088e+00
-9.999859217742782747e+00,2.783346932090489338e-03,-9.788891820311544478e+00
-1.000746615881143065e+01,-5.292895037024613995e-03,-9.805931259422075996e+00
-1.000139562758940670e+01,-4.870634151465123851e-03,-9.791726569751416420e+00
-9.996011005490769818e+00,-1.164903471769910366e-03,-9.775845654060848489e+00
-1.000350018722203593e+01,6.815865375345181963e-03,-9.784904383915490556e+00
-9.990007502049772725e+00,-3.645339569859369806e-03,-9.796696001222828798e+00
-1.000310096254901993e+01,1.145844690186260332e-04,-9.796610678213035328e+00
-1.000154476152056482e+01,-5.810742191536250219e-03,-9.796268692853168147e+00
-1.000007874865063329e+01,-2.665121934079092074e-04,-9.780733879626797744e+00
-9.998193912586406995e+00,-3.849531616710249494e-03,-9.787850173864384828e+00
-1.000013396899240092e+01,-5.014646842733018993e-03,-9.805654090967969694e+00
-9.994816889042496655e+00,2.422001500432377843e-03,-9.805819944154173129e+00
-1.000336580405813969e+01,-1.249942165742982080e-02,-9.780811457174035439e+00
-9.998606783497937300e+00,3.854677994352696899e-03,-9.807009737211469513e+00
-9.996435047958943443e+00,5.479028980972152837e-03,-9.799374447601369553e+00
-9.996395404596611911e+00,8.340090794369321714e-03,-9.788234916985208756e+00
-9.996992634370158726e+00,-6.059134055857080554e-04,-9.798587165857084003e+00
-9.994078803013216827e+00,-2.057258351368190363e-03,-9.803690853316775033e+00
-9.995076570816765482e+00,-2.442830868195263079e-03,-9.780308422175290062e+00
-9.992466160026504340e+00,-3.884819352146276408e-03,-9.799578348365278302e+00
-1.000204768349903617e+01,6.910857994075303261e-03,-9.802463769082899958e+00
-1.000917894193417013e+01,4.101494388467676229e-03,-9.788653779071468719e+00
-9.998545010090023055e+00,2.194439125103002462e-03,-9.796307076271737913e+00
-1.000189745575365130e+01,1.872666214678647082e-03,-9.794548026796519480e+00
-1.000161889756033062e+01,-6.648109028389568610e-04,-9.784849885399605540e+00
-1.000131242471734616e+01,6.282638246595564392e-03,-9.788250852865184370e+00
-9.992683712123881179e+00,-1.823880951692842317e-03,-9.779893801027247591e+00
-9.997035108512715595e+00,1.043119784809475124e-03,-9.804470632281315545e+00
-1.000539108383001974e+01,3.834989848453707051e-03,-9.790544796207989009e+00
-1.000160694696103292e+01,-8.800833126631955883e-03,-9.795483296191800804e+00
-9.997724713734525537e+00,5.635468520107599598e-03,-9.800199481903216991e+00
-9.983847325290312824e+00,-4.996838592206061832e-05,-9.790593619483118459e+00
-1.000171958469882760e+01,-1.163788202791835556e-02,-9.801168827694780816e+00
-9.997491653541565881e+00,-3.603541858736182893e-03,-9.800710570815384770e+00
-1.000129397015454380e+01,1.900993604650511699e-04,-9.819754602259003207e+00
-1.000249175234271881e+01,1.235294714050497178e-03,-9.786639526772036746e+00
-1.000404199887206502e+01,2.354415709110376648e-03,-9.790527431556249383e+00
-1.000870654050875963e+01,-6.705423266283975191e-03,-9.780372450087860159e+00
-1.000015595381969113e+01,7.986673070299406610e-03,-9.797671709585376476e+00
-9.992309142023982460e+00,6.241028768474427349e-03,-9.788284121569725826e+00
-9.997704888375139376e+00,2.315588282572171759e-03,-9.796479510772522659e+00
-9.993893445266113673e+00,3.842504670251669545e-04,-9.798737848826354124e+00
-9.988162583759720548e+00,1.441405547009272717e-03,-9.792217182858490077e+00
-1.000709808960627178e+01,7.660044840726391684e-03,-9.783221663386971301e+00
-1.000749402988462222e+01,5.747902249691032653e-03,-9.794945078751007728e+00
-9.992209270059069226e+00,2.380724833997969504e-03,-9.798534079695155441e+00
-1.000835925209706190e+01,3.292743951392797762e-03,-9.793705055720121067e+00
-9.998516525556192747e+00,8.599663293146047813e-03,-9.792623695726394573e+00
-1.000738098312716673e+01,-4.941464477744556168e-03,-9.791347245203324334e+00
-1.000337288166677752e+01,-3.733134417228789644e-03,-9.796665365298398598e+00
-1.000333458693967437e+01,5.112614515992618342e-04,-9.801774479777291660e+00
-1.001023315992523166e+01,3.383788082779762632e-03,-9.786609130591985561e+00
-9.998771702471076495e+00,1.047319980614984077e-04,-9.799793107944269721e+00
-1.000254396576362659e+01,1.998869021031951694e-03,-9.783601309613972674e+00
-9.993416041222781487e+00,5.331539174277729991e-03,-9.780974550450913796e+00
-1.000655263390647143e+01,-7.074914274013779404e-03,-9.797428640642033670e+00
-9.997064013051547349e+00,3.152429005551638137e-03,-9.805343819786950021e+00
-9.996930066381144897e+00,-3.448185438410502658e-03,-9.799639834680283101e+00
-9.999211862594227895e+00,3.272712006433802379e-03,-9.795890394790362166e+00
-9.988528833244879834e+00,6.424289294415419689e-04,-9.802064281990249484e+00
-1.000137910988993006e+01,1.751850316740574849e-04,-9.783706202500610516e+00
-9.999193959718263969e+00,8.323008119820936605e-04,-9.805165651159748919e+00
-9.990639391669024150e+00,-1.175578321871406737e-03,-9.781130251655643093e+00
-9.997467879210478969e+00,-2.410359627738930383e-04,-9.797534692919011690e+00
-1.000160813947540106e+01,3.726930611884914091e-03,-9.791998716183742957e+00
-1.000401588652729323e+01,4.661464205137786677e-03,-9.812477175332427137e+00
-9.992389369585058745e+00,-4.778140759550831250e-03,-9.793456283415052255e+00
-1.000059950992466540e+01,-3.356844899402146396e-03,-9.812393716996556492e+00
-1.001525376291765745e+01,3.163357170142387913e-03,-9.774489084788163140e+00
-9.998433064668835968e+00,9.866887569521319394e-04,-9.777620831090045428e+00
-1.000081033389133722e+01,-6.170055127895053733e-03,-9.796583639761387019e+00
-9.995289106593361339e+00,4.728709980710702962e-03,-9.787634002241510700e+00
-9.997283939494630900e+00,5.045586249901686492e-03,-9.794752132939233746e+00
-9.996090007793872800e+00,4.580756049854683813e-03,-9.789991535625960140e+00
-1.000008251359109934e+01,4.577765605352492224e-03,-9.796982467025683761e+00
-9.994771777179916938e+00,-3.847804993183411622e-03,-9.788412824370595899e+00
-1.000200816396769099e+01,-1.344545490269386445e-03,-9.799279223577027409e+00
-9.995759233932188792e+00,1.769219268058985859e-03,-9.787750501037983497e+00
-9.991567849863372430e+00,1.882747389652466262e-04,-9.783378331331489264e+00
-9.998629027235397260e+00,-4.562961539098644233e-04,-9.792165333685950657e+00
-1.000287586586041932e+01,4.672383343704887906e-03,-9.793774676152729342e+00
-9.999799787928827399e+00,-1.488976418243277613e-03,-9.786929689385564402e+00
-9.993983164791272245e+00,6.473603080223653541e-04,-9.797539230146909972e+00
-1.000735432945417891e+01,-4.386137223168080392e-03,-9.794553206289478453e+00
-9.992989159909370755e+00,-9.039613228107593523e-04,-9.783508684057517613e+00
-1.000045128347946921e+01,-7.997314704899139218e-03,-9.812190849696365902e+00
-9.993187600724333208e+00,-3.557341606169556712e-03,-9.816885587043442385e+00
-9.991725308642379844e+00,-2.306690827686148915e-03,-9.789089045985871707e+00
-9.993960364536262020e+00,1.638143693445423370e-03,-9.773688942248034195e+00
-1.000081471855023274e+01,-2.731754671668182310e-03,-9.782530096260762420e+00
-1.000022334184563100e+01,9.836299214217653769e-03,-9.781996623469190411e+00
-9.998367621000390670e+00,-3.294416957044511013e-03,-9.786634990878068763e+00
-9.992102984744523297e+00,-1.644288093589461094e-03,-9.799333363491399496e+00
-1.000548788987193483e+01,-5.331815575466253808e-03,-9.797879753799410452e+00
-1.000090781713183929e+01,2.697218477638426998e-03,-9.791412581431236717e+00
-1.000526088741934139e+01,-2.874947812517820046e-03,-9.775622826088547157e+00
-1.000101917670934348e+01,-6.799559215499877650e-03,-9.790146938654157083e+00
-1.000353575743822887e+01,-9.213632397913347483e-03,-9.800127351662046848e+00
-1.000357966899822415e+01,-8.195467034514498580e-03,-9.790395659831203190e+00
-9.997297479826679378e+00,8.932107954151884133e-03,-9.791539250829773167e+00
-9.997423723250761896e+00,-1.815708108164317209e-03,-9.813153273291138845e+00
-1.000384917927118522e+01,7.447357359772148857e-04,-9.794914167417655193e+00
-1.000363651735289139e+01,-1.857098685499930860e-03,-9.793118929135674833e+00
-1.000185861997993086e+01,-1.498270908217327630e-03,-9.804520460455519171e+00
-9.994246392958915592e+00,3.609231095469756304e-03,-9.787919713234240149e+00
-1.000245702391010560e+01,3.067822003490525249e-04,-9.797682915844612594e+00
-9.995830366854724147e+00,3.984249943540675424e-04,-9.802782361293155944e+00
-1.000021234651402224e+01,2.320478512105348095e-03,-9.788348029019800833e+00
-9.988987546887972968e+00,-3.123210154031984612e-03,-9.776188322072780323e+00
-9.998327818150075430e+00,1.794579040335879090e-03,-9.780826691879889623e+00
-9.996212934855629229e+00,2.407542395036397186e-03,-9.807160520248805469e+00
-1.000561783030390828e+01,-2.558417530354557910e-03,-9.775904740813384564e+00
-9.994258056901671239e+00,-3.098376891573961268e-03,-9.780134426186361196e+00
-9.998785141465630133e+00,1.257503063189225430e-03,-9.798838486190053487e+00
-1.000348560235463324e+01,7.005399154889971336e-03,-9.785985961066147709e+00
-9.995050170600444872e+00,4.575663620472406740e-03,-9.799561513140666591e+00
-9.992697807865926762e+00,1.482903780930960619e-04,-9.789343686672625111e+00
-1.000251206404174376e+01,-1.634831675220886149e-03,-9.783770440376335031e+00
-9.997363348063464272e+00,9.499816127088701878e-03,-9.804901343489772714e+00
-1.000222726258191663e+01,-2.809299223405191826e-03,-9.782290056388990962e+00
-9.997554138999461770e+00,-4.672458248991948580e-03,-9.798250063936867704e+00
-9.995387379435245023e+00,-7.840282263742652351e-04,-9.775501679788517251e+00
-9.993504104331025317e+00,-3.016306435381223977e-03,-9.789093503040541933e+00
-9.992904133470089434e+00,2.554670756828102780e-04,-9.798779238314290652e+00
-9.998259105989555806e+00,2.451764174341050651e-03,-9.785962437304796424e+00
-1.000365438787387262e+01,-7.674197435328009541e-03,-9.785980165216878746e+00
-1.000095599984918238e+01,-2.693527500260316167e-04,-9.798342787193687897e+00
-9.994117650234276340e+00,-4.966743234093701914e-03,-9.780526563286478847e+00
-1.000527132314218370e+01,-2.863737399108044670e-03,-9.784690642624807921e+00
-9.998284467666898934e+00,2.066360915080243943e-03,-9.775666561645531161e+00
-9.997711163897024633e+00,-6.933259527399906509e-03,-9.793377193239628298e+00
-9.992273032311105752e+00,-3.238025116161891148e-03,-9.801128782042059839e+00
-1.000182775861876650e+01,1.021518913003713683e-02,-9.786953102308842745e+00
-1.000292139423140370e+01,-8.492086442457923851e-03,-9.789278478473507406e+00
-9.996955280121786913e+00,1.933271478586811752e-03,-9.796642511710592416e+00
-1.000118896924350231e+01,-3.620514553058325723e-03,-9.807670570424514622e+00
-1.000326768113962572e+01,4.758942721951691626e-04,-9.814305847234889413e+00
-1.000140101360291389e+01,-9.973724984488039486e-03,-9.790738132030714524e+00
-9.998267238702450044e+00,-5.593329852338672047e-03,-9.791940290560543048e+00
-1.000141700142792622e+01,3.867787376672625083e-03,-9.803745062716838987e+00
-1.000289678694290885e+01,5.524138409973651867e-03,-9.809766387014665412e+00
-9.995400483877867615e+00,3.443657689700969221e-03,-9.791723188715373283e+00
-1.000465319472312409e+01,3.243216185191143824e-03,-9.793309866529916974e+00
-1.000228326291257197e+01,6.195006711914947863e-04,-9.811421569169908707e+00
-9.999464162750079765e+00,-2.853849813678785690e-03,-9.801956069293101592e+00
-1.000295213080157453e+01,2.288361693028060761e-03,-9.781226978988110332e+00
-9.997216295581013767e+00,5.632602546612620192e-03,-9.804522512140369628e+00
-1.000551932847506720e+01,5.623414891046356681e-03,-9.797366684001664439e+00
-9.987518389877427794e+00,-5.103163646979636935e-04,-9.809014725501183918e+00
-1.000311878689629452e+01,1.880336922501054959e-03,-9.791826846364376280e+00
-1.000113698224311243e+01,3.768733042236341833e-03,-9.790503479485080263e+00
-9.986650664029397717e+00,-5.193660755191410391e-03,-9.800741188409903160e+00
-1.000730109971700443e+01,3.857350702428462459e-03,-9.793159275048028078e+00
-9.999538859939963942e+00,-1.174709374026535131e-03,-9.798673184545476644e+00
-9.997906891444355182e+00,2.157111635062456800e-03,-9.794086801743178583e+00
-9.995605721827594436e+00,-1.045613517870181558e-02,-9.794322603785735382e+00
-9.998792213475915958e+00,4.997916493833973531e-03,-9.783756427016724544e+00
-9.999126427033397491e+00,-1.118556317662432100e-03,-9.795740780577265383e+00
-1.000084621928134787e+01,-5.605271933042716218e-03,-9.802887206732643577e+00
-9.995246122225374563e+00,4.149566173810545532e-04,-9.797663185078608450e+00
-1.000062232810831020e+01,1.402615741443895064e-03,-9.792610600490686323e+00
-9.998217727247576292e+00,-9.099554182949774403e-03,-9.791453671160596173e+00
-9.997354420840492750e+00,-8.287081621341799154e-03,-9.797135383777929363e+00
-9.996461123697192974e+00,1.963095182072928119e-03,-9.789452284998244380e+00
-9.996443676164354031e+00,-3.782891950853236891e-03,-9.805713677909450254e+00
-1.000149500484623921e+01,2.760983329341452712e-04,-9.804664249891734684e+00
-9.993857659416470085e+00,-2.882974949620023628e-03,-9.795059342187437679e+00
-1.000595624167989151e+01,4.924114976045141680e-03,-9.786093668589007422e+00
-9.999449530608433889e+00,-6.159933086551848402e-03,-9.787776573538016223e+00
-9.993717586881141202e+00,1.247976261551281968e-02,-9.796279533292288733e+00
-9.999927268987615747e+00,-3.395880824835089545e-03,-9.790468461374180364e+00
-1.000423311435948293e+01,-1.899593575294599703e-03,-9.797096641893368485e+00
-1.000188031536941402e+01,-8.045093933681768741e-03,-9.793314812141190373e+00
-1.000462749159867570e+01,5.317110597462973518e-04,-9.810396080908338590e+00
-1.000898667385196283e+01,2.013191589342047498e-03,-9.803140486422677213e+00
-1.000180206318443688e+01,2.570068308555848520e-04,-9.793860034720941243e+00
-9.999619029215319088e+00,4.858963550240359350e-03,-9.787198458761423581e+00
-1.000005514248564786e+01,1.496992533555313587e-03,-9.798233159393713976e+00
-9.995694038073864363e+00,-3.337868438122790563e-03,-9.792857494602108304e+00
-9.998105355579459896e+00,5.921843011320571636e-03,-9.790175528283866058e+00
-1.000609831904321823e+01,-5.891199943639255018e-03,-9.807802396750860296e+00
-1.000411584862997394e+01,9.226338002995564461e-03,-9.799034461821866770e+00
-1.000553476919354523e+01,1.524239463596958931e-03,-9.788117140873506372e+00
-9.998598029045089319e+00,-2.204390736465934759e-03,-9.801681082300417458e+00
-9.998234944799447632e+00,-1.108998952554161562e-03,-9.790945744325073363e+00
-1.000403302206702882e+01,-3.921794201180033718e-03,-9.796248823622779156e+00
-9.997919155592324358e+00,3.754857392613608191e-03,-9.802617272127735149e+00
-9.995245450749612459e+00,-6.736155213036785876e-03,-9.785567197165605080e+00
-1.000043658188573659e+01,-3.576642872741795168e-03,-9.794759184014807829e+00
-9.994630822912695223e+00,-4.960107147537702599e-03,-9.804791492444646650e+00
-1.000516593210871719e+01,4.411535305479224664e-03,-9.814101042498641903e+00
-9.998862341721340030e+00,-2.257729785324815146e-03,-9.787141481082450412e+00
-1.000872816470775639e+01,-8.330600135112316805e-04,-9.811874915346113113e+00
-1.001101102156053990e+01,3.608625644140002475e-03,-9.794379546801339487e+00
-1.000127665522271414e+01,4.635661455742215139e-04,-9.801895918252277795e+00
-9.992035409051485573e+00,-4.101350544865497473e-03,-9.792344758379964986e+00
-1.000876567668050043e+01,-2.948583780136826947e-04,-9.784641737995993793e+00
-9.991204090827382700e+00,8.182472775904390747e-03,-9.782132507168794788e+00
-1.000255805858989078e+01,5.472262475956812464e-03,-9.785344699075714914e+00
-9.993376754933478878e+00,-9.276194663775870833e-03,-9.793330776166996543e+00
-1.000103910215740477e+01,-1.185753531839886478e-03,-9.797716742532868395e+00
-9.997963270044524009e+00,-5.464373152717375221e-04,-9.794974341101147175e+00
-9.994999799885713188e+00,-3.605451826550383227e-03,-9.787606053068113710e+00
-9.996801421486022576e+00,-7.561062660391387313e-04,-9.778449467911455528e+00
-9.993767509007934535e+00,-2.743959505034386948e-03,-9.801774355830769281e+00
-1.000134570986376481e+01,3.801303665071780434e-03,-9.797536118757253831e+00
-1.000363305403258884e+01,-3.879277345970268912e-03,-9.801256717229273718e+00
-9.995126962222013134e+00,-1.968137448517563379e-03,-9.802988636187297544e+00
-1.001470976002896407e+01,-1.591631175451467409e-03,-9.800800232637350007e+00
-9.998080272644145339e+00,5.645451174605603528e-03,-9.783335934516184551e+00
-1.000778627566316459e+01,-5.714094741613608272e-04,-9.779280248900738215e+00
-1.000732851581306981e+01,-3.445241631066550507e-03,-9.798038812301683720e+00
-9.994228509974318442e+00,-4.898749325604934493e-03,-9.781336549521865820e+00
-9.994463680178405696e+00,-9.321770825278925116e-03,-9.800176319757680332e+00
-9.995917975514668541e+00,1.205457302807955199e-03,-9.796795772213714670e+00
-1.000052832477134679e+01,5.425306519174264742e-03,-9.797127006889279954e+00
-1.000223913176319179e+01,-4.430477340142196033e-03,-9.809567970249700508e+00
-1.000309902349545865e+01,-4.154179204945804282e-03,-9.784871564251805154e+00
-1.000224960971336863e+01,1.002033784486171947e-02,-9.809445944183071475e+00
-1.000357791863687673e+01,7.564714375007771524e-03,-9.796406798220903767e+00
-9.999795264201111422e+00,-5.591066909677928909e-03,-9.796239020463499259e+00
-1.000723391955966868e+01,3.207367596919979622e-03,-9.808070496414233119e+00
-1.001125200490513834e+01,5.608217352235151830e-04,-9.790829233238476093e+00
-1.000561023923362036e+01,-4.471842706688527319e-03,-9.796870043498348224e+00
-9.998464543956842476e+00,-3.934511282881564763e-04,-9.794756376988377866e+00
-9.999968442965180060e+00,-1.670977824599236255e-04,-9.786731782546237213e+00
-9.998622513614588314e+00,-4.284884933154304784e-03,-9.790425065796970472e+00
-1.000659803858630781e+01,2.808162488294839356e-03,-9.811304711226584985e+00
-1.000118627600719989e+01,1.107341384473714118e-03,-9.808128107875674573e+00
-1.000648482109265736e+01,-1.744869199031568808e-03,-9.791399831964499256e+00
-9.998226550365197696e+00,3.304692847655322369e-03,-9.787402692807896543e+00
-1.000305596718255430e+01,-4.872224218880482835e-03,-9.809307637786460532e+00
-9.997275759841839360e+00,2.350070723653468856e-03,-9.803626137452670974e+00
-9.999231161604337004e+00,3.657193978773570645e-04,-9.798973226549373194e+00
-9.998537097497242954e+00,4.349562273472859335e-03,-9.806075631247553659e+00
-1.000511279611040827e+01,1.095619236118576534e-02,-9.781152709772269915e+00
-1.000062920400953637e+01,6.064023921708207136e-03,-9.779735401885783830e+00
-9.993470598399314397e+00,-2.675758369645866736e-03,-9.806461341796776310e+00
-9.996974861122662759e+00,-5.181997277756086179e-03,-9.777529316562992179e+00
-1.000677732168572831e+01,2.883249368767887809e-03,-9.792453007013515176e+00
-9.997598475698744380e+00,-1.935421741563017476e-03,-9.793423382896119023e+00
-9.993052253587320521e+00,5.856731623855065266e-03,-9.791651287705452233e+00
-1.000124650533867410e+01,7.737278892657632919e-03,-9.786015671779514591e+00
-9.996167944849670306e+00,6.619003507840555455e-04,-9.794110436934866826e+00
-1.000738583448395502e+01,-6.556050004345313938e-04,-9.795852975145354691e+00
-9.991186866911586861e+00,2.094246786851028472e-03,-9.796023058199518019e+00
-9.999891890752191870e+00,5.909872395440888410e-03,-9.789095044019163083e+00
-9.999934373675467114e+00,-1.636171948475389441e-03,-9.795180595919878996e+00
-9.990076463611840651e+00,-2.448143026891468066e-03,-9.797127922629110586e+00
-1.000147820926115649e+01,2.312059114392563987e-03,-9.797535818496699633e+00
-1.000299233334284033e+01,-3.254342695707665434e-03,-9.800783301937718406e+00
-1.000701854315327388e+01,4.741926684244706508e-03,-9.781004911895392340e+00
-1.000040828854503339e+01,-9.858937458409010313e-03,-9.798360023601208724e+00
-1.000694876970441705e+01,-2.874467371243758732e-03,-9.806707845378456412e+00
-1.000347137564983946e+01,8.330179295422537400e-04,-9.805817879346827581e+00
-9.992654000106977463e+00,-2.139180317545592760e-03,-9.796413297066049353e+00
-1.000154240614197931e+01,-2.038150652066989237e-03,-9.795731496577353425e+00
-1.000173672789065904e+01,3.767637940926149825e-03,-9.805346837029926377e+00
-1.000496039982820129e+01,5.360185843077298895e-04,-9.788133872958738380e+00
-9.999907991368770510e+00,8.468471231098720006e-03,-9.792418853379855292e+00
-1.000061607952821063e+01,1.588262299832597126e-03,-9.801465652178581678e+00
-9.997761271947261719e+00,3.647201782321610360e-04,-9.797064052823710512e+00
-9.999096746973979322e+00,-8.842141701262868497e-03,-9.795324082951232469e+00
-9.987444311333661062e+00,2.377357336558838063e-04,-9.785814843769696125e+00
-9.998307493243652644e+00,-2.355031486846252600e-03,-9.802186422390779086e+00
-1.000212362074408645e+01,-1.353065743780929942e-03,-9.795143683165967730e+00
-1.000278922388007175e+01,1.930869761779230179e-03,-9.797856086612224402e+00
-1.000036466270752022e+01,-5.004557349805760936e-04,-9.794819014249736000e+00
-9.997144764181374654e+00,-6.092501115262299871e-03,-9.798456734928118195e+00
-9.994328542009368377e+00,1.408448278905108939e-03,-9.797586991201374218e+00
-9.999986254491675552e+00,-5.180695983744579639e-03,-9.806176979690373940e+00
-1.000207282704210421e+01,2.623185264902299415e-03,-9.781893070518160371e+00
-1.000306212754965252e+01,-2.295091985895471570e-03,-9.799665868258973234e+00
-1.000477727313595366e+01,4.922723196549436825e-03,-9.789061416511827929e+00
-1.000681064575849533e+01,4.195470343744890000e-05,-9.799869178625295163e+00
-1.000159185897229541e+01,-5.360567224103432102e-03,-9.779924174449632801e+00
-9.995546839121312033e+00,7.273928091451193874e-04,-9.799018733499030631e+00
-9.999569412072004226e+00,3.711770955968962064e-03,-9.789195062244857581e+00
-1.000008726155689764e+01,7.843571094765992499e-03,-9.788710722045749435e+00
-1.000490421102849226e+01,-1.218679345320525069e-02,-9.802325282954321040e+00
-1.001041116115302465e+01,-2.160210481935728819e-03,-9.778379469424121950e+00
-1.000328323253351748e+01,-2.156470420024749965e-03,-9.791722940551938592e+00
-9.992755484544835198e+00,1.041521631820638283e-02,-9.790368948616182010e+00
-9.996813983631044565e+00,1.051712016275861521e-02,-9.782274917171696060e+00
-9.990998132859932213e+00,5.071094118382195488e-03,-9.794146319593648897e+00
-1.000065109690095078e+01,2.403228079681466595e-03,-9.792616802549659383e+00
-9.997319090788732154e+00,4.970121382204897159e-03,-9.789650305854538104e+00
-9.996964870844513129e+00,-6.522090278301852402e-03,-9.782837538770193575e+00
-9.998389939491069356e+00,-5.885628770782010653e-03,-9.794034045526020194e+00
-1.000812517817184499e+01,-4.383302799357815453e-04,-9.783004692008493208e+00
-9.999284947323886286e+00,-5.198463953364910843e-03,-9.799577362426921567e+00
-1.000051523541499598e+01,4.957125637400476743e-03,-9.788049865123236160e+00
-1.000176341282046266e+01,-5.050110811982517697e-03,-9.785613048688505344e+00
-9.992399297093179200e+00,-1.015932425283644228e-03,-9.816839026736792206e+00
-1.001302422357268362e+01,-1.391135453528756505e-02,-9.799601222009334478e+00
-1.000388819351452874e+01,3.086522784102283933e-03,-9.790475648427015898e+00
-1.000608832625669109e+01,1.379653208748560754e-03,-9.799116727415414729e+00
-9.991851253682771272e+00,-5.732133026314588083e-05,-9.815878254540605141e+00
-1.000830793031975574e+01,4.608497830628714709e-03,-9.802405522985905506e+00
-1.000136125202584481e+01,-2.623854244039083763e-03,-9.791618500291511040e+00
-9.998811296765692802e+00,-7.839798911561298919e-03,-9.798552721067638416e+00
-1.000109814028732380e+01,-2.314649750954060441e-03,-9.795492331444098255e+00
-9.997486232591402455e+00,-9.475155259626726230e-04,-9.773319928422440128e+00
-9.999911216307964423e+00,-1.305653632255243321e-04,-9.777980403951925581e+00
-9.996343091713359996e+00,-1.256534846596969951e-03,-9.805337586931209160e+00
-1.001106455404895712e+01,-1.356822095615056387e-03,-9.790455318891520875e+00
-9.990299287254790883e+00,-2.031251351077693803e-03,-9.779031681589486880e+00
-1.000023265125826200e+01,-3.569707329422221794e-03,-9.793507689000071181e+00
-9.994364215121457562e+00,4.803247243791978864e-03,-9.791051256374847966e+00
-9.996816199104193501e+00,-6.026519036892171756e-03,-9.797918635547894439e+00
-1.000233547849687632e+01,-5.557137556311634967e-03,-9.793885425771158282e+00
-1.000622968443068395e+01,1.331113983484250723e-03,-9.789001463852043727e+00
-1.000016651408313173e+01,-3.871397207144471227e-03,-9.782445009313878614e+00
-1.000212511132921556e+01,-2.090253559423351209e-03,-9.797392050947358655e+00
-9.992599317322952146e+00,-5.744684366252488308e-08,-9.800441809253371162e+00
-9.998024801370398507e+00,-1.353875203055764954e-03,-9.803734300017248771e+00
-1.000225595504606169e+01,3.136852439290704268e-04,-9.799589636340696686e+00
-9.991645101470647106e+00,1.607022493858937737e-03,-9.796811506536643677e+00
-1.000255141518391788e+01,-1.140310840920549795e-02,-9.791550462519101217e+00
-9.999710668482883591e+00,4.710753826353726581e-03,-9.797187633360390890e+00
-9.992456249578728134e+00,2.618470790742671341e-03,-9.794063151558761504e+00
-1.000345739158968961e+01,-1.808665338628919709e-03,-9.790039949934950414e+00
-1.000154762620438298e+01,7.672434915601694834e-03,-9.795389427239864943e+00
-9.986317075556293332e+00,-5.262934503843213173e-03,-9.800452346577882778e+00
-1.000403519849104406e+01,4.600619898913707595e-03,-9.793763588808154452e+00
-9.996421213875153811e+00,-6.853966494526278833e-03,-9.778925454200624756e+00
-9.996283579307247535e+00,1.597166385431659803e-03,-9.789826568168294330e+00
-9.989299622108619658e+00,-3.990278200532719650e-03,-9.788508098010902714e+00
-9.994143301979820038e+00,-1.687460785368702040e-04,-9.796914697416799100e+00
-9.996038896047476641e+00,6.565588816004307333e-03,-9.810270529248573013e+00
-1.000397671727945159e+01,6.863430466481856840e-03,-9.798599356751829248e+00
-1.000429392827712149e+01,-4.787522182280261850e-03,-9.801595487770917714e+00
-9.987722886338655570e+00,1.051250403480152515e-02,-9.791819321461010972e+00
-1.000141017706137170e+01,-4.193422058239041662e-03,-9.781178561297808827e+00
-9.992469933623404188e+00,-5.706514904011692098e-03,-9.802549273911301597e+00
-1.000886183979515032e+01,-3.060176863576593003e-03,-9.799907756956518057e+00
-9.991016120933641886e+00,2.634693959107648354e-03,-9.785895896626286117e+00
-1.000159879699587684e+01,3.790770291124179181e-03,-9.785041470559361798e+00
-1.000499456342425653e+01,-7.392375478071057859e-05,-9.787762057827100293e+00
-9.996308543166804839e+00,7.432287637087213374e-04,-9.783493568195211765e+00
-9.995696668638684557e+00,1.479354732703142081e-03,-9.799883128860923165e+00
-9.999531134101937724e+00,-2.757906425897640144e-03,-9.811133210577724029e+00
-9.999899712068886615e+00,-7.436944729743420225e-04,-9.796445339008647224e+00
-9.991019806756673560e+00,-1.832088389089011661e-04,-9.788863990652101776e+00
-9.997165147222551340e+00,5.040178233394636276e-03,-9.804548170538172513e+00
-1.000275951305309619e+01,4.190066986742109131e-03,-9.792053887873558793e+00
-9.994749596826538962e+00,1.020842804676302083e-02,-9.789081779854827303e+00
-1.000187911251745021e+01,1.535484376178135237e-03,-9.793260610896133755e+00
-1.000020159652594209e+01,1.042438596234642519e-03,-9.785429716539519873e+00
-9.995366566049259660e+00,-3.842553386816162288e-03,-9.790389401322677543e+00
-9.998687440920681624e+00,-8.356442559681700674e-03,-9.791724949197540440e+00
-1.000145048681689630e+01,-2.070685039253222261e-03,-9.803897770651788690e+00
-1.000004288533550323e+01,4.406177864547014544e-03,-9.799438279806750529e+00
-9.995756847333735706e+00,4.092616419684903459e-03,-9.789987935204973013e+00
-9.993275615613827156e+00,-6.079656876201147350e-03,-9.787273565160182542e+00
-9.992553223949947494e+00,1.314214201593291026e-02,-9.797230099406306181e+00
-1.000019447334118539e+01,1.198652786754478977e-03,-9.788659032840964613e+00
-9.989229239320877696e+00,2.044596536574789462e-03,-9.792341798835609623e+00
-9.992239544710352916e+00,4.162790877020729023e-03,-9.787651811169466143e+00
-9.992184799371511161e+00,-6.577974718605871310e-03,-9.793624246798117383e+00
-1.000472577110299888e+01,1.985932067888852674e-03,-9.801721492819453374e+00
-9.997681534068229681e+00,3.369192616157307054e-03,-9.785769038884648552e+00
-1.000119025214409518e+01,1.020980015948504127e-03,-9.787908911306075765e+00
-9.999649551109879297e+00,6.144580308401459932e-03,-9.797955013799676038e+00
-1.000442269551551888e+01,-9.326008066297875390e-03,-9.787249304937583716e+00
-1.000190335861076640e+01,4.165009879668343275e-03,-9.804307916200793116e+00
-9.997169376185091494e+00,-6.173660149635292957e-03,-9.794801286631578563e+00
-1.000190053426632808e+01,-1.104652859162935262e-03,-9.807077720578568858e+00
-9.999695639129019042e+00,3.663092012371153318e-03,-9.791826091454884917e+00
-9.991870727956431608e+00,1.898762462636951554e-04,-9.787632183708321776e+00
-9.996173723569210523e+00,6.530831315836433358e-04,-9.796798257691271772e+00
-9.994164129925659168e+00,1.329295044008857842e-03,-9.780224353822614347e+00
-9.994855728360809266e+00,2.028681920909028782e-03,-9.797242882711149292e+00
-1.000423671679072335e+01,6.428403765365563475e-05,-9.790990896488409589e+00
-1.000142016001870537e+01,8.256681773824795997e-03,-9.794903293906600084e+00
-1.000429136992957702e+01,3.643176474300157015e-03,-9.785889407121718619e+00
-9.997779333892115261e+00,-5.158158892346120100e-03,-9.794380730795605672e+00
-1.000717712094584577e+01,4.714759505073409969e-03,-9.790504388534053248e+00
-1.000044556572034438e+01,6.165456111755129170e-03,-9.792526124684979294e+00
-9.998609205263992550e+00,3.677404714210070211e-04,-9.779532105651517426e+00
-9.999096532453613406e+00,-1.474137366375222191e-03,-9.791549750064111990e+00
-1.000464677142193182e+01,-3.356392516697855218e-03,-9.790720790165424958e+00
-9.999576797163266306e+00,5.708991088823271720e-03,-9.804281744194929260e+00
-9.997763939966276325e+00,-1.555335698445780082e-03,-9.805594566223273745e+00
-1.000686041340524390e+01,1.307226133302571112e-03,-9.791919040646034134e+00
-1.000372050275308489e+01,1.201940455283132648e-04,-9.808049922176001800e+00
-1.000293784946227049e+01,-3.300088947838629048e-04,-9.794224401513673683e+00
-9.990823237235753496e+00,3.508129935194529911e-03,-9.794391116982410495e+00
-9.993108876941596108e+00,4.873676305455237889e-03,-9.780816658383551854e+00
-1.000797604284193554e+01,-3.019460062033745180e-03,-9.795567838849821740e+00
-1.000157515461567570e+01,6.621974308875904760e-04,-9.786482148499798583e+00
-1.000124017223874340e+01,5.874548046774158601e-03,-9.786603242369569244e+00
-9.989599816621678841e+00,-2.047682729543147135e-03,-9.790286816836733408e+00
-9.999536359027825227e+00,-1.565176869503232373e-03,-9.792570238508027103e+00
-9.993760434733918174e+00,3.336153710054293696e-03,-9.794364381410609610e+00
-9.993737416637413773e+00,1.029383100408437848e-02,-9.787143777763256836e+00
-9.995678083338891184e+00,3.757154690892705639e-04,-9.781844884325710865e+00
-9.998393042443847634e+00,-4.659899019210261319e-03,-9.799859348972187689e+00
-1.000549273311225740e+01,-1.946514958275463421e-03,-9.773655600224852691e+00
-1.000638486376555747e+01,-1.115105451399097530e-02,-9.797401056886119619e+00
-9.989105102299342676e+00,-5.796906661230237338e-03,-9.793751627966747364e+00
-9.995258873104120312e+00,-4.808609731791829104e-04,-9.786526841905727636e+00
-9.999812723660616243e+00,-6.896862920046573781e-03,-9.803561979036981455e+00
-9.999623393933466886e+00,3.031423341255804101e-03,-9.787792545079405215e+00
-1.000049780712328129e+01,2.763932206561780895e-03,-9.806315561144234749e+00
-1.000426978644266818e+01,-1.303747581832918933e-03,-9.782926552851703761e+00
-9.997302653647810899e+00,7.838305668232073030e-04,-9.811931314871698007e+00
-1.000871432252870363e+01,-6.522636706257807504e-03,-9.798610921956951714e+00
-9.998484733131030922e+00,6.833396882063794663e-03,-9.793498262194640702e+00
-1.000182904607066448e+01,-5.624397383478682566e-03,-9.784661724649923897e+00
-9.996221980498942727e+00,7.001775614291429368e-03,-9.801130017591681565e+00
-1.000547431452804936e+01,1.023922826497156678e-02,-9.794131932236663118e+00
-9.994034133154693578e+00,3.268309788658536105e-03,-9.789018186256027931e+00
-9.997679330337410519e+00,-4.273764108625295599e-03,-9.786892526294620254e+00
-1.000119713280729350e+01,-6.033579841768101472e-04,-9.791933612432881517e+00
-1.000120904820336776e+01,-9.687362516040004274e-04,-9.794157114044580226e+00
-1.000464851018015544e+01,4.035180119110565351e-03,-9.807659893802494366e+00
-9.999987440399374705e+00,-8.662758653725500385e-03,-9.788563654360649124e+00
-9.998255175528775851e+00,-1.122874595736342795e-04,-9.799340618339950737e+00
-9.998384950558776296e+00,-1.192884541281990975e-03,-9.795769732891100645e+00
-9.998602908379327303e+00,4.976495286313475583e-03,-9.797493732812387890e+00
-1.000624347364434286e+01,-5.666097420053460912e-03,-9.795504741351271250e+00
-1.000229351596334482e+01,1.519515632248570050e-03,-9.796594637917777959e+00
-9.991956870356858644e+00,-3.817255857579383242e-03,-9.796596471510936155e+00
-1.000320687899461980e+01,5.842835985333597049e-03,-9.775118741523385779e+00
-9.997374592680824179e+00,-3.707192981137152855e-04,-9.772160192114050403e+00
-1.000923189621121701e+01,1.142403844325196732e-03,-9.795050413944609957e+00
-9.990993133382019664e+00,-3.407140216740002590e-03,-9.786840846648116710e+00
-9.994077073365712494e+00,-6.746452451739328240e-03,-9.788320870665954132e+00
-9.998461760855297698e+00,-6.428080654596213250e-03,-9.792046645607946687e+00
-9.997638500546713658e+00,3.439618745600416666e-03,-9.803678757786890685e+00
-9.992779391993796168e+00,-3.495269566426723300e-03,-9.794512821739340680e+00
-9.997288047722213022e+00,7.364900958972194801e-03,-9.784578574114799920e+00
-9.989950227688531470e+00,-7.601687765167140787e-03,-9.800694393640789315e+00
-1.000109743920595129e+01,1.018100361379668459e-03,-9.786143709513753564e+00
-9.999463413642855514e+00,-1.583964665511969740e-04,-9.791555164695848745e+00
-9.994478149518775112e+00,4.057868905158522853e-03,-9.778733880920270849e+00
-1.000558671231993380e+01,7.631298313881902141e-03,-9.814946197184713839e+00
-9.997228747363942958e+00,6.438640814874891337e-04,-9.794317183887059741e+00
-9.997612598408247564e+00,6.781250966378177735e-04,-9.802971379001107266e+00
-1.000251898269182149e+01,-4.700078981723127165e-03,-9.803120166238709743e+00
-1.000304834298321310e+01,-9.955642472331155748e-03,-9.796313418611001467e+00
-9.999127722122009843e+00,-6.370863333981935037e-03,-9.792920372644886129e+00
-1.000214723747767742e+01,-6.471738329194073359e-03,-9.785753198105760831e+00
-9.994017364562511219e+00,-3.254759589642636664e-03,-9.799848493194120991e+00
-9.995989250376707602e+00,-1.038258274082468936e-02,-9.794689610485127318e+00
-1.000524206034916475e+01,-9.325529306497680471e-03,-9.792963950283610330e+00
-9.999699995706892608e+00,-5.985713123648039868e-03,-9.782122156254191125e+00
-1.000122469323589058e+01,-8.748293304499043035e-03,-9.802417259754029999e+00
-9.999132337253625380e+00,4.893895184851584229e-03,-9.787777519952156169e+00
-9.992355148191579772e+00,-8.774817220484485564e-03,-9.777940322451229349e+00
-9.996433889767081027e+00,-2.363470457521505818e-03,-9.803110883016575627e+00
-9.999994725626997649e+00,-1.837493835725585462e-03,-9.798610286110850609e+00
-1.000459306083506128e+01,-7.617196749419827967e-03,-9.791511088291571241e+00
-9.995902584125204271e+00,-8.419164161351048439e-04,-9.790129659794333250e+00
-9.996537013836270802e+00,2.348613129570310040e-03,-9.813478271582484425e+00
-9.992743668670174273e+00,-4.951494149825028113e-03,-9.816201521852377709e+00
-1.000116705280368201e+01,-3.804775642055497568e-03,-9.804605550469657871e+00
-1.000425210834918488e+01,4.089385051152773926e-03,-9.791721482280639322e+00
-1.000373575785810942e+01,-5.655044574547043318e-03,-9.791555501758953284e+00
-1.000074290325387949e+01,6.587781358024445396e-04,-9.791166518537092855e+00
-9.998280912328979753e+00,6.459827450899331344e-04,-9.799513433996095202e+00
-1.000440533660539444e+01,9.068735985912996719e-03,-9.797574884646243376e+00
-1.000331580147445010e+01,7.727569018458409385e-03,-9.787989819374370626e+00
-1.000815958983247356e+01,4.653823625420398270e-03,-9.800420887959472083e+00
-9.998312694790131516e+00,-1.817287905145784392e-03,-9.775768076059851097e+00
-1.000155104518518812e+01,1.096150024787670776e-02,-9.803081208544265124e+00
-9.998116563367613452e+00,-5.597837717033299527e-03,-9.791260625058507472e+00
-9.990704260599915898e+00,-1.388355794930003304e-03,-9.785593610813688059e+00
-9.993122538298731428e+00,1.919096598041175302e-03,-9.794090761703170500e+00
-1.000484370487221675e+01,-1.492364622636228096e-03,-9.801308410639212099e+00
-1.001063565827902480e+01,-7.639890961666332379e-03,-9.786403763377009568e+00
-9.998309332077525369e+00,2.944060154004703601e-03,-9.795009330967459960e+00
-9.991820788927046948e+00,-1.371033701428320392e-03,-9.798144946387330023e+00
-9.989665358938676576e+00,-3.979590645388891824e-04,-9.785192930293588276e+00
-9.995213772075913994e+00,-1.486930522435473204e-02,-9.793514051537076881e+00
-1.000134478290182827e+01,4.303135488506087611e-03,-9.792138622796207059e+00
-9.992379573795060921e+00,-2.392718284310980850e-03,-9.786576216427089747e+00
-9.992663376577187506e+00,6.877769349690010178e-03,-9.790196929164903139e+00
-1.000026171887822102e+01,9.945701578374457636e-04,-9.808752681598718937e+00
-1.000029263648871414e+01,-1.167755180003136016e-02,-9.786566617388658074e+00
-1.000961762387769838e+01,-1.141965561643460032e-02,-9.797928007618230239e+00
-1.000344325526722500e+01,6.722417224365665324e-05,-9.809440767102639569e+00
-9.992605905150597323e+00,2.201838966543832616e-03,-9.811156818652884581e+00
-1.000388175474093799e+01,1.303575408566441489e-03,-9.781910560309620806e+00
-9.985981401377864941e+00,1.445358732946621901e-03,-9.794391747199753695e+00
-1.001443158482404350e+01,-5.023919213374881086e-03,-9.793343625619774784e+00
-9.993956371120550131e+00,-1.233874999664062938e-03,-9.789012282871187409e+00
-9.997589410365288032e+00,-2.811525469124871376e-03,-9.788930639781913357e+00
-1.000462168403813834e+01,-1.147617534177818206e-02,-9.793178417218932452e+00
-1.001497204012877162e+01,3.516525180596334816e-04,-9.784829368659760718e+00
-9.995808710495111882e+00,-5.594872136135923581e-03,-9.801918656175123701e+00
-1.000010265422308287e+01,-7.020834093871762896e-03,-9.797183654868661051e+00
-1.000641982485339199e+01,8.954564249866938264e-04,-9.798815715389029180e+00
-9.993423152325675574e+00,-5.201264116877124880e-03,-9.786280597209264798e+00
-1.000103858203321039e+01,-4.667838737487947989e-04,-9.792815988851780062e+00
-9.999146241279840197e+00,-1.687989739574174454e-03,-9.798623295888718943e+00
-1.000318859075588485e+01,2.083010523281560600e-03,-9.790731858113765895e+00
-9.998135928167194209e+00,5.870417613518817516e-03,-9.788630692460266403e+00
-1.000298110261633511e+01,5.915720794704997301e-03,-9.789799767610173120e+00
-1.000711543997651454e+01,-2.165937277546389674e-03,-9.817189918093299994e+00
-9.995456306725635898e+00,-5.131058872678864041e-03,-9.793713266030314557e+00
-9.995651764464650313e+00,-1.787576572167018114e-03,-9.791491948082798658e+00
-1.000319956348007366e+01,-4.788368058222617143e-03,-9.795764316134437877e+00
-9.996012476675936398e+00,2.951383884494885017e-03,-9.797386950371857139e+00
-1.000984789694869725e+01,3.618736305702120303e-03,-9.798850868945599757e+00
-1.001080744305985348e+01,1.587859886474235439e-03,-9.788435391461042911e+00
-9.996954729318639821e+00,-2.026049748733750166e-03,-9.799174388607811537e+00
-1.000507243814201352e+01,-2.189284178352853428e-03,-9.792425176464343295e+00
-9.998062414853432500e+00,-7.602325297018328390e-03,-9.797098103400362135e+00
-9.998987776194750765e+00,2.929928391553752141e-03,-9.786703503512852009e+00
-1.000036130093345754e+01,5.501093254317011329e-03,-9.801075182978408407e+00
-9.996707046292847565e+00,-7.081432331173659160e-03,-9.789934610734588816e+00
-9.999161236836508593e+00,2.904568405283631475e-03,-9.794317244531695721e+00
-1.000209067517513972e+01,-2.662805652157665837e-03,-9.796103627006502279e+00
-1.000620041810020311e+01,1.473525085539834772e-02,-9.795954666824510326e+00
-1.000361346351885494e+01,-1.026690369303730633e-03,-9.788470393376529799e+00
-1.000341986505580216e+01,-9.482471668085766525e-03,-9.808284076590979339e+00
-9.990020012607557121e+00,1.067575892173354413e-02,-9.810013743025924882e+00
-9.999994661215460212e+00,4.699106299550389471e-03,-9.800906702154057015e+00
-9.994400344771261047e+00,-2.596205528416164858e-03,-9.793995478495666873e+00
-9.996896420087054480e+00,-3.706429204150285019e-03,-9.794976789618967672e+00
-1.000114143115910359e+01,-9.065628577234110391e-04,-9.800437191716179441e+00
-9.998547949576909843e+00,4.773818577886378384e-04,-9.793602475739861646e+00
-1.000822567269243812e+01,1.418708570890188500e-03,-9.792939857844729090e+00
-9.999950362167989937e+00,-1.329676933396783597e-02,-9.782330903502447939e+00
-9.999351643060769845e+00,-7.551963381917304284e-03,-9.795952625298456340e+00
-1.000048398093052704e+01,-2.097705482746688600e-03,-9.808669575958511189e+00
-1.000241421610018122e+01,-5.301038568424952177e-03,-9.785469012620177764e+00
-1.000092764920316135e+01,-1.886638478840384605e-03,-9.779194825235098421e+00
-1.001081559897896867e+01,3.387937684814391111e-03,-9.788031239439220599e+00
-1.000437053928266451e+01,-3.693622751000702736e-03,-9.796166865089553255e+00
-9.987275728109613837e+00,-5.958247243209320154e-04,-9.779439760054296826e+00
-1.000469091801919319e+01,3.853159883750647413e-03,-9.812267906121933336e+00
-1.000644053536960598e+01,6.319520052352136860e-03,-9.798417853599685756e+00
-9.998634316061657756e+00,2.123411619709367117e-03,-9.780633256869659675e+00
-9.997345913116456373e+00,-2.791653465547159260e-03,-9.787790979046580020e+00
-9.994342015212504649e+00,8.938374144666267479e-03,-9.789511726179410900e+00
-9.996497395922474993e+00,1.045006005945902858e-02,-9.790913395064938740e+00
-1.000065160699566036e+01,-3.038104105752466918e-03,-9.800446494406251929e+00
-9.995478846053844180e+00,-2.409763044412007154e-03,-9.793527221318282017e+00
-1.000111325914336291e+01,-5.941998751471256300e-03,-9.796504790688883801e+00
-9.992335681468366815e+00,3.507764698986546616e-03,-9.789992120877172965e+00
-1.000642680859513689e+01,-5.419554148596212630e-03,-9.795363915840921365e+00
-1.000347614317664657e+01,2.270016269790415240e-04,-9.792567249166356902e+00
-9.999983341699252293e+00,-3.309145237568522028e-04,-9.787545903487803400e+00
-9.999998261172072134e+00,1.022285799518147815e-03,-9.793039827642841644e+00
-9.997618686714448089e+00,-1.373288825280515654e-03,-9.801020943382418693e+00
-9.995759921758311961e+00,4.924648840482834591e-03,-9.798498466157543163e+00
-9.992489925350007240e+00,8.357576573793649988e-03,-9.789099583316879460e+00
-9.993633352127526237e+00,-2.668401464077062302e-03,-9.789829786788116550e+00
-9.996122065216036745e+00,2.080549872164039887e-03,-9.797259900014209322e+00
-1.000109350724953039e+01,-2.025853772398218070e-03,-9.780993202135153552e+00
-1.000574269162606100e+01,6.005140574893468725e-03,-9.799298175915145848e+00
-9.989230579623660233e+00,-3.114702741159329664e-03,-9.798116424676903691e+00
-1.000098821963518603e+01,3.862051158155280564e-03,-9.789981928729229566e+00
-1.000274430557401395e+01,-1.613418703018276766e-03,-9.795579024263975754e+00
-1.000482724287237879e+01,-2.068983897480811823e-03,-9.804067510198345659e+00
-1.000745617733181092e+01,5.444596929512351101e-03,-9.787909992721345986e+00
-9.999218865134890777e+00,2.702992998590128971e-03,-9.792722057230289323e+00
-1.000084117353206459e+01,1.742623858767910951e-03,-9.799547651904653378e+00
-1.000187905499533336e+01,-5.447653144762968974e-04,-9.787106354817831644e+00
-9.996684506224589484e+00,-6.789721179312879079e-03,-9.798938934173877513e+00
-1.000864138546458193e+01,1.531902551622612955e-03,-9.793904611026995610e+00
-9.997094173160760988e+00,-3.079905089522967567e-03,-9.805040975726294405e+00
-1.000572587140290004e+01,1.377842432441956592e-03,-9.786864958828386918e+00
-1.001052356080812089e+01,2.913210026582838206e-03,-9.805421750496158495e+00
-1.000056540345741141e+01,4.256232490881369825e-03,-9.787116638980188910e+00
-9.999430744426216933e+00,1.048628539546452455e-03,-9.771774039069324402e+00
-9.997412512020753539e+00,-2.712658709941064006e-03,-9.812811654487308743e+00
-1.000681201900432526e+01,7.705384872012098832e-03,-9.792852524937375236e+00
-9.992095949938326171e+00,4.940805137681019733e-03,-9.796126985724365355e+00
-1.000163245820525404e+01,-3.705911002978933607e-03,-9.796927015434430785e+00
-1.000144922934180514e+01,-6.972965218382342180e-04,-9.788561219426551219e+00
-9.994298732762105786e+00,3.072735941922886309e-04,-9.794968183710873078e+00
-1.000651514306123602e+01,1.230604700358296083e-02,-9.794386865033983369e+00
-9.997009494638113836e+00,4.211266469182595520e-03,-9.787760107990372660e+00
-9.999645481043939910e+00,5.142778169092704875e-03,-9.797720574057896314e+00
-1.000711044987651022e+01,5.997357450541526865e-03,-9.795835105237962637e+00
-1.000001210343963365e+01,-2.774887955052969188e-03,-9.802534022537388481e+00
-1.000676329119057506e+01,1.518122186480525470e-04,-9.811556995939609394e+00
-1.000413864068755387e+01,-1.564222863896254216e-04,-9.785410827258276711e+00
-1.001569123710471843e+01,1.900611789892375650e-03,-9.804980723066078596e+00
-1.000272816435327172e+01,-2.360870316824742812e-03,-9.811468933105183865e+00
-1.000042190681704035e+01,-1.915751254728833338e-03,-9.811111313774533826e+00
-1.000062635138523426e+01,3.798416540764047895e-03,-9.795565749108899212e+00
-9.995464523171602167e+00,-1.367212676938519807e-03,-9.785808783759694762e+00
-9.998784571543898991e+00,-1.073654802549646155e-03,-9.795872443188741840e+00
-1.000019164418648820e+01,-1.996827452834520379e-03,-9.808822299902223207e+00
-1.000364158019977978e+01,-1.039515351701717806e-02,-9.793774728139569064e+00
-1.000016320777614531e+01,-1.657605375807625237e-04,-9.789533460293567302e+00
-9.996046817613100544e+00,8.536202698840620468e-03,-9.778124423448124602e+00
-1.000243569941477162e+01,-5.774807320848479586e-03,-9.799864870220471147e+00
-1.000587019775111663e+01,-2.183303131745228866e-04,-9.781552145426433142e+00
-9.995739036709972325e+00,3.163253959733026976e-03,-9.789032522629538491e+00
-9.999764827631492992e+00,7.499080607851248484e-03,-9.792993424720590312e+00
-1.000390925322549585e+01,-8.224755739480626299e-03,-9.801588925299773436e+00
-9.995242425094437166e+00,-5.637365617098223300e-03,-9.790865222730914752e+00
-9.998032923463828325e+00,6.248941936905537571e-03,-9.788611684981891159e+00
-9.997174231520119747e+00,-7.363382590545411964e-03,-9.799392926781674618e+00
-9.996120638644567791e+00,6.773436944877417494e-03,-9.796487374567702133e+00
-9.998075059411233312e+00,-1.219304067859641565e-03,-9.791191520798188108e+00
-1.000069597780007769e+01,-5.182825193594853101e-03,-9.795605359769234965e+00
-1.000470761834981381e+01,-1.693695980373534360e-03,-9.780587480954608282e+00
-1.000057086798970118e+01,1.357646810594288636e-03,-9.806097163897414148e+00
-9.999778045520342218e+00,-1.826163009068077023e-03,-9.800297127710237532e+00
-9.997872031223815625e+00,2.658841877001983951e-03,-9.802328315555515204e+00
-9.998740162189054814e+00,-2.081781239217627474e-03,-9.778743567474826648e+00
-9.999262455586720222e+00,-2.476523792827191491e-03,-9.790750408742734834e+00
-9.988123378073641589e+00,1.744582085746320147e-03,-9.792119032828582093e+00
-9.995419237047784122e+00,-5.285741092631525764e-03,-9.799135613259647215e+00
-9.995147220457775816e+00,2.911780683781042735e-03,-9.812018169540007051e+00
-9.998518980387853361e+00,3.738873835479443637e-03,-9.780679904904884481e+00
-9.995644854447034433e+00,4.763081465746496664e-03,-9.785515321106538877e+00
-9.999045278160592076e+00,-5.862081762417027837e-03,-9.808407347115142727e+00
-1.000630664259543501e+01,-2.968502735240129337e-05,-9.791021360612838009e+00
-9.995541028307753706e+00,-1.116376750705196097e-02,-9.794354122474620894e+00
-9.992018963328984427e+00,1.466677230755210511e-03,-9.795800722164875296e+00
-1.000593364673457941e+01,2.758165879653935119e-03,-9.779922717223579198e+00
-1.000125293860796560e+01,4.131966320949393735e-03,-9.789936925090330533e+00
-9.990906425478080166e+00,7.255942252718920477e-04,-9.802320189628677127e+00
-1.000201396426677469e+01,-5.960342311275713088e-03,-9.807193591180444869e+00
-1.001225658683240560e+01,-3.255183201632435176e-03,-9.784781638428825090e+00
-1.000520101271869322e+01,-2.720603003387875524e-04,-9.794729839719874320e+00
-1.000822779297580922e+01,1.236398555808894883e-03,-9.800106021909593679e+00
-9.993116830336107981e+00,-1.236524470855345295e-03,-9.792313807864198694e+00
-9.993565479314355571e+00,-4.302619894815182602e-03,-9.792677246992122164e+00
-9.993500196153068060e+00,5.166366117752960521e-03,-9.799835288583530257e+00
-1.001316550680089179e+01,-6.838151942371993586e-03,-9.809616131870706468e+00
-1.000703485178129704e+01,-1.146447669349135237e-03,-9.790990445172552015e+00
-9.998592582160219067e+00,-3.376330135824673860e-03,-9.800400075867226946e+00
-9.995286919933141334e+00,1.061070291722086812e-04,-9.795518395595088634e+00
-9.997948818542541360e+00,3.985657423440073024e-03,-9.797812123173038401e+00
-1.000634850499378103e+01,9.999506323002213971e-04,-9.798540587812908598e+00
-1.000251101666516718e+01,-2.067212472326085057e-04,-9.804088495988098728e+00
-1.000019838604749900e+01,1.019176135153639692e-03,-9.785647018732266389e+00
-9.993074702682397614e+00,-9.617707441496488319e-03,-9.788025893565798441e+00
-9.994073093919597639e+00,-1.324263305005321566e-03,-9.797538072879335758e+00
-1.000275528077513876e+01,-1.207226246645953793e-02,-9.799743006282024993e+00
-9.996486714344996471e+00,-4.567709887800804752e-03,-9.799391529964495362e+00
-1.000460106044352493e+01,2.863645658868072680e-03,-9.812101980258313816e+00
-1.000805403723651743e+01,2.157664718929318097e-03,-9.782671635980781488e+00
-1.000823802765719783e+01,5.892239408543813867e-03,-9.795155062212673513e+00
-1.000300926061933104e+01,-1.211710437042675011e-02,-9.789485798559020679e+00
-1.000698382186831736e+01,-5.548809183792116542e-04,-9.804064568274201363e+00
-1.000003149973149164e+01,-3.538672949449869504e-03,-9.786186453606314117e+00
-1.000624209963238087e+01,1.128608887671389907e-02,-9.777214976518893153e+00
-9.996101118941959740e+00,2.727059673279607732e-04,-9.788229364394464227e+00
-1.000232853909560760e+01,5.447258822795117590e-03,-9.794107870494165979e+00
-1.000141521228496266e+01,-4.782037523786598562e-03,-9.791790876428866142e+00
-9.997004988855524132e+00,-8.249555003693837332e-03,-9.798647374752246009e+00
-9.996714521379091778e+00,5.716545609106816160e-03,-9.793434178404206492e+00
-1.000126333833698844e+01,-6.529100948058264194e-03,-9.800923907907725052e+00
-9.997858423707004505e+00,4.189005690970675627e-03,-9.810564242850597694e+00
-1.000282164122413953e+01,-3.552030894160609562e-03,-9.799390488172614155e+00
-1.000129266659608440e+01,2.264935955393971873e-03,-9.777495322692917767e+00
-1.000360600464874672e+01,-3.306893084420225570e-03,-9.819297142722493987e+00
-1.001094557192307910e+01,-1.218132243045344293e-03,-9.814919578407561573e+00
-9.997037409008658670e+00,-2.587133924020773666e-03,-9.783924387630912989e+00
-1.000571304948348050e+01,-4.051069753278635673e-03,-9.794543231903677594e+00
-1.000383204808516346e+01,-3.617375354368267733e-03,-9.794109024327461555e+00
-9.990769377406811813e+00,5.158873269617192739e-03,-9.798882137785208002e+00
-9.996707683357993091e+00,4.709010430243154056e-03,-9.804578890236836486e+00
-1.000374744610324385e+01,2.672493073524388578e-03,-9.806765780161377677e+00
-1.000137017037269693e+01,-4.769594544664870761e-03,-9.809442919361977431e+00
-1.000622941152597889e+01,-4.361669674144377784e-03,-9.789619081495107622e+00
-1.000100478561933492e+01,-5.619832302529560383e-03,-9.811099059946162271e+00
-1.000157339310809235e+01,-8.985660508862892710e-04,-9.799456540815098649e+00
-9.993548415999308432e+00,8.546513404908814750e-04,-9.797884461095268449e+00
-1.000062852564444071e+01,1.146480109624917068e-03,-9.791207450881977081e+00
-9.992459847308010623e+00,9.030487321881523408e-03,-9.790713845421613826e+00
-9.999698130578151378e+00,2.181203061331956922e-03,-9.783373376595298154e+00
-1.000320660341191292e+01,7.121983956298834958e-04,-9.792541496909480614e+00
-9.994830662322144121e+00,1.185603821720192675e-03,-9.794005582645477048e+00
-9.993426333012610741e+00,1.558687719642097872e-03,-9.787286909513904121e+00
-9.993425144514493041e+00,-8.128957457714334339e-03,-9.780759599285481443e+00
-9.998227074789619806e+00,-3.155352857753709037e-04,-9.805345239879365238e+00
-9.997595333050776745e+00,4.768836082898440971e-03,-9.780472565100719606e+00
-9.997182454226274828e+00,1.644984504273151824e-03,-9.779639831955375229e+00
-9.994315247041706485e+00,3.883768536042372498e-03,-9.817284503819339037e+00
-9.993228107780822711e+00,7.672464337728124480e-03,-9.798561146691849189e+00
-1.001088817582566115e+01,-9.647772611942903240e-03,-9.806708166960159900e+00
-9.994153774824935610e+00,-1.930485620921405018e-03,-9.794242169910685192e+00
-9.998798397270890703e+00,-3.871300132998850042e-03,-9.805974509710992493e+00
-9.989546057142668189e+00,2.115539022182094317e-03,-9.787233689694573968e+00
-1.000009364229642905e+01,4.721984291005441349e-03,-9.799763423202911383e+00
-1.000321333384064637e+01,2.741873976722338023e-04,-9.794737719032337253e+00
-9.998768486499077568e+00,-8.837089254845742611e-04,-9.804813996465036041e+00
-9.995624194092251003e+00,-4.315021881215497755e-03,-9.799899659466413837e+00
-9.995914865562660623e+00,-3.292841802278086323e-03,-9.796429501477687651e+00
-9.994869081538789501e+00,-2.000740666141039882e-03,-9.784150753953451130e+00
-1.000133554258932911e+01,-5.175150365837617034e-03,-9.794156750050946769e+00
-9.993585979992939627e+00,1.718584460941358213e-03,-9.805168616945184823e+00
-9.990643745798271524e+00,3.432476285665752181e-03,-9.793749163387049705e+00
-1.000178378037750626e+01,1.249787735360690559e-03,-9.791524512350676446e+00
-9.997695951324770292e+00,3.641145219170701264e-03,-9.801592052341707273e+00
-1.000022544359791077e+01,-5.015037189816220868e-03,-9.798353050928573893e+00
-9.995103935606278966e+00,-5.810918984698744405e-03,-9.781002343168978541e+00
-1.000284184021044176e+01,4.258399900065483468e-03,-9.795432576214517795e+00
-1.000696740018123165e+01,-1.270748537316470674e-02,-9.786952208369614326e+00
-1.000680696051064622e+01,-3.722303388029746946e-03,-9.796136975236521494e+00
-9.995773252377821549e+00,-7.056007626835231281e-04,-9.803442217183052421e+00
-1.000305672267758084e+01,7.853035087692031985e-03,-9.789943628399765174e+00
-9.995516272840625049e+00,-2.617505778870260393e-04,-9.785792121659303788e+00
-1.000517702479874060e+01,5.792230246672085310e-03,-9.790027949291449261e+00
-9.998733319616626147e+00,1.527087151981661737e-03,-9.799427359716137431e+00
-1.000536157345519683e+01,-7.478009006651139580e-03,-9.799871508806765164e+00
-1.000145699490782647e+01,-6.841387143439224029e-03,-9.783095956672941185e+00
-9.996049768895693077e+00,3.042689204987998261e-03,-9.805643476193795394e+00
-9.993626912828784015e+00,-1.570276400148367790e-03,-9.799633939423156193e+00
-9.998084822419487594e+00,-8.748559348918826710e-04,-9.797095285144600041e+00
-9.998365605209157181e+00,1.310567189254428777e-02,-9.787503345940859134e+00
-9.995797635357435595e+00,-8.551237821834301728e-04,-9.794091222619950798e+00
-9.998506211433408453e+00,2.308789329641300261e-03,-9.783090398432516821e+00
-1.000110159631232953e+01,2.223013594631734289e-03,-9.802091965983533939e+00
-9.999508497373696514e+00,5.590415792514128162e-04,-9.788762302466412990e+00
-1.000266022356530549e+01,-1.167395156793523775e-04,-9.793949656140183535e+00
-9.997292958685077835e+00,5.238451460220582868e-03,-9.798301162732416358e+00
-9.995863253638432866e+00,8.995180491005227768e-04,-9.796521148257371081e+00
-1.000996116519064572e+01,-3.417875838974141368e-03,-9.785878344970784681e+00
-9.999464776746716410e+00,-1.048503874210554099e-03,-9.799325264704947358e+00
-9.998649562761004361e+00,-5.365097383014830884e-03,-9.795877758565042726e+00
-9.994539696582906529e+00,8.532670041413001512e-04,-9.801905109425490537e+00
-9.988216816157015288e+00,8.505470438300036240e-03,-9.791132432308950584e+00
-1.000696629947447924e+01,-1.050995383062232509e-02,-9.791552969965449549e+00
-9.998608985823151940e+00,5.152993336387798502e-03,-9.797554421752588283e+00
-9.992699481936018202e+00,-1.973290570015519968e-03,-9.791561725021583840e+00
-9.995269802546191684e+00,-6.008007642338619248e-04,-9.800871240689145836e+00
-9.997811449901220726e+00,-4.978867687346702660e-03,-9.789000785718029007e+00
-9.999437170488887361e+00,3.618846277262392514e-03,-9.798670570303922744e+00
-9.995923738587627838e+00,-5.524404613459210633e-04,-9.789833931779055476e+00
-9.997778948108893005e+00,2.868295262163731135e-03,-9.804391355642948724e+00
-9.998022482177177039e+00,-3.507105153954653224e-03,-9.801834921749689400e+00
-9.997684228980963539e+00,-5.406185064869723509e-04,-9.797519425496851397e+00
-9.996511728567220700e+00,-5.698728306263749731e-03,-9.807227807455699775e+00
-1.000739346427194221e+01,1.072702333632351984e-02,-9.786139580335010635e+00
-1.000187692758580660e+01,-2.155703130451410657e-03,-9.790886530022890000e+00
-9.997467970130712089e+00,1.584370827546330166e-03,-9.797224919073283189e+00
-9.998375994279157908e+00,-7.534865853425426648e-03,-9.803048833052447009e+00
-9.995281649517222533e+00,3.224550292512736761e-03,-9.806367977336385877e+00
-9.999969467876352880e+00,-5.642908665681883179e-03,-9.799495681797052882e+00
-1.000333787044679923e+01,-5.128924540755491583e-03,-9.801872317546260760e+00
-9.999596547253407408e+00,-6.335643190249677301e-03,-9.810510970507994699e+00
-9.997982934961562762e+00,-5.878513241248965390e-03,-9.793644536115335697e+00
-9.993383557165751441e+00,-2.467678890925301474e-03,-9.795383714832633260e+00
-1.001134619729931785e+01,-4.441543961604599820e-03,-9.785909577068528264e+00
-1.000299111250865103e+01,1.633507787859410712e-03,-9.787163215951062867e+00
-9.998574191160342295e+00,4.186069049190895876e-03,-9.793319428978467300e+00
-9.993005543956954284e+00,-1.359691046948632593e-03,-9.798073836215175803e+00
-1.000047250781298303e+01,-8.944398334883729360e-03,-9.801390596319050630e+00
-9.999300506937682798e+00,1.662165509931137200e-03,-9.783722589991388219e+00
-1.001049680324552682e+01,-2.056986282299874680e-03,-9.794865596124948226e+00
-1.000559230152366119e+01,2.648016530744340402e-03,-9.804787551444118066e+00
-1.000202952895283559e+01,6.459519476513624070e-03,-9.799089629675036051e+00
-9.997322204669938372e+00,1.015261031719280962e-02,-9.784179283910541258e+00
-1.000192489203100976e+01,-8.894536828875955481e-03,-9.792539398034765696e+00
-9.998367981970412544e+00,-8.347786316354384797e-03,-9.783723570687843818e+00
-9.992408560550734009e+00,2.837986276083005657e-03,-9.781461885233936115e+00
-1.000209068165586324e+01,2.070798005102185164e-03,-9.805904504728651716e+00
-1.000428778584347889e+01,3.929947463259107765e-03,-9.787683043719425768e+00
-1.000273627639130147e+01,-3.480909976821978252e-03,-9.803315759040915012e+00
-9.999393003934912372e+00,-4.282975167619873340e-03,-9.795038037050213475e+00
-1.000074107526076794e+01,2.936545747626167178e-03,-9.814301506830348742e+00
-1.000074403271994150e+01,9.453764965860088007e-03,-9.790892875148189844e+00
-9.998485295386190685e+00,2.927114024038199140e-03,-9.787800841378844652e+00
-1.001130329419061127e+01,2.740474686613435067e-03,-9.799867015288269201e+00
-9.995568369582814583e+00,1.219862769006008717e-04,-9.789339691215950268e+00
-9.997122914142263284e+00,3.489856597961786371e-03,-9.796535711827461412e+00
-1.000070289000108126e+01,-1.006456764449375173e-02,-9.788455178025502690e+00
-9.997545345589744059e+00,1.559725858179905047e-03,-9.790476443553101760e+00
-9.992748934957949913e+00,-4.149235302296828444e-04,-9.792405246397434482e+00
-1.000947285419625388e+01,-2.119771857558613425e-03,-9.794772247381551722e+00
-9.999289093889085933e+00,-3.514472387830203971e-03,-9.804049446936941692e+00
-9.997324149988296327e+00,9.238763933619906200e-05,-9.810819827764603929e+00
-1.000366580975691555e+01,-4.299960310498998281e-03,-9.789174445038074879e+00
-9.998584049157063447e+00,8.487354254811433577e-04,-9.789068249977162850e+00
-1.000035154714358043e+01,-2.454004903941859380e-03,-9.810394520347129443e+00
-9.998363293524000994e+00,-3.529438839842562441e-03,-9.791547444428649882e+00
-9.999467622532046462e+00,1.083996826509240220e-03,-9.783549206897120598e+00
-9.991972010412077054e+00,-6.875065586503689014e-03,-9.775279953548357881e+00
-1.000428257353229355e+01,1.940776702711192363e-03,-9.792964812759331394e+00
-1.000109020254993908e+01,-6.873322994422367653e-03,-9.781983084408317097e+00
-9.997913912608781928e+00,8.316414912498061216e-05,-9.798605603009965748e+00
-1.000046982724099998e+01,8.646822130248304952e-04,-9.826105606506612133e+00
-1.000193572041495393e+01,1.149456105092986485e-03,-9.789375776201593382e+00
-9.993240580418950358e+00,-4.982925019193053424e-03,-9.786940065827476332e+00
-1.000058871057291299e+01,3.224790845540975834e-04,-9.802137157282057700e+00
-9.997201751607825315e+00,8.074581994727573694e-03,-9.792314841006719561e+00
