gyro_x (deg/s),gyro_y (deg/s),gyro_z (deg/s)
8.003821037859980281e-03,1.941816648932884193e-02,-3.901547164143894658e-02
-7.147780237279795224e-02,-1.447683860569356530e-02,8.553304916131353186e-02
2.102752820293311148e-02,1.540741780225511094e-02,-2.431031389540083514e-03
2.080364539673750304e-02,-9.118928889639504962e-04,-2.007368777987687987e-03
-1.796282111365650816e-03,-5.328990745830147237e-03,-2.706702478449824097e-03
5.622058870528000990e-02,-2.888387748928387955e-02,-9.748115023245127950e-03
1.175549418792572326e-01,9.325622354624983623e-02,3.656707800272200604e-02
-3.511018220263512069e-02,-8.484510874687806181e-02,-2.937513175169528465e-02
-2.619222297913600950e-03,7.230957958678100976e-03,-7.372669594406783267e-02
-1.602698815336340600e-03,-2.520864508827325504e-02,2.688461822881060143e-02
-4.431950889061046089e-02,4.805566077080627302e-03,5.689263372679069508e-02
-1.648503595296657923e-02,2.383587320396299974e-02,-4.740943717701143201e-02
6.367954495970888640e-02,-1.765834425350670811e-02,4.484908066234945950e-02
-4.052229114000190785e-02,2.213734144966788067e-02,2.080328025652816715e-02
4.604889030319473525e-02,2.889161725544948586e-02,-1.730357640040190714e-02
-3.870657067226978415e-02,1.440936142470292634e-02,8.670494892503772437e-04
1.168190626118817410e-02,1.818660173825214360e-02,7.508394451875705089e-02
-1.228986490884984191e-02,-1.193588203221838603e-02,-3.587519554015099893e-02
-2.246881914846736092e-02,-3.869374420997646197e-02,-1.442808031461694819e-02
6.574954426294911392e-02,2.213143718363716830e-02,3.095714463477557132e-02
-5.441158004453420897e-03,1.961408692576063414e-02,-6.287779926236387353e-03
-2.000594787371445110e-02,-7.594495363393406751e-02,-2.039368423733305818e-02
-3.831690094858113821e-02,-3.781383149072035672e-03,4.149829697533141681e-02
-3.128467198524323423e-02,-8.366884639287680558e-02,3.341472395350445629e-02
2.026316772575650210e-02,2.104397468091093269e-04,-1.804996995113048244e-02
1.945563696783573701e-02,-4.053002479608555642e-02,-6.400433850926898205e-02
1.992169017945632570e-04,-6.193774805173885879e-03,-3.546323595708352622e-02
1.763830378113454694e-02,-4.211710509182158696e-02,1.922043562518967880e-02
-1.276334320155307275e-02,5.687757454871983712e-03,5.244280039774241314e-02
1.108368612716966184e-01,-1.018828705578012639e-01,-4.110003685638279058e-02
-1.251593762684093114e-02,1.107138037514201730e-03,3.906636706315291634e-03
-4.373683798689670388e-02,-5.875579073744256753e-02,7.978610254826051795e-02
5.690041917785693820e-02,3.514945360351153653e-02,-7.211824850200854523e-03
-2.934087841517446157e-02,1.198624730329960336e-01,3.948037165319431829e-02
-2.957421819109463945e-02,4.423782868302749555e-02,-2.997779647146155135e-03
2.118906015886865349e-02,-5.311894046515105300e-03,-6.948914958323372526e-02
4.694113177609283288e-02,1.169163887064039817e-03,1.525401353840135851e-02
-2.842399358914164675e-02,5.146164054435409252e-03,-5.462325654187122521e-03
4.359052956443511262e-02,3.668119317103233495e-02,-2.878151250307243308e-02
-3.983814477675683835e-02,1.823342760457945938e-02,2.321602921985170542e-02
-2.987865875018685599e-02,1.283275265749918986e-02,-2.339423357789306018e-02
3.077881912475846291e-02,3.999568062747449471e-02,-9.049447622188987184e-02
-1.877808323068842766e-02,4.566408215867787806e-02,-4.128967404244546224e-02
-1.973100842572324959e-02,-3.314982764603371934e-02,2.515745435433348540e-02
-2.819097364440817724e-02,1.990359253487528415e-02,2.508533706860082216e-02
-4.314992408844171325e-03,-4.168444059287920722e-02,1.668648705972627933e-02
1.910439686093722694e-02,3.151950514012681615e-02,6.301999538669325607e-02
5.296208249946258301e-02,-7.159004247055996382e-03,-4.184098685344203594e-02
5.388233445315600972e-02,-1.308966903395952439e-02,-4.744512744595263953e-02
-4.897630676270944144e-02,8.050921309801308684e-03,-4.474028285491230168e-03
-5.832851385235807151e-02,-1.334936117667914063e-02,2.133206048939076394e-02
1.062773744135410772e-02,2.193737092536418576e-02,1.600815373043079637e-02
-4.142179848991098257e-02,3.709517232663932934e-02,-3.366773977840783333e-02
-1.073271193071549494e-02,-1.715056641771886894e-02,-7.076492633748759399e-03
5.354480183407709162e-03,7.579346627803788816e-03,-1.596304309302976759e-02
6.145481305894236537e-03,-1.206800662417841299e-02,-8.544561215406424465e-03
4.330121980448310010e-02,1.825702226673349762e-02,4.680770760981086548e-02
7.545302058731385986e-02,7.158587310357414357e-02,2.511233708849954990e-02
3.496608925092540426e-02,7.055648235967906801e-02,-3.769354607012746642e-04
-4.135619633101708659e-02,7.874433219455982680e-02,1.416679917857391335e-02
3.292729294677790991e-02,-2.006207812259522619e-02,5.966192279561068068e-02
1.049360282227672012e-02,3.783842986935405384e-02,6.758224644498694866e-02
6.559265916702777810e-02,-1.189985732647304423e-01,6.788657896999669705e-02
-7.960387046036355996e-02,2.044685937828348565e-02,1.135694027056690682e-02
2.073723146822639349e-02,5.122354875850911038e-02,-1.108844249207289502e-02
2.392919379864508547e-02,-5.550187357745093794e-03,3.900288841839510967e-02
-1.174659128573975891e-01,-9.703929134314285415e-03,1.795257051767328721e-02
-4.741002100391644714e-02,3.478087669422565836e-02,2.779301458227751570e-02
-4.236130432323337996e-02,-2.252165894397584623e-03,3.645980168919036452e-02
-2.014903112524068715e-02,3.021951199705243812e-02,-2.683091701654337358e-02
-2.051429412953537784e-02,-5.138177983817870942e-02,-3.647276496303632903e-02
4.674291965567237833e-02,4.141281669979070962e-02,1.839911099046753068e-02
-2.500927905520040212e-02,8.609113687954927235e-03,-3.511616520396056151e-02
-5.319980064806708459e-02,5.816261017425520402e-02,4.574484313307657091e-02
5.668190072087197356e-02,-9.371028827551407606e-03,-2.340347231544507786e-02
-4.487401648675667931e-02,4.878498040705149530e-02,-8.083538737070143643e-02
-3.806441921221292990e-02,3.080104571923950388e-02,-2.627828826316743957e-02
8.870040775758130519e-03,3.318962735326926733e-02,-2.250458136427606944e-04
4.271932088174651421e-02,2.511501863470992635e-02,5.377375924045679073e-02
3.530483862509264936e-02,5.026838408528422342e-02,2.854721907958152841e-03
1.585750867582769869e-02,4.241235226082244042e-02,3.266572056785986555e-02
-1.691695741686942986e-03,1.297333759399814899e-02,-7.177788659796433685e-03
-7.741777566218338742e-03,-2.446647039475013941e-02,2.150905275745176176e-02
-4.634119625943237952e-02,-2.234496436079529830e-02,-5.742775627701442176e-02
1.619797768747322994e-02,4.050794725867712387e-02,-1.255071436544677975e-02
6.459760981751268283e-02,4.736396903282889120e-02,2.860272948427116171e-02
1.518206454982904720e-02,-3.777175502698451592e-02,-5.989573829530996096e-02
-6.322730154953515314e-02,-1.501165154617239853e-03,3.750231909086721577e-02
1.024892498706330007e-01,7.111909128905843924e-03,-5.592107746239276256e-02
1.554612900906840629e-02,-1.197403896289272844e-02,-2.278584184219234476e-02
2.134090684835348792e-02,-1.690901165236231504e-02,1.263888951326187088e-02
2.018804562291841992e-02,9.094484418453489816e-02,2.790866360605959162e-02
-1.163604071179607895e-02,-1.110539606806629697e-03,-4.890223692256966820e-02
-1.197088586790507421e-04,-5.123138013366724391e-02,6.135260971964137666e-02
1.319967074259951675e-02,5.031325745210062095e-02,2.051207660002697317e-02
5.521874671816599800e-02,-2.592526923775433090e-02,3.399868367896038621e-03
-4.053755142783935228e-02,-7.690005016830159246e-02,6.662360153702637233e-02
5.156349944149198061e-02,-4.730161603432788547e-02,2.287385550742164486e-02
-1.518862584056740635e-02,-1.750993128466792059e-02,1.903664606704132817e-02
-1.240028973090796620e-02,3.007702190941459464e-02,3.731400617834300382e-02
-2.642085100471952552e-02,6.902679921805110475e-02,-1.796725560954637313e-02
7.496816004077084053e-03,5.145777244199896405e-02,-6.538517108057074340e-03
-8.777515221323103564e-03,-9.926764095519019504e-02,2.171829978935008523e-02
-3.224437263187479585e-02,7.646799161190152849e-02,-9.552526701708008092e-03
3.108228510316498466e-02,7.900179668324626425e-02,8.979284789861326221e-02
-1.861137863485703633e-02,4.492070753551109796e-02,3.797788008031824630e-03
3.502625421484700102e-02,3.107455758155943867e-02,-2.811484738472413633e-02
-1.037266078645387481e-02,-2.286182720246224612e-02,3.055624637304366759e-02
1.519934744702569791e-02,5.276670730504219586e-02,3.433124256291764792e-02
-5.040289082110054313e-04,-1.188538418644242631e-02,-1.505603660433791312e-03
-8.176961606375762748e-02,-1.365158571445912808e-02,7.128201614381661499e-02
-5.512254340022891552e-02,-6.405903561875188335e-02,-9.288558009957028835e-03
-8.108749100890567940e-02,3.255135552982620778e-02,-1.433404820839999372e-02
2.065964804578231465e-02,2.371659965415215746e-02,-5.504858156751756167e-03
1.083843717625071999e-02,1.898212819301097615e-02,-2.460524958006801363e-02
-1.245852964227871403e-02,-1.852992209485514880e-02,7.203757252184011389e-03
5.424109722749039311e-04,4.230782348136449128e-02,-1.492673991660645877e-02
5.167767181055275133e-02,3.700259226519762162e-02,-2.581725549882923562e-02
-8.094055691070682623e-02,-1.348841595876071992e-04,-3.199964363096189507e-02
-1.509606425389839468e-02,-3.651289241174558026e-02,-2.598692680427847849e-03
-1.894328447223910666e-02,2.205415084008894092e-02,-1.774736568880192628e-02
-2.250173660112142482e-02,-7.865136789049788357e-02,2.165727067499537313e-03
7.806820584883135752e-04,-2.881472498018043324e-02,-3.614201619982354563e-02
-1.947967975601952451e-02,-9.483007618922431603e-02,-4.186036867884405238e-02
-3.149025146518216745e-02,-6.568066418223238168e-02,-3.013023905240703668e-02
-1.144950718541139049e-02,3.677598745836459238e-02,-1.950349517109786421e-02
-4.967439421212856837e-03,7.265536650317373779e-02,2.237561619898040949e-02
-3.827294797572104029e-02,-6.885912536727334388e-02,-1.055807676458850319e-02
9.578574833738318084e-02,3.394530364990173965e-02,2.431704557450008880e-02
-5.901985945239659331e-02,1.253787159700682496e-02,-2.138731151255987908e-02
-9.768742564176424725e-03,-1.839206351155295988e-02,5.768125853994503401e-03
-6.961880850117634079e-02,3.802384349744634962e-02,-3.355623450169267774e-02
-2.916302111143564274e-02,2.560930916741046420e-02,4.875753373812496613e-03
-3.925949003422037065e-02,-1.927975896904955341e-02,-5.046903683507477506e-02
3.724346978742159274e-04,-1.870324299019339442e-02,-1.244540919732377640e-02
-3.861636010699501242e-02,4.053457189891580825e-02,-3.646022036978909149e-03
-9.639572197165310885e-03,-3.312306373529330661e-02,-3.599663809059754083e-02
6.749956131713557260e-03,-2.532270632522679293e-03,-1.797412077296752951e-03
-5.094490866723262040e-02,-6.082783883351572385e-02,-1.295317449843221003e-02
4.765009506810816142e-03,-2.543340994942774880e-02,6.322578374536731716e-02
7.175982416317799872e-02,-2.834330253832269622e-02,1.188152853472766723e-02
-2.779875433041238512e-03,-2.386621237160291287e-02,-5.744549699723508485e-02
8.709538925302354878e-03,-3.933058916307465708e-02,-8.169964460769331416e-02
7.009963940864009924e-02,2.519043456572710865e-02,2.240204222509441928e-02
-3.227692772273510480e-02,-1.135622704359015404e-02,6.839662396558826574e-02
-2.248301193996038103e-02,5.658272190263016060e-02,2.095024553916903162e-02
3.716373891447925792e-02,3.065861209816541331e-03,-3.590927440264519294e-02
4.418370390853631341e-02,-3.385173087814018905e-02,2.759194966324946680e-02
-1.149833265289929018e-02,-6.996033640941833054e-02,-1.915174596597990150e-02
-3.547657539471155835e-02,-2.556799532469300820e-02,1.043331271571672561e-02
1.995746409012229619e-02,3.026126317074975119e-02,6.560302211775594951e-03
-6.042360332120034344e-02,7.644367466768114960e-02,-8.709424423349849953e-02
3.648468180937941563e-02,7.409093679666188190e-03,-6.459155645554494340e-02
-4.714512726889844019e-02,5.211308165577178964e-02,-2.341766737211148364e-02
6.351441297001236830e-02,2.444692026356633588e-02,3.217300285400979953e-02
-1.807255256922776429e-02,-4.896669318328956272e-02,5.190703995275433753e-03
-9.640232978507620731e-02,1.959458581881529105e-02,1.523842254759102087e-02
-5.527431451625389874e-02,1.476784477854197267e-02,-7.230131365246568118e-03
-3.701578666905131626e-02,-4.532879453896013905e-02,-3.066484883646405230e-02
2.920793975461289955e-03,-9.112598335591776122e-02,-6.256745036194487353e-02
-7.039419016957734580e-03,-1.338511294906211124e-02,-2.082827512745956053e-02
-2.566251810478428763e-02,-4.342850927577229965e-03,8.977979135882290310e-03
-1.192371517445121052e-03,-2.760436323370055178e-02,2.806396078146661949e-03
-1.758716403325146643e-02,3.535892360722026149e-03,4.364959456621000933e-02
-2.527182289478805549e-02,-7.740488445337885721e-03,-3.995344571807483980e-02
-1.997289743669690767e-02,-5.193122824693352339e-03,1.978788617388842555e-02
-2.573403295556793771e-02,-1.320528083161325028e-02,2.728215669367084484e-02
6.462725631467235166e-02,-1.400077912866741622e-03,7.778422923858192839e-02
3.208499665134421919e-02,6.616206047081552022e-02,5.014484318535249174e-02
1.078731432691328457e-01,-3.547917475647850011e-02,-4.528331966306876899e-02
-9.902928488448334288e-02,1.406947417349528433e-02,3.942070582300039039e-02
-5.608877880200174165e-02,5.347013606031186805e-02,-6.359432578357708879e-03
-3.573867092172614696e-02,2.501153203811772464e-03,-4.651933286111378102e-03
-1.025080009692735383e-01,2.999647246266382537e-03,-1.969962910682535387e-02
1.237038725368946879e-02,3.589144628833967898e-02,1.412133027769903182e-01
1.183860243759768116e-01,-1.386674667568247969e-02,-1.447838307948096960e-02
9.816804351030633535e-02,2.450915299643048259e-02,-5.540390115883889882e-02
1.863498751385590790e-02,-3.398784134572768734e-02,3.599094908130585652e-03
-2.284886995863997898e-03,1.018992250544530249e-02,9.104735602877942965e-03
7.017289284646974212e-02,-2.073088216111828100e-02,4.513741734816437839e-02
1.798423314067734008e-02,-4.578090211649559621e-02,4.627846091465087630e-02
6.126937152740458137e-02,2.008963879167678657e-02,7.553763051324946520e-02
3.325301791003714477e-03,-4.239330732727905615e-02,4.852460226581109537e-02
-7.750421509628639682e-02,-2.732618354353426662e-02,5.493899718569487944e-02
4.963585014049524263e-02,-3.857374854576331447e-02,-5.369970163761541432e-02
4.061770705177640550e-02,-4.268732206172175594e-03,9.837180978179156220e-04
2.246075169673924024e-02,2.029182367218173005e-03,3.655770654177430568e-03
2.447790761210992885e-02,-1.653924939386741330e-02,4.595048058342340869e-02
2.653258880165537334e-02,-7.264802466652640900e-02,-5.654421846867792312e-02
2.849751211530161463e-02,-9.911458250758793664e-02,-2.029836359031541443e-02
-1.739970348760182597e-02,4.036156749689043949e-02,-1.196085449324361429e-02
-2.075619021316797361e-02,-3.280298469662030342e-02,-2.155367873408978868e-02
2.548328404022907195e-02,-4.599350340317496372e-02,-3.391788038402695354e-02
-1.391204686911957922e-02,1.202693082092002319e-01,5.799696853916680439e-02
-4.138061330026931994e-02,-2.054718491443798228e-04,1.225226180138717057e-02
2.727706601822242269e-02,3.058389165885768562e-02,-1.001906584589633137e-01
-2.016658863021317249e-02,-1.491314503384815957e-02,-1.316335879858041361e-02
-3.104636535105846640e-02,5.874779407500656248e-02,-2.932900675433402007e-02
-2.035835797209960621e-02,3.282869462095960346e-03,2.570326530869723042e-02
-1.462723535249070388e-02,-3.827970880667758841e-02,-2.487405096927236200e-02
-5.715613667310915497e-02,7.886544665088571562e-03,-5.598325073846906370e-03
-3.399038980291390222e-03,5.574373848845571439e-02,-7.170238654839056029e-03
6.633364416359585625e-02,-4.917017290053371514e-02,-9.443428322946617604e-03
3.221372426343731971e-02,3.495626777702873916e-02,4.086422794853658731e-03
9.511384652055258904e-02,-6.044168699219686774e-02,-8.116910219622118505e-02
-8.257697669705505936e-03,-6.227227231642207261e-02,-7.947708833724175144e-04
-7.769093502967071296e-02,-2.945591712401111201e-02,7.584459338477169896e-03
-7.988698038960996561e-02,1.244390487013307192e-02,4.299412376784597645e-02
-9.829664548982566807e-02,-1.928891312134787053e-02,-8.380804073470987658e-02
1.551381032643814502e-02,-4.438765420758701563e-02,3.412599847533212983e-03
-2.055406088946288082e-02,-7.428878296000294978e-02,-3.825751468616541556e-02
-7.314239409494839583e-02,1.864646776943081410e-02,-7.558979120773370863e-02
-2.887583836163010176e-02,3.333022991321089867e-02,1.842501128044632744e-02
5.436978163931079945e-03,4.886325058517029286e-03,-8.588204247457088131e-03
1.243877764076025544e-02,-8.929063741789673714e-02,3.300194933587408813e-02
-2.928584126119674821e-02,-1.243358275154055753e-02,-4.602325812979519981e-02
-1.317644543539294583e-02,2.117895523188622134e-02,4.480510956522562593e-02
7.178512836666506303e-02,-6.627778960091874026e-03,-6.356718979734601871e-02
-9.126515386363128965e-03,2.217600760996501358e-02,-8.320498946583486377e-02
2.721594639605223048e-02,-4.205811216279787407e-02,3.083281053453610851e-02
-8.576625675600632603e-02,8.195770911028082625e-03,-9.640892269013070365e-03
-2.022269443266804662e-02,7.639661520237024661e-02,-5.299141299627449508e-02
1.003532857113143516e-02,6.212333798608218405e-04,4.778098737964668608e-02
-1.606508512484872142e-02,1.034909420364369115e-01,9.007188249846663497e-02
5.260717166491991892e-02,7.850658785903205650e-02,4.961605729717551150e-02
3.926514837562939536e-02,2.737394964410224188e-02,2.493335901096965443e-02
-1.776541450205599421e-02,-6.389666652716047279e-02,-4.938320730686610776e-04
5.893959614368932814e-02,1.487867617651945223e-02,5.688146551355386521e-02
-5.483296678136501123e-02,-1.749003432415108250e-02,4.034841363246284562e-02
-1.019242668919749517e-02,-2.154799783345806227e-02,5.695439901007547101e-02
6.078558237590308069e-03,2.088311330320366532e-02,2.073372267452749940e-02
-4.046931165398173769e-02,7.616818784816790575e-03,-6.263490004950335310e-02
-1.447332158796335935e-02,-3.386637567399853471e-02,-7.302188076926113824e-02
1.505212993847054176e-02,4.535506920246695078e-02,-3.534476634525192396e-02
-7.761953505860567926e-02,2.108466060667026423e-02,-2.651821475481429269e-02
-3.236055932637409843e-03,-9.661765998579921466e-02,-1.700782216722700538e-02
3.760318543558977683e-02,5.126979583607611801e-02,2.209650944805273409e-02
7.142625198577235920e-03,3.401904753249235941e-02,8.083364062988662724e-02
-3.181051524844771133e-02,8.371306336788800206e-03,-4.983791707400803822e-02
7.838195102993654462e-02,-4.230490553635850304e-02,-1.376769578881682256e-02
-1.867648897469960725e-03,4.283209611956832058e-02,-1.019799317155572205e-01
-1.824585638778159630e-02,1.969932109325032640e-02,2.162257649243122873e-02
-3.053404986915094974e-02,2.663877175144928333e-02,-8.683161396993172715e-03
-4.214530812832147262e-03,-2.573220134380507090e-02,-6.290409067788070574e-02
-6.897557087129700497e-03,1.570126359341155950e-02,-2.791253457173068983e-03
-3.166340812055609688e-02,-8.092561373439563499e-02,-1.255917148712306329e-02
-2.396607242879822061e-02,4.033344101059412046e-02,-2.478889389707953153e-02
-2.467736318067010118e-02,6.123389488841331912e-04,3.591688706920316554e-02
4.756566622060945382e-02,-8.734434273470216212e-03,-3.835365772218412347e-03
5.235061121137343787e-02,-5.077793853724712342e-02,4.960936237918406322e-03
4.644792793367507472e-02,1.114079391532251176e-02,8.801048337870109178e-03
-8.024694968554690194e-03,-2.767218086505339805e-02,-2.904898186517313255e-02
2.853270623002093082e-02,4.784275205836396178e-02,6.767455767704835812e-02
7.559908828484232339e-03,1.703585927669101774e-02,-6.499425181659425343e-02
-9.731950784008236432e-02,6.571090905790137604e-02,1.856752335584793061e-04
8.298690917365859898e-02,2.742786740476836974e-02,-7.920797683862665362e-02
-4.911034135464533573e-02,4.948858763407151286e-03,3.046865921509465253e-02
5.615113629391339095e-02,-6.285305758277495713e-02,-4.522089387764387236e-02
-1.065395240695123091e-01,2.090432697125540334e-02,-1.862795762729433854e-02
-2.925911767935974669e-02,-2.838616486603777207e-03,-3.354583749982473911e-02
-3.247239613227762695e-02,-5.783414487448570833e-03,-2.436910624147718349e-02
-2.908505479400731036e-02,3.339597338892438816e-02,9.658450428278507471e-02
1.123475775038866933e-02,1.339737429769228411e-02,-3.408527527934191587e-02
-1.357184086251383634e-02,-5.301916833877887841e-02,-2.668686691436050404e-02
2.744046121349800332e-02,3.383868404846072930e-02,1.109668009682451308e-02
1.238389709916737358e-02,6.128471716321439583e-02,-1.057024628876374961e-03
1.628529768738156986e-03,1.722665298517937413e-02,-6.372331139004686062e-02
4.669327959396700999e-03,4.183010610795137585e-03,5.175764105728090925e-02
2.430095299566274042e-02,3.613032791286846512e-02,9.289130638548050156e-02
-1.093617513392379365e-01,2.001210182758058481e-02,2.451942097766000167e-02
4.758050907261771739e-02,1.494226240002781946e-02,-2.273366447483078992e-02
1.035796868100064515e-02,-3.321656935177504100e-03,-6.199532078728178103e-02
6.264566347938717826e-03,3.381459300332795986e-02,4.984665045292337865e-02
2.792631760113224379e-02,-6.539847964508775646e-02,2.562104485601955726e-03
-2.941522137540109744e-02,5.672464867318006282e-02,8.970499897321940544e-03
-3.353049613959444789e-03,5.300498144790470600e-02,-9.961482849735145417e-02
9.326519329969776284e-02,-1.132460919259967516e-02,4.760818712331738728e-02
-4.406407259851417846e-02,6.116771220936868814e-02,9.316023519928513102e-03
-6.613245337480802566e-02,2.617745169343392575e-02,-3.208788028394563702e-02
5.984775193251404973e-02,6.592446006333588238e-02,-1.064912327652208467e-02
9.905398021883936657e-03,4.869019893233796428e-03,-7.135529458678098805e-03
-8.588062751182647808e-03,6.592815750777540618e-02,2.719376184558919708e-03
-6.007899119089283452e-02,-1.749662992975856190e-03,-3.976931495504181652e-02
-3.232063143839599556e-02,-2.442576094757047470e-02,6.618940022870256623e-02
2.245110794993595074e-03,-2.517193977168833210e-02,-2.056017885612672867e-03
-5.022550979309386987e-02,8.039125908460688363e-02,-3.230049832655873532e-02
-1.554989488718263105e-02,-1.269875840920274279e-01,2.197532706307057243e-02
3.236663867525980259e-02,1.296538222154916195e-02,-5.442159395249322740e-02
-3.245837837290410643e-02,2.786745451143901597e-02,-7.710737009059953628e-02
4.440607217448479943e-02,-3.856076547260835902e-02,4.260635989363434351e-02
3.943482088537677427e-02,3.582652249457048306e-03,4.600813700054533911e-03
7.764455017345255061e-02,2.551060630916559060e-02,-1.148505628440234377e-01
6.073250759065155872e-04,1.055026050383352405e-02,-5.344996090479926104e-02
-3.980562799198372054e-02,-3.720329554313177908e-03,-3.154771937853132185e-03
-4.816327580144696627e-03,-9.812804893613100155e-02,1.738868963475654131e-02
1.799539362857506888e-02,4.870196113088909318e-02,-7.741434507688246813e-02
-4.705771344741808970e-03,-4.458799232627029541e-02,-5.486713435817703460e-02
5.927667398451047509e-02,-6.952274810210348072e-03,-2.848642049340338947e-02
3.857838719257423304e-02,3.488551155379530228e-02,-1.281460820238656574e-02
-2.712863397027979323e-02,1.398162300590300409e-02,3.448146149969962687e-02
-1.157581654720960321e-02,3.110268065036452326e-02,5.822127853225397831e-02
2.502126888907267935e-02,-4.466158473471008167e-02,1.736077979749724165e-02
-4.224117336207070320e-03,-4.649172859264919661e-02,3.344425519784927775e-02
3.074586322789658096e-03,-3.947548677705246117e-02,4.379504888805865748e-02
-9.841262969705577915e-03,-4.261300153928655396e-03,1.820821473434067542e-02
-1.263285635762505590e-02,-2.278749959893377683e-02,-1.721765049142201867e-02
3.234297039214541897e-02,-3.365207197123985805e-02,1.509217271666543278e-02
-2.401559951960587774e-02,-7.056261838818273825e-03,-1.491178753666934321e-03
-8.544903000102042900e-02,2.827503157602481720e-02,5.892593525663897269e-02
6.012844875021750718e-02,-2.101557837499246420e-02,-9.136995488427850434e-03
3.370525341289163507e-02,4.565233192643795845e-02,-6.449021402782233181e-02
-4.032587647365187822e-02,1.903031530843370817e-02,-6.796446984293882942e-02
-3.797984486409319849e-02,-4.163939705248844575e-02,4.049952048278376154e-02
1.301153750469938308e-02,8.061949993283452562e-03,6.868910896595216420e-02
5.407982090073740894e-02,1.232864243731146905e-02,3.794044337168265418e-02
1.345938735302921151e-02,3.737451234256085331e-02,3.866764204284754702e-02
-1.390189231893260895e-03,-1.747133478705468687e-02,8.083176760869725808e-02
1.351687049676644770e-01,-3.683835260835913519e-03,2.343425025060347222e-02
5.665848730486556378e-02,8.778227249457212777e-02,7.485512137246835146e-03
1.878054745715904486e-02,-3.414896832370105384e-02,-6.499495009335959361e-02
8.289526650080836570e-03,1.794858027860978325e-02,4.779626599222359939e-02
2.412017689326471925e-02,7.946219094354689538e-02,2.742518301106167122e-02
-7.455959456881575825e-03,-1.795537417481227541e-02,2.856647486823207533e-03
6.996673697272222381e-02,2.898190243543398437e-02,-1.839878079358625226e-02
-2.851798294890668314e-02,-3.055529551904759972e-02,4.788645786906185059e-02
-3.356448910093470100e-02,-9.281224944616345285e-02,-1.020971970547862769e-02
-3.159162928292612998e-02,-2.154489641241357639e-02,-1.547449174440093016e-03
-1.702288907955276653e-02,-1.068673414512500558e-02,5.352023400418639415e-02
4.205354323444957659e-02,7.259992612424716329e-02,-7.347791056513072738e-02
3.014427091979837020e-02,-3.451964204120796381e-02,-4.089247016420435865e-02
4.461844461788636376e-03,2.749184505176880539e-02,-3.918655733514662953e-02
2.764473365830097742e-02,5.350976653330369315e-02,1.976709870324424613e-03
-3.185649256451288103e-02,-3.331659538675248861e-02,-5.561687017474823726e-03
2.018653714343213168e-02,-8.149318743606151494e-03,3.633679180229873462e-02
-3.834522140634736426e-02,8.447374892713951922e-03,-5.995494198034476141e-02
-3.105824763676028055e-02,7.193990965932219560e-03,-1.931957501364512525e-02
-1.898937196399043056e-02,5.750773790515083944e-02,1.802704479755636068e-03
-6.515604225880432254e-02,-1.707394687286547738e-02,7.168803328311776357e-02
-4.285595558729250742e-02,1.564446529795148269e-02,1.940567778484400888e-02
2.918334464196805506e-02,-1.120703770085647727e-01,2.910235343805386149e-02
1.157396147409635621e-05,9.383857172846667150e-02,-5.363407128179029093e-02
2.864053778598746672e-02,-2.915017558227162367e-02,3.014953897213623613e-03
-1.437265019327813899e-02,2.968442943394374728e-02,9.847940908363451984e-02
4.800092281816167178e-02,-1.518576465640307169e-02,5.636436799478783399e-02
-1.608881497706757258e-02,-2.025788110084163554e-02,-3.391248509811481404e-02
1.152574666743685916e-02,2.750928856102362319e-02,2.340132235160774510e-03
-3.294704553399180336e-02,-2.248503600660081356e-02,-2.255657109093430965e-02
-4.005880908386588724e-02,6.845395493364957173e-03,-6.894656534100924994e-02
-6.664769751404302223e-02,-6.440345863584158448e-02,6.576578353185687231e-02
7.705474029963339799e-02,-1.648377762866047591e-02,-1.503754652204344032e-02
1.765586812404126849e-02,1.434666938493836356e-02,6.151746074477213583e-02
1.065336551968358234e-02,5.876812148585348894e-02,2.472053830882296743e-02
-3.322625778300204030e-02,5.789144071538692045e-03,8.402962269611468499e-03
4.102380646502735290e-02,1.017662166743988073e-01,5.951902188210725364e-02
1.249635991134165486e-01,-2.971277848784754580e-02,4.821759793489661938e-02
-4.902387049387871981e-02,4.155106161398209458e-02,-2.774636780917883946e-02
-3.093637525696447520e-03,-2.410205892313620896e-02,-5.397578224855886786e-02
-8.206541709795516990e-03,5.498024421923257410e-02,6.035916171163446808e-03
8.157951859215929746e-02,1.193860074918581295e-02,3.566416413932166352e-02
7.979700907441358848e-02,4.247845339778697632e-02,7.789359709424310135e-03
-3.425724126950898535e-02,-6.512742647064209689e-02,1.330459759100847158e-04
-3.099299824339893459e-03,3.514303291956257652e-02,-6.059153251975363946e-02
5.362314792258362356e-02,2.468011099413857518e-02,3.208570317477121847e-02
6.253636029988528244e-02,6.161062756310434207e-02,3.803392930004152739e-02
3.878023726926551479e-02,2.855813904675466586e-02,-2.207016916678266119e-02
7.280391933861037057e-02,-7.731578922193524384e-02,-5.109980745487509302e-02
-3.709620361710600639e-02,-9.140649407662557180e-03,2.821499796449737987e-02
2.271459151331915727e-02,4.277412279486269599e-03,-8.363552672484982076e-02
-7.570906002906636900e-02,-3.468917498548431885e-03,2.885774953308286109e-02
1.188216463169797094e-01,1.930102109271691901e-02,2.083143834923684336e-06
2.714139627945785782e-02,6.505454296423779370e-02,3.154931504309843593e-03
2.080210860762020039e-02,-9.674318287757187329e-03,2.305087384771122342e-04
1.677245418521182765e-02,-1.006120210563579524e-02,8.034880930227740470e-02
4.927241461654890964e-02,-3.487160375994827893e-02,6.480884466789346710e-02
-5.806539030337710267e-02,-1.828396088650620019e-02,-5.027335014700578392e-03
-1.350581792223120789e-02,2.523194383294087226e-02,1.561186815916603375e-02
-1.219535310209225731e-02,-5.613848188343481538e-02,-2.577598001202532560e-02
3.757643103051772765e-02,-4.875167763769389442e-03,2.071666508690924932e-02
7.124891674884616458e-03,-4.057643575764120943e-03,-2.755099823556698101e-03
5.503120080123016788e-02,2.279842224254048730e-03,-6.105557315691647474e-02
-2.826593297667104668e-02,-4.175931319660432239e-02,-3.382311021374692639e-02
1.568719603931133244e-02,-4.036001270896746179e-02,2.104963320340600547e-02
-4.255278684227386393e-02,9.676234386138271235e-03,-1.366117245474389973e-02
-7.191443825331143326e-03,3.025108691936000127e-02,1.524807240890432500e-02
1.328749340285767695e-02,3.914201507015895032e-02,4.995198479695916322e-02
-1.646841340116214289e-02,-1.501097559923337058e-02,4.527450885032545391e-02
-1.676672473726929444e-02,1.947929572520617700e-02,6.784877739762595894e-02
5.687366151473666198e-02,1.172266357576338264e-04,3.896998177639639238e-02
-1.682052898125616439e-02,6.872696483911940220e-03,3.035658268894109862e-02
9.052356189781683715e-02,-1.592023679930391553e-02,4.503254024738985450e-02
-3.867395555115367423e-02,1.134672277035921745e-02,-5.299681680903774866e-02
5.411429524525781382e-02,-2.903249243921959474e-02,3.756561942007684285e-02
-8.257770390071619837e-02,-6.800994495882793645e-02,-1.548713655063306885e-04
-5.742693769980163065e-03,-2.465981995838570362e-03,7.081859864792856840e-02
-7.711900835137712289e-03,-7.188493782536894972e-02,-2.082957009098866316e-02
2.341108872193573345e-02,2.074036158531814347e-02,-1.850619565785438514e-02
-4.568580046273459233e-02,5.914671987453135049e-02,5.801043300982499512e-02
-9.226292096065256965e-02,3.371579476490235011e-02,2.681084867709556362e-03
-1.741237774956095816e-02,9.528743054172620491e-03,-2.913568669795812971e-02
-4.070673568479121068e-02,2.426520313401964168e-02,3.516111263638711792e-02
1.960821090408960271e-02,-1.968956271706194180e-02,2.588420063306865609e-02
1.936968144791089558e-02,-7.377977687560630105e-02,1.306966663099257695e-03
2.341046237286212653e-02,6.014328448689894302e-02,1.954322686823832880e-02
-1.151994999434323083e-02,4.451758558854340513e-03,-5.199342912458128352e-02
-9.334706217560908431e-03,1.206235743643833437e-02,6.466319289749195010e-02
2.121928297831942450e-02,4.530209175528376875e-02,1.692940595546232538e-02
-2.589016046805401802e-02,-6.393922067641480411e-02,5.766448152026727725e-02
-4.792775233677108032e-02,9.991645502373643073e-02,-3.449850007652863204e-02
-8.402684282167970087e-02,-2.327422323631481854e-02,-3.717552331189271503e-02
-9.776997424283724591e-02,-2.304040785984980827e-02,3.900169710953297741e-03
-5.850047460388491799e-02,8.255305384149606851e-02,3.794109382402546804e-02
-7.708687745033074301e-02,-5.186947832022479471e-03,4.859577992475212598e-03
-3.916917246342179089e-03,1.720837073355879114e-03,2.502864395111055462e-02
-2.677532890654795578e-02,3.776996040545670813e-02,1.333908313850006716e-02
1.540173704373644370e-02,-5.716904791606738229e-02,2.122014651556063808e-02
1.024506434420001215e-02,-3.265997775826927352e-02,-2.630544603548980176e-02
-5.661232226672666124e-02,5.803141200560497232e-02,1.097493084105938266e-02
4.009774031349320339e-02,-4.475659973456491518e-03,-2.705498839913839104e-02
1.303705710130121341e-02,5.627755744937226051e-02,-3.990909558259915675e-03
-1.103571677516744683e-02,-4.823032501629566371e-02,3.330747920371349147e-02
2.079586063018908082e-02,6.835002938971107556e-02,5.004042054021110020e-02
1.699778194787626359e-02,-1.589441377118485862e-02,-2.479041069601407507e-02
4.972730530886597389e-02,-1.529588635243438015e-02,2.085417396934552761e-02
7.582050797092645261e-03,4.024891522442667485e-02,1.334437502663506254e-02
-1.596765317735696424e-02,-2.677938566217544919e-02,-8.754100487938054620e-02
5.932220296309924368e-02,6.250055948645083514e-02,-7.902993848507454400e-02
-1.519505732715370309e-02,-2.196977799027119774e-02,-2.801835785204461957e-02
-8.590145976306083619e-02,3.480803401393116336e-02,-9.710995074224714960e-03
-5.314763349006975529e-02,-3.290641830161417786e-02,3.727891422100666069e-02
-3.335100951020178450e-02,-2.454749312294910932e-02,-2.723180287195783172e-02
7.729186992826296565e-02,6.847792166363864119e-02,-3.965024903926055166e-02
-3.140138573877935407e-02,-9.641469601311469101e-03,4.541391714524570938e-02
6.390477379508177798e-03,-9.285926279305446729e-02,5.820817897207503436e-03
-3.506032343867083317e-02,-5.630828168974404829e-03,-3.875799195484326077e-04
-1.376205647267952914e-02,-2.349262466863537291e-02,-3.204882343335573557e-03
9.476115085684829256e-03,8.863720209812987749e-02,-2.294410815635772316e-02
3.983125610549616280e-02,1.339097798747256735e-02,-4.943202858544559070e-03
3.216982722439898357e-02,5.398332758169257888e-03,1.136179644490722951e-02
-4.401289390797903656e-02,1.997845308607750295e-02,-1.276878165755938183e-02
2.569165649368653284e-02,2.062083933585458217e-02,-2.187729242398010754e-02
-1.657308531611379268e-02,-1.237589586527569271e-02,-3.758594235949386242e-02
-2.148650189503216110e-02,1.983573699331974902e-02,-2.917226603077728228e-02
1.999237001553500273e-02,4.466171740676549984e-02,-6.918344302028742177e-03
6.947819904934396558e-03,1.841089612463767382e-03,6.752510406678630117e-02
-3.053114196626405610e-02,4.199749297243295099e-02,-1.229701141360005183e-02
4.944329964908895925e-02,3.485144218349339393e-03,-2.544372336808965740e-02
-5.570923686947444609e-02,5.926626816262647174e-02,-9.093623939641231908e-04
-1.884925762780351221e-03,6.257104507809808924e-02,-4.406381208744593325e-02
-8.543230924350560251e-02,3.628223585609029189e-02,2.732689384043595834e-02
-4.369178309867809834e-02,4.616471803144094749e-02,4.828847413791421961e-02
-5.369347980163476086e-02,-2.377911982162313892e-02,6.763648441658778876e-02
1.077159798631948384e-01,-4.131218256175848286e-02,5.589968837525282480e-03
-4.722278367450430392e-02,-1.719670412617655200e-02,-5.313127471046210498e-02
-4.770084205800648874e-02,-7.626882023016534617e-02,-5.245636011848014979e-02
2.973577943314420144e-02,1.025486149538274577e-02,2.530712691243581017e-02
3.271815219771936900e-02,3.396988436378414397e-03,-3.124580201453633008e-02
1.294195060991584594e-02,-9.006782714074981072e-03,-4.501749768085813036e-02
1.928339754506480305e-02,-3.153220814623679258e-02,7.939236797398924184e-02
8.834507763323790064e-02,1.046537972545401457e-01,6.823356124972580761e-02
1.494447783315846351e-02,7.037881658584044242e-03,8.188398173950145464e-03
1.062791708894847116e-03,6.821230514797743671e-02,-4.571540452935589360e-02
4.034194008472656579e-02,3.099789954254418209e-02,-4.757287023300833112e-02
6.575752224233485758e-03,-3.713946709688499548e-02,4.141851346911781806e-02
4.683783020418843396e-02,9.644379421547319420e-03,-7.596599890780444952e-02
2.264359162463939340e-02,-5.553078410832627820e-03,6.455668370997122429e-02
-1.242319027890458061e-02,-5.216323404269349734e-02,3.286480941260808836e-02
3.407959777419839603e-02,5.776684243988373241e-02,1.402229278142036115e-02
-8.308934840999034760e-03,-1.122255518654960010e-01,-4.372613899089622218e-03
-4.416831809064419162e-03,2.000900864763723638e-03,-2.795716990043129596e-02
6.376341078908909221e-02,-3.837072032801262800e-02,4.860376589419480170e-02
5.374305224681780874e-02,-4.891372146543578221e-03,2.349800450622861400e-02
3.005493030142480666e-03,-1.937945476443325363e-02,5.478610393063996359e-02
-2.639480683344787304e-02,-5.101131318604274628e-02,-3.027186888452938068e-02
-2.640730508293832185e-02,-5.322146921065509795e-02,6.433784894829114309e-02
-2.253755532840915829e-02,2.991444833071957646e-02,1.869558947686503908e-02
3.142787944178124931e-02,3.551439216114751773e-02,-1.643032949046641794e-02
-6.103238293377863388e-02,-2.536003196688505976e-03,-8.105068443599906802e-04
1.951861953132532149e-02,3.592926103995759679e-02,-1.111899307805989424e-02
5.511690137120934911e-03,-3.297890199815921297e-02,-2.841700029157769730e-02
-4.596651955697710068e-02,4.211033016388172900e-02,-3.406175848691674057e-02
-3.293117336036079090e-02,1.309269736137651935e-02,-4.279148146885838194e-02
4.659206526581301938e-02,8.745928467181687815e-02,2.051757552014518010e-02
-5.296630873139167306e-02,5.893993905651812720e-02,6.706315988181661691e-02
2.243563132762400186e-02,5.430720849712662723e-02,4.498494741765466515e-02
-9.734394027195411581e-02,-2.325594390623956717e-02,-2.791077617984230597e-02
-2.249473221739435244e-02,2.340801575474912855e-02,-1.757827665636582312e-02
6.162604167499467073e-02,5.498927995078743691e-02,2.225642401923320912e-02
-4.121921515354702581e-02,2.542931762295286280e-02,1.999789204967563142e-02
-1.057718261341723982e-02,3.053400232150404667e-02,-8.150928153002932885e-02
-3.235956134702747122e-02,-3.354562994286402339e-02,2.703955130026988729e-02
-4.402903591859678306e-02,1.224810808604800613e-02,6.661241593561691154e-02
-1.263397584665375663e-03,-2.141624332597450581e-02,4.877236585734812113e-02
5.402279041890774985e-02,5.031888581428606982e-02,2.112302527778315078e-02
-7.332510006443066115e-03,2.553043989895792745e-02,-2.002289744565136954e-03
-3.776640294169582301e-02,-4.947322463084456029e-02,-2.792799742956399850e-02
3.832038545492023884e-02,1.435539058524501477e-02,1.197690828306205851e-01
-7.440711673331817932e-02,-1.841508560054990265e-02,7.963213830481423450e-03
2.058599459538930365e-02,3.992014177078364451e-02,1.667487687442155767e-02
-5.410474547591994938e-04,1.046539637031774876e-02,-5.373897037676055727e-02
-3.328940729918876407e-02,-7.707355054961433083e-02,3.529370214488670998e-02
-3.275488898039027874e-02,6.085016107500380855e-02,-4.133417391177819644e-02
1.053766917814812944e-02,2.431436753727641859e-03,-8.141538347890345251e-03
-4.725905409359304130e-03,1.536811329556500919e-02,-4.578479429610252636e-03
3.975129188425916005e-02,-5.484155942906623546e-03,-8.361635674666230422e-02
-8.456873162152893364e-02,-5.517281756819503169e-02,-1.128212791755162092e-02
1.760080084677635714e-02,-7.715026322786022739e-02,5.220678352287212720e-02
2.107646771349414722e-02,-1.996098331384146135e-02,-2.911886365628339052e-02
-1.442268830557457381e-02,-3.628009970641293130e-02,2.848574309801552018e-02
5.508507375704010944e-02,5.779180949624181107e-02,-4.788610253761418217e-02
5.069958051978175340e-02,4.140108601202170668e-02,-2.994955028619991286e-02
4.366728122083129993e-02,-5.810746705845493826e-02,5.489387737280427421e-02
5.374819281750860961e-02,7.868258794640035914e-02,-3.162671323227572023e-02
1.183655966240212964e-01,-5.021598128963582208e-02,5.354982588445357516e-02
2.883474819359027261e-02,-6.220247038449058102e-03,-1.042419866211002910e-02
-1.556565491546238120e-02,3.107629360379094915e-02,-1.409992834616891110e-03
-7.610538145170901714e-02,1.219572420724129164e-02,-1.734247238094813529e-02
3.049588797976101814e-02,2.286809324982256100e-02,2.213362072100099123e-02
-7.387515634612920601e-02,-2.889585668576850203e-02,-3.907804181187321535e-02
4.278482870279044087e-02,-2.886321142511450930e-02,-2.800373206371323254e-02
-4.921783249719760556e-02,4.956187979821458089e-02,2.597801929776817273e-02
-3.805599799508960213e-02,9.122678445055576457e-02,4.029476965115370152e-02
-6.537497355221572048e-02,-1.931044459069201566e-02,-8.597535652812271154e-03
-7.433374927887523298e-03,-6.885171376467718370e-04,2.323627548658019348e-02
-1.289320950757096712e-02,-2.966125475308415554e-02,-2.549781602040306072e-02
1.863912959876119768e-02,-8.444431408978126177e-03,-7.639427345906629578e-03
1.471730818105056356e-02,1.578283328085568551e-02,-1.831787438380209909e-02
-3.243236177860256073e-03,-1.681877706419911524e-03,-1.063857983860778088e-02
7.242542234532319163e-03,-7.465192525879509045e-03,3.464585789176193031e-02
9.368837655492014138e-02,4.660369074441570586e-02,1.077062127168458977e-01
9.942176263296855290e-03,-9.910975154170109658e-03,1.137719290022419366e-01
-5.992186861336217668e-02,-2.897919232860879726e-02,2.776297999133483727e-02
-3.502474685361590956e-02,-6.544276987614044971e-02,-2.068904798455325350e-02
6.051622636294790025e-02,5.227847694583793309e-02,5.044888249833365951e-02
-6.718450416648258372e-02,-9.049862517936583042e-03,-1.000148864211758588e-02
-3.214645865364255863e-03,3.785397289101005008e-02,4.899811784509322532e-02
-6.080110981377419288e-02,-1.175179163255310605e-01,2.134055962933429154e-02
1.728689343035084633e-02,-2.877354281744912146e-02,7.534462392398837138e-02
2.551008361887761519e-02,-7.394651331328728691e-03,2.971758168678037548e-02
2.413010537645609091e-02,1.842208147642307794e-02,-3.780537563207407581e-02
6.733656994654656572e-03,-4.839908447565646754e-02,-1.788775848564385165e-02
-2.297146416850565087e-02,-5.971994654765964278e-02,-1.879485630062228269e-02
-6.877644519371238496e-02,-3.278505124430926981e-02,-1.293608148149894693e-02
-4.905037013029989873e-02,-3.733187261326046530e-02,1.902084071858971964e-02
5.787300610420686303e-02,6.998445271138063750e-02,4.035794886873085574e-02
-7.228700777508845210e-02,-3.012528560995597973e-02,-6.601192963992819247e-03
-1.406927183006783516e-02,4.780367074878828088e-02,4.479107883047061395e-02
-4.181211750144156469e-02,4.051011437650858804e-02,2.561166512409873697e-02
1.588964239194585321e-02,-7.821409254781118425e-02,5.469638237871227854e-02
3.458938213968681258e-02,-5.839366021018305153e-02,4.003834389242095365e-02
3.549567489746154741e-02,2.476899435910645542e-02,1.796778782070981850e-02
-3.427316135232046784e-02,-2.518936337283625339e-04,-4.197202590840281439e-02
-5.760243113076331245e-03,4.841989601642371355e-02,1.200050987150972324e-02
3.426817123622385997e-02,8.886323565249291609e-03,-4.359298104279317465e-02
-3.173533132763124015e-02,4.405869366358475953e-02,4.243106551887688288e-02
-3.761000605562583171e-02,-2.207231261251828280e-02,-1.001504309223565960e-02
-2.561175356799892319e-02,-6.497278544795014044e-02,-4.872837776222441186e-02
-1.175840194194358555e-02,3.919881095156098338e-02,2.082509709002387105e-02
2.514747958376835693e-02,6.596308398549406531e-03,-1.665758845334756183e-02
2.251488192780656469e-02,-1.780460117912558392e-03,-2.679306823114473157e-02
1.899551284965954323e-02,1.009620333652128457e-02,-3.664564012581270763e-02
8.286769788514518689e-03,-2.366547045887253814e-02,-1.567878402528223580e-02
2.704147475345135276e-02,-2.762795000798452111e-02,9.873540854731545358e-02
5.798642647178195442e-02,-5.484978923677902296e-02,4.797741901118054292e-02
-5.404604324863688386e-02,5.290034397533131122e-02,-3.351378089368606955e-02
-2.599096744448205556e-02,1.092553646554028125e-02,8.207472242833768750e-02
-5.754753982740971885e-02,-3.962660645545729513e-03,-2.583819083825265872e-02
1.095254175834515717e-03,1.356536523140421287e-02,4.644725903382471849e-02
-3.580551982701678237e-02,3.140630431487938246e-02,2.223146550957115497e-02
4.831258237535544786e-02,-3.102339074425423254e-03,6.366675795212843082e-03
3.543314742496960629e-02,-7.740994427518731527e-03,-3.367790587089389276e-02
-5.017703750441269983e-02,3.998684881026293853e-02,-7.988457333919526601e-03
-3.172453815019599804e-02,-4.741554155026372203e-02,-1.700995934710555074e-02
1.204014126150195624e-01,-4.992985504826062682e-02,1.293015461968503518e-02
2.618879872187790392e-02,-1.724042105915616838e-02,3.970457597681383011e-02
-2.736603924514191197e-02,-3.832154629795651163e-02,-1.666256925991358578e-02
-3.605449547660862647e-02,-7.723290707977475099e-03,-4.790741752103639534e-02
-1.197819854693533449e-02,-1.992547860506909546e-02,-7.542242167689770793e-02
-2.341061514641864377e-02,-6.921178096613543607e-02,2.329225870309187263e-02
3.670498923005834774e-02,-5.265292183194871141e-03,-2.053152484571389019e-02
1.687679627812978256e-02,2.758130537980976044e-02,-7.123157945146008085e-02
3.122573502194206027e-02,-7.049942128399019903e-02,2.896150942331199296e-02
-4.447892515683884995e-02,1.002482126950693907e-02,-1.423989001740490895e-02
-8.214058102820263885e-02,-2.337972682300033800e-02,3.137058695750812032e-02
3.647446945273002950e-02,-4.981428936537403429e-02,1.038548096798505007e-03
3.972624841485460079e-02,-5.625067780467917639e-02,2.616630349392136054e-02
-6.449147334972898937e-02,9.002733630269836584e-02,1.907334502714383082e-02
2.919292623667970807e-02,-6.061141213101606945e-02,-1.492458565621342798e-02
2.373531104480310766e-02,-4.625575660181364263e-02,-3.749450126389101273e-02
3.327240870218700630e-02,6.108093594162845169e-02,5.067733832089657206e-03
2.668513156473421508e-02,-3.874917844068242242e-03,2.897429449560856227e-02
-9.602041063513805721e-03,-1.534972673657690641e-02,-2.939973626665264711e-02
-5.812651751015445595e-02,1.692694242233111837e-02,7.242893587223667509e-03
-2.479880425410552203e-02,-1.476843219918162059e-02,-3.825762674219582854e-03
3.382357701080921514e-02,-4.053573104008026569e-03,1.729262589132985264e-02
7.084603376817857900e-02,-7.187610027922804179e-02,-3.357061762997872595e-02
4.548347988645957962e-02,1.654036613337495076e-02,-2.400094460538992891e-02
-2.194789777781935153e-02,-1.336782092630660161e-02,2.578749367391638264e-02
-5.539979097037918410e-02,-3.824179820996796708e-02,6.086296334238143479e-02
-1.084840026817471964e-02,1.746504805519603215e-02,2.941998403870827936e-02
-2.164865214267790508e-02,-4.043829963393204274e-02,3.788310905755242625e-02
5.878765121245899811e-02,5.595220707521931375e-02,1.277063672843913034e-02
-6.383343588114025191e-02,1.111428345513360699e-01,4.992347438894335215e-02
1.096034604027870951e-01,1.876564440946959164e-02,3.821881084051235999e-02
-3.139764534944835400e-02,-4.515818200025535634e-02,3.933783645897876574e-02
3.528150593880285957e-02,5.703013054051393749e-02,1.038445413476132666e-02
5.417718495899163239e-02,-1.954504801649695894e-02,-2.755506346462880188e-02
1.570152589756438830e-02,2.176557020371236092e-02,1.307447882287531282e-01
2.807062460944929200e-02,-2.431418403707739928e-02,-1.254546147217227821e-03
-1.214315363181801659e-02,-2.352426570951808918e-02,9.531795566963165156e-02
-6.106372176302184152e-02,2.423147211796107883e-02,-3.828396348580428987e-02
7.782878711186254871e-03,-2.401388097268238042e-02,6.994660512844352689e-03
-2.849044197935227118e-02,-5.405436541193587435e-02,7.432298785666162366e-02
-5.071490228594860428e-02,-9.469333275634933197e-03,-9.628673862467821906e-03
6.414655938795679746e-02,-1.883847194377565037e-02,2.084255721848721904e-02
7.177440539836910105e-02,-1.451113715577748674e-02,-7.185492527542608476e-02
8.730296867889392187e-02,4.264652884405467116e-03,3.103887790198800109e-02
-4.185362993788055430e-02,1.800633268604296539e-02,-4.188983395237289714e-02
-2.264607240030936872e-02,-4.963652862136373745e-02,1.000973608747251359e-02
-1.268325624477848823e-03,2.170663906502713972e-02,-3.515530587844193245e-03
1.994188039925408676e-02,-9.912983786388137111e-04,6.636148805470458434e-02
4.849164676501969279e-02,-3.815841863977226939e-02,-1.637000406155520241e-02
-4.577600781023689891e-02,-5.523408111216682181e-02,1.068817129212913664e-01
-4.903897914058133814e-03,2.594333270982834838e-02,-2.526821554321219410e-02
-9.128311262625442724e-04,2.232637082026816405e-02,1.947958253839466095e-02
4.582736514482589618e-02,7.559691596789434864e-02,-8.102728226377137188e-02
5.957945641970549717e-03,-3.260273324329916039e-02,-1.196427962146097077e-03
5.413108126314843116e-02,-3.787028026133201775e-02,-3.400817915592036639e-02
3.617566346850872860e-02,8.580685976054090724e-02,-7.660992587189924263e-02
5.821809029008354064e-02,1.311791756825932088e-03,7.869941567725547218e-03
2.358942898255496010e-02,9.730027863028069615e-03,-5.896482672651210538e-03
-8.478821843964550256e-03,-8.430110056089240578e-02,-6.812632687374388374e-02
9.785753706381154424e-03,-7.856655457587374825e-02,4.905632626463914819e-02
4.127587479320584535e-02,-3.038661826871524169e-02,7.403323010406349935e-02
-1.851873083855085436e-02,-1.895966443380963165e-02,3.116522307250999338e-02
-1.666656692835791209e-02,-3.620194560568341501e-03,4.071120576361667714e-02
-3.116081861885480753e-02,2.322815969494244209e-02,-7.873998843485729288e-03
2.360662397879130167e-02,9.741137946792148561e-03,8.980702592002803852e-02
-3.334535028422456332e-02,5.358306819696754403e-02,4.286603405429191549e-02
1.061279834999652970e-02,-6.951935007621901086e-02,4.598228831309577463e-02
3.602160624367507780e-02,1.812738727688228968e-02,7.832307705105423512e-02
3.626907378541003452e-02,4.142900661094624237e-02,-5.074320000688575805e-02
1.364456407004387140e-02,-8.780031962909395221e-03,-4.046544123908998869e-02
-2.231680980020685212e-02,-4.652211301270288424e-02,-1.872481392967739570e-03
-1.960398611903647892e-02,2.690462542393851422e-02,-3.741773973980291185e-02
-1.025163683559336897e-03,-4.369500263682619262e-02,-1.876800290327167164e-02
-3.504338023873813240e-02,-3.689235785713478044e-02,3.412309751441043159e-03
-3.418149515268542604e-02,9.507053838056934991e-02,1.923632820122934614e-02
-3.170383652900064797e-02,-6.099068135689112574e-02,-6.662275118246090491e-03
-2.341883017325058561e-02,2.114290046703091314e-02,-9.173793204807906276e-02
-6.082648337992816422e-03,-3.120861144088491954e-02,5.509121002681768159e-02
-6.557373737086223675e-03,2.901824836262070014e-04,-2.370570195148757886e-02
-8.276115230180697280e-02,-1.257797721969472655e-02,5.584901908774107110e-02
-2.660069356518551462e-02,-3.436305180129767180e-03,-4.653927048890287022e-02
-2.307954036046290860e-02,-4.725761023433021346e-02,1.719559867395806501e-03
5.541677837128078377e-02,-4.495556356617209232e-02,-4.488904110519967294e-02
3.246574045467345848e-02,-6.963626476898836064e-03,4.704391764903687739e-02
2.814284796899104574e-02,-5.474276136783923219e-02,4.405035675022407615e-02
4.274692419001454441e-02,6.369942166697013797e-02,-7.388085674036433403e-02
4.398000471650011234e-02,-4.639010089610850346e-02,-4.005433307174854213e-02
-2.383034296589688419e-02,-3.315562960737676677e-03,-3.268871432877056005e-02
4.713824842211720295e-02,3.836530608763989714e-02,9.213765890828294614e-02
-3.321581555122149476e-02,-2.815379726674588010e-02,4.800542511293596354e-02
5.029474504513726076e-04,2.460314302501748901e-02,4.666600295333103721e-02
1.228001733884344013e-02,-1.539047311518347561e-02,2.392581039798877610e-02
-2.787833640540601787e-02,6.985935944883621407e-02,-3.537321435762443012e-02
4.992667753600633918e-02,9.130793458844479668e-03,5.728484005838783977e-02
4.945991717828374101e-02,4.241302923275792371e-04,-3.835106063237862101e-02
-1.214527231566359632e-02,7.857576085037383529e-02,2.958937265664401961e-02
-2.835537128680863661e-02,-7.418916804421565175e-03,-4.873045280362083703e-03
6.175478491363549371e-02,1.895810073447998928e-02,-8.288276845122141342e-04
-2.830338288758855667e-02,-4.281563412612252040e-02,-9.103513015373281003e-02
-3.880961469492650445e-02,3.232246118613782415e-02,-2.477929244456618038e-02
1.630985855983736396e-02,5.048853699354374780e-02,-7.961893931195072882e-02
9.739793456091042079e-02,1.572236395781270897e-03,-1.144327863868759287e-01
1.927682815469478755e-02,-1.794101735753633742e-02,6.061698471570473729e-02
-9.358794016657507112e-03,4.281130513336382781e-02,1.285406467629571356e-03
-6.858851492817819029e-02,7.744258852531032272e-03,9.012489487692378065e-03
-4.321224612579855490e-02,3.552276106520514676e-02,-1.793557365652071953e-02
2.073544854741503005e-02,-2.242009138812682892e-02,6.495835556487812579e-02
2.664338574251686603e-02,2.253507815874815703e-02,1.885270602042920032e-02
6.558909657853925768e-02,6.003854285169598487e-02,2.502154109058607988e-03
-1.044149050805904741e-02,7.546227110828288009e-02,2.252895306341051382e-02
-3.382219229489941831e-02,1.346988314474631063e-02,1.605202662458048504e-02
-2.570722659458993947e-02,3.123859515702434586e-02,-2.178876510830349625e-02
-4.214628108593989481e-02,-2.485953852593926483e-02,-5.427882108087429130e-02
1.727604003245818143e-02,-3.320623014138707196e-02,9.325630872864729137e-02
1.377722041481199873e-02,6.961435623888480306e-02,9.059945428759691444e-02
3.962260936999285887e-03,-6.225505388277813301e-02,-2.913864471357174857e-02
-2.833113594936192622e-02,-3.894663304208687005e-02,9.821596877126101410e-02
3.041887404817841117e-02,2.237515855125529404e-02,2.920058932862040768e-02
3.955611671623425647e-03,-5.641281277573971520e-02,1.783140717515317025e-02
-2.511454421578536433e-02,-7.117349966075090829e-03,4.176519726527289089e-02
-1.835090623033369325e-02,2.404484045982776749e-02,-3.170249257233419271e-02
-2.534140572813644438e-02,-8.695928132633980092e-04,8.775695923496450168e-02
-5.049127866469795695e-03,8.475496362492075317e-03,7.634263938138617644e-02
-2.287993450505017637e-02,4.995742839134837548e-02,7.466351649936776858e-02
8.701680834717476221e-02,5.368236814242636351e-02,-1.466020417482603562e-03
9.610234867826228031e-03,1.252364153013375316e-02,-4.671828465222895715e-02
2.045356134770538042e-02,1.067291092403844718e-03,5.728979569455560500e-02
-3.676398047318739370e-02,1.800526088426627341e-02,-6.804752238212028945e-03
1.665702163403951289e-02,5.560301793188420633e-02,-6.740886721148929171e-04
1.019652019969018303e-01,-1.779686805116200646e-03,-4.691643869107600673e-02
1.337368598545789385e-02,-3.760837179359417110e-02,-5.088104564247728813e-03
2.831306306232915862e-02,-5.597555774026327646e-02,2.869928765017244754e-02
1.341473178290597361e-02,-1.584495429715463560e-02,-2.562650609636131591e-03
1.697649727818992607e-02,-2.589050720075008333e-02,2.836216097976719096e-03
-4.685091703003958080e-02,-3.476619421216404354e-02,9.372708125376871813e-02
-6.366736554710092366e-02,-1.665315961760891264e-02,-3.373240114775090392e-02
-5.688088132031986904e-03,1.328537839508688902e-02,-1.003707726543344170e-01
-6.089631191520859105e-02,-4.220584105165923160e-03,3.986937737286345290e-02
-1.009406669003697424e-02,-2.692572644142440103e-02,-7.746095031218926119e-02
-4.876007330836783227e-02,3.272231784937307004e-03,-3.375482958257501609e-02
3.820871078121763215e-02,-3.627362547502130385e-02,2.381813380384265044e-02
-3.986526916763949435e-02,5.462243161479539422e-02,5.202569334324350786e-02
3.127338531131775706e-02,1.766638638179527168e-02,8.951344366548333320e-02
2.197456867557389878e-02,-3.187305241033469311e-03,-5.476772369971441567e-02
-2.151528821586585431e-03,4.762587213945789627e-02,-4.551286344875919709e-02
-4.755875879101789661e-02,-6.516881739149285591e-02,4.282011086192259036e-02
4.564501463852250226e-04,4.471435589964074808e-02,-2.760359170402510581e-02
-4.306223568031515569e-02,-2.327489789593626887e-02,1.051743159536284479e-02
-2.121217753507969456e-02,-5.369560161180522706e-02,-7.953531296797612671e-02
9.105918630117575477e-03,9.203683787802531546e-02,-6.212385938232628697e-03
4.722885557175923038e-03,-2.310681022721030459e-02,9.523765379420355386e-04
-6.324545313529755797e-02,4.263221417732011159e-02,-1.267927290205322563e-02
-7.520930641897224933e-03,-2.791298896623982048e-02,-1.708934464559208610e-02
-7.521330735936304634e-02,-1.035818517228997149e-01,-3.997935533947256405e-03
-6.878244625166243797e-02,-2.638072670143624954e-02,5.381546577766561229e-03
4.826663492599009286e-02,1.220671933306483221e-02,4.102027042390510650e-03
1.792421650652122750e-02,3.479489558513778474e-02,-4.882606575781753278e-02
-5.235009633276061641e-02,-8.904919505241262745e-03,5.000998562571488081e-03
4.194327789057173544e-02,-6.985462269218684073e-02,-6.375931597892868508e-03
-5.381056765850932011e-02,-1.888081552742591068e-02,8.684789226701752907e-03
-6.280268626397952914e-02,-2.515494436525937336e-02,5.824981848542103852e-02
8.153074886248520489e-03,1.011408277393095467e-01,3.296883559079055726e-02
1.500499849480398627e-02,-2.372815615017312418e-02,-1.859153132078191634e-02
-2.261674481345004109e-02,1.651524146763422990e-02,-2.300330419911532798e-03
2.056969924377997569e-02,2.203740811500332769e-02,-2.151813121519229738e-02
-3.218561362599113573e-02,-4.957066683172706156e-02,1.317979675287811632e-02
-1.498504246561401486e-02,-6.628994099960176800e-02,-3.211440782182017201e-02
4.283336633293144922e-03,-3.223201937700970882e-02,-2.235810203844256980e-02
2.804710402569992461e-02,4.406032423920372421e-02,1.935583198762829901e-02
6.849603692268944888e-02,7.397524018969187098e-02,2.919741925761451876e-02
-3.727198700610828003e-02,-3.728731923536476780e-03,-8.137255288178885104e-02
8.813921688435716328e-02,3.415193436108530933e-02,-7.538036966009217799e-02
4.589190561886771075e-02,-6.721232475490418468e-02,4.597141518790177211e-02
-3.374374251252752754e-02,9.713725326273059402e-02,7.393975003391918370e-03
-1.039256184618384329e-02,-5.152825418391661361e-02,2.520462681473637639e-02
-5.115269761158285772e-02,-2.769603670412737820e-02,-1.034837308999417560e-01
-8.066991916258164919e-02,4.309047951917812681e-03,3.350938504472567719e-02
-5.685454889953706070e-02,1.710930176125374097e-02,5.916146298486532097e-03
4.885493824913893224e-02,9.136553375281766809e-02,3.724264250130625287e-02
4.837220195561049707e-02,-2.240125220624490307e-02,2.373593288783799535e-02
2.513062493513663551e-02,3.483724392682036736e-02,-2.744965392914658353e-02
-2.619002242071376621e-02,7.913794085949979462e-02,-6.618426004048692975e-03
4.375574382857813638e-02,1.413835802037125521e-02,7.995277885271033849e-03
-4.397652306954369372e-02,3.158160741018475881e-02,1.338042513318525237e-02
-2.026247203879731965e-02,-7.368053233863931795e-02,-1.216325153347683902e-02
3.322622032361981226e-02,8.537228852887133318e-03,5.735854273025003947e-02
1.126563242736972927e-02,1.758147089525498308e-02,-3.178200833833728228e-02
1.276858530064549531e-02,6.770817474323573282e-02,4.097719390674169071e-02
3.304011066525718715e-02,8.307681401303204996e-03,4.106903556586456033e-02
2.678391597296672297e-02,-2.495718914837093474e-02,-4.646688571232998784e-03
1.368470039619851600e-02,1.236520168258044630e-02,1.591779585707901214e-03
9.562816477592468722e-02,6.996369000039198704e-02,1.146077550686861249e-02
-3.238193798538579332e-02,-7.993035751572531711e-02,-4.877679652292491071e-03
9.956889196629165658e-04,-1.208107945381869074e-03,1.324004712708697247e-02
-6.958728038597154081e-03,-3.780955558468891697e-02,-3.753832269101692320e-02
-3.513881955840144483e-02,-1.624215106284745275e-02,5.246908831253747907e-03
-6.758140231691017741e-02,-4.206742913254790661e-02,2.153890276592857964e-02
-6.240294310635694647e-02,4.732745848217320001e-02,-5.678116540765826281e-02
-3.541071854512979622e-02,-1.795719450422109120e-02,2.991051328943660631e-02
3.256265490219351771e-02,-3.880638528477820589e-03,1.016782359577941830e-02
-8.408449213602862959e-03,-4.497051478402726982e-02,4.477597141980941588e-03
7.879596479670354647e-02,3.347732505244548767e-02,9.262411805105512375e-02
7.874869440114637409e-02,-1.091963015262238240e-01,-3.493028076908395729e-02
3.315779354409233159e-02,-1.160692143887591399e-02,1.041330295556244442e-02
-4.514820365739422720e-02,8.944475670893421715e-02,5.447424481185753758e-02
-1.386757070985469506e-02,-4.988454574061389896e-02,-7.700309908975733024e-03
5.932694244390702282e-02,-6.829906178031408537e-02,3.327220016002717037e-03
1.190813988666824391e-02,9.120517472912962123e-03,-1.135336802974762360e-01
-5.953388620289450789e-02,-4.439942919309393388e-02,-3.229694162418560166e-02
4.478731942286937051e-02,4.392905392109310025e-02,-5.273097679284791117e-02
2.344421228787434835e-02,3.958380159540634408e-02,7.567728171552936048e-03
4.805656333004655612e-02,-2.086457706159849934e-02,-1.497382490804138704e-02
-5.217480351384375797e-02,8.875911515434004072e-04,7.036233165329221217e-02
3.606721046814730797e-02,-6.067573945689751919e-03,-7.104155459112695796e-03
-3.574674207290311212e-02,1.835841950273187084e-02,-5.797876034873710588e-02
2.191095091216738178e-02,-3.282223193872912254e-02,9.754417502413094410e-02
5.533152886958740344e-03,-3.859343629867031250e-02,-1.742470105206454095e-02
2.043031379961999724e-02,7.227709716135199969e-02,-6.117750993510704532e-02
5.474033538855470338e-03,1.029062568354148499e-02,-3.494121972327347836e-02
-1.939942997959012358e-02,5.038942718442409457e-02,-9.211386384520135751e-02
-1.404167344643812839e-03,4.348485281031641558e-02,1.865291752930782476e-02
-6.006471900488327686e-02,4.714598213924308355e-03,-1.068055472090836816e-01
3.524868289396675819e-02,-5.263609055391237426e-04,2.951015653801958988e-02
5.035960783550512410e-02,1.028725097929501786e-02,6.927197166840584619e-02
1.010836639897288829e-02,-3.602329744974153147e-02,-1.104751974001226848e-03
-6.420298809713553823e-02,1.783071634486784254e-02,6.743262899858044716e-03
-2.844170370995955863e-02,5.996569880928088320e-02,-1.440838610981714230e-01
-1.105807687724681123e-03,-1.197272945216487118e-02,2.334514671258335582e-03
8.002277139061589328e-02,1.578652031635499262e-02,6.756014118108458200e-03
-5.999923727492005587e-02,1.005637675086808180e-02,-1.476268893736084643e-02
7.583728446013959790e-03,4.559086030403016604e-02,3.092525668072589398e-02
-8.059134523941684225e-02,6.595548884889261554e-02,-2.781404587781030613e-02
-1.649043009534586351e-02,-4.531425958466398646e-02,-5.999635649729093828e-02
4.201736908446996460e-02,-6.355696360552637965e-04,-2.608064984753306025e-03
1.466691172832407415e-02,-4.148661843590578657e-02,2.136922079667216701e-02
2.441891027221805566e-02,2.727283643829844090e-02,-4.790750541119459527e-02
-6.883585346616895133e-03,5.430643502440545521e-03,7.533083750173400492e-05
-4.824609645658726326e-02,2.699156261708120577e-02,2.777996457381791059e-02
3.868685547346141507e-02,2.897459444451140967e-02,-2.121705893298768061e-03
4.715756663602032467e-03,-5.615257386807535889e-02,8.362274275106051924e-02
2.698312015428356529e-03,1.469851822369170127e-02,-1.216897600462061267e-02
4.769597066066001007e-02,4.114123452718294188e-02,4.639670288203522758e-02
-2.872636332775085725e-03,1.861416260746185519e-02,-3.917893355472041456e-02
8.926079737919906387e-02,-2.011349483247598310e-02,-5.654470910095196236e-03
7.575213457351949453e-02,1.758738841260482771e-02,1.836782787819500259e-02
-8.081063255619096294e-04,4.818092592044293312e-03,-2.365866385347890552e-02
1.425421951231182864e-02,5.674470402443061723e-02,2.623439867053709018e-02
4.112621308156588079e-02,-2.852887521401610213e-02,2.401566384368179416e-02
8.865598211700673192e-03,-1.300530009879745895e-02,-2.805531353216070278e-02
-3.912033031833179325e-02,6.784779855993131308e-04,-8.647560806448686965e-02
-1.894634309634402047e-02,2.002982535723472901e-02,-1.053029087371111089e-01
5.821967234072246769e-03,-8.515908044881321734e-03,3.480798435683746250e-02
3.876969349520405922e-02,-2.507097029491650586e-02,4.705972069091707288e-02
2.160943961910891803e-02,-3.804815316153128263e-02,1.371946636266754317e-02
2.624980250933791823e-02,-1.337157116039238217e-02,-4.037769260803752980e-02
5.417497917513391069e-03,-4.407344490736531811e-02,-2.509776732456792114e-02
-5.786240173486228988e-02,-6.238928158542891844e-02,-1.231240627882485179e-02
-7.211454206677452017e-02,5.466652697385892407e-02,-1.223008967709744883e-02
-7.660523841009557813e-03,3.151771719953370271e-02,-4.305339142514049561e-02
8.143063620830109928e-02,3.406804656328304287e-02,-8.108512660887379209e-02
5.827034403266665580e-02,1.744632068078010370e-02,4.242556537255721440e-03
7.046505506468467295e-02,1.845848395786993043e-02,-4.398676482536566235e-02
-6.428420734108110379e-02,1.839920417810073441e-02,-1.967446259819293636e-02
5.240027064405498869e-02,4.690594273566485450e-02,-3.437478388637905252e-02
7.767426292089786577e-02,5.837325512673012529e-03,-1.756867491484155608e-02
-6.792737996886904703e-04,-1.812994300854505608e-02,5.244321380190398313e-02
4.305491145369017697e-02,6.288992908865907727e-02,1.609453483987484390e-02
3.246643404652573700e-02,-1.119851674865231794e-01,-6.074931246673484497e-02
-8.429923678671051579e-02,5.211105285921290020e-02,1.205608922912887598e-01
3.688148860564553766e-02,4.148773156424415826e-02,-1.748328380300239945e-02
-1.424575585785280325e-02,2.770282688030447499e-02,1.994328920236792049e-02
4.738879850980205061e-02,-4.251293173822108529e-02,3.594822519704085617e-02
-5.729067168230154300e-02,-4.626099615926086706e-02,-6.549882610942857862e-03
-2.013237878119517738e-02,-1.134285770651869557e-02,3.324157319177716008e-02
-4.545516497413839598e-03,2.253582002037268772e-02,5.356522076016875800e-02
-1.522118536979378059e-02,4.084261981802229415e-03,-4.675772518240685349e-02
-2.327989538601731370e-02,2.568143592520325934e-03,-9.878853651898800159e-02
4.439730426255364404e-02,-2.106415878251168688e-02,-9.295061576183850927e-03
-3.437257935548893029e-02,-3.396256424290853421e-02,2.100138660562363493e-02
-1.044497581975566483e-02,5.149368712090079264e-02,5.376246652737377840e-02
3.623549854458776170e-02,6.975945745592754266e-02,2.495624900442559857e-02
2.699726523459854838e-02,8.548733446308886749e-03,-3.279884761277673810e-02
3.446978664064715564e-02,5.807429280518536935e-02,3.110150261602401527e-03
3.803343463448857070e-02,2.395683668431991889e-02,1.350440323630634418e-02
2.372234992028935188e-02,2.891093867892096173e-02,-5.662747090553125334e-02
2.185744412345207166e-02,5.341693276086145054e-02,1.466030842152625004e-02
-9.605205185060318104e-03,2.179896707462905189e-02,7.423230493733962154e-02
3.464771813649417109e-02,-5.994610242060104816e-02,-1.158275118254442106e-02
-3.460418856568559659e-02,5.250074301337288862e-03,2.998300261424181878e-02
5.847725156818795594e-02,-1.805966075962151668e-02,-2.075426189985900977e-02
3.658325735539089824e-02,2.664203210838266347e-02,-9.381985094313174262e-03
-6.368952926037440947e-03,-7.368951087163030933e-02,-1.789687041833537551e-02
8.442595852687462959e-03,1.658020455384814559e-02,-5.205171851257193311e-02
-1.594034901736642376e-02,-2.047272021085394435e-03,6.985460561003564717e-02
-1.663230786759768362e-02,-2.172985849301576136e-02,7.824128709387529260e-03
-4.045217573064700811e-02,4.542351619900621140e-02,5.817514997257739601e-02
-1.312254590709744512e-02,8.164301031845391885e-04,-7.013301781054548725e-03
2.138098054073121063e-02,6.193150579711714787e-02,8.074343345744815909e-03
4.998296627360140589e-05,8.839205296746827784e-03,1.727057196817389367e-02
4.814850531144545392e-02,-2.081716335246534128e-02,2.805572595820623322e-02
-6.126460398434657034e-02,-7.327897713625159282e-04,2.429021683326583469e-02
6.071589977525150561e-02,-8.032652555938933278e-03,5.505712639535354641e-02
-2.477350303150258407e-02,-1.612407198185884794e-02,3.079522788387400317e-02
-8.361893485230111750e-03,-4.412441486766927740e-02,-2.061251524172791338e-02
-7.399445659839637944e-03,-3.407450175752509136e-02,1.772999737926768404e-02
1.407431098790442106e-02,-8.576182627544316761e-02,-2.044538112612206276e-02
5.389452020877738558e-02,3.327190435721902317e-02,-1.603984479777670683e-02
-7.608098206886848569e-04,8.273224790035012266e-02,-7.691816860979926174e-02
5.250399199128371122e-03,-8.915933146810153809e-02,3.590980941043674102e-02
-1.744822804312386871e-02,5.054095038033631221e-02,-1.744008157300079576e-02
2.149526470799503763e-02,3.534757625290503580e-02,-4.175388974545220927e-02
-5.102421438574729698e-03,2.708772671928027023e-02,-3.939763669098433115e-04
3.995317631091772903e-02,3.965564309759787159e-02,-1.084299539090764763e-02
-3.900454795273409353e-02,1.326993865982752270e-02,4.545200322595788212e-02
-1.926603903802406176e-02,5.089811867005217261e-02,6.651553712996299828e-02
-7.539118343514721043e-02,-4.006487044227544092e-02,-5.251543508372683369e-03
-5.982322338456806839e-03,6.613002879043217153e-02,-2.491127312383592876e-02
4.445529199843554352e-02,4.935660790905872395e-04,-5.962413041549090992e-02
6.107738408981621542e-02,3.481873842343029268e-02,-1.875250091047328191e-02
-1.853409278890389214e-02,2.909654750520295451e-03,6.965185079102247101e-02
-2.219613262711463695e-04,-7.425404464178378058e-03,8.486619224887188883e-04
-7.069150595747933363e-02,-7.704240289857880453e-02,-2.192258705169543645e-02
7.705765387707058135e-04,-7.706282202335995590e-02,-2.539226140924159478e-02
-4.134384692972765604e-03,-3.667348261373459296e-03,-4.854724003897677859e-02
6.450183069007567327e-02,-5.837854235674754672e-02,1.023283981337765047e-02
-6.796596789330678311e-03,-8.224655467791680552e-02,6.433184819938117527e-02
1.266716892526953929e-02,4.968107359077341030e-03,-1.229150310200544105e-02
6.821611417061785275e-03,-2.499840265090793115e-02,2.846548571197063740e-02
-1.400644720964377803e-02,-2.444231191998220282e-02,-1.743754563377699837e-02
-3.545304349716696390e-02,-7.290869979091187114e-02,1.710700703606622339e-02
-3.942028904836234610e-02,2.207698307469030743e-02,2.856536650542429619e-03
-2.735959880123843904e-02,-1.076071896396834857e-02,-3.181709218588059385e-02
-5.096299569242596778e-02,-6.314230921002204899e-02,-3.288436272734196475e-02
-1.330347892298983439e-02,1.646253148427520921e-02,3.109660469756005130e-02
1.038388371818520228e-02,-2.116010047704785027e-02,-4.328624806677328768e-02
-1.016190050490365857e-02,-3.294560251875771478e-02,1.236953529248342037e-02
3.575885370422754450e-02,-3.758129214171319898e-02,-2.177805573637034073e-02
-9.956602951330904838e-03,-3.883439347238296091e-02,-1.286491859705067853e-01
1.132193141574740561e-02,7.395068435403162285e-05,6.896281212762121922e-03
5.001200291337619744e-03,3.249184421705193088e-02,1.963073860402017937e-02
-2.045881697834877125e-02,2.781259488453787648e-02,-8.031321946727353056e-02
9.944639411484101910e-03,5.356555352544815213e-02,5.831228188004967256e-02
2.980586710294063843e-02,-3.159517269012764723e-02,2.631471259271725774e-02
1.766587000970053917e-02,-1.083564066849745976e-03,7.846139963622203450e-02
-1.159488036458129236e-02,3.367304701094821218e-02,2.179850199706271155e-02
-1.614402422371752181e-03,4.746131440861489637e-02,2.472475844042610824e-02
-1.273831544054238041e-02,3.001318350545907621e-02,4.008828689701635778e-02
-8.970359530482566179e-02,-5.141599439476536929e-03,4.694822720160707341e-02
2.215283610015190974e-02,3.243010336772738332e-03,2.085997557419888918e-02
3.821739449560671020e-02,-4.321785072470785832e-02,6.004477631999988185e-03
2.919546581320379280e-02,2.935001539384713126e-03,-7.072882597595859036e-03
7.129330160054792032e-02,-2.001788918383074975e-02,-3.052069095983666464e-02
-3.054876952418411271e-02,1.920659467951328983e-02,-7.831477859455177049e-03
4.313895127293159576e-02,1.185218538070188267e-02,-7.825432528197426296e-02
1.248765660868122584e-03,1.346418278795117641e-02,1.861134338202122956e-02
-3.442855707673570225e-03,2.670863000447887964e-02,4.438635467133673213e-02
8.023403206746408667e-02,4.691782328128603526e-03,-3.287681539477219084e-02
-3.026920097999119541e-02,6.964856162550508989e-02,-2.355544374690220558e-02
-5.118625999370043445e-04,4.227598545861101058e-03,7.254344902916703454e-03
7.403041001499632845e-02,6.161608579292583709e-02,-4.590740071250921234e-02
-5.519068109712870623e-02,-1.185145916742227565e-02,-5.330590730350785039e-02
4.976063516029714112e-02,-4.366257750942837551e-02,-9.072609670365298917e-02
1.194613940726633322e-01,-3.800200233579323350e-02,-5.419555524390922557e-03
7.057870960742909650e-02,9.586684320220288658e-02,-4.491712682799668677e-02
-2.739885863615056441e-02,2.632230731344157096e-02,-1.077595086492125383e-02
-6.317902335523961285e-03,-3.523222002900331523e-02,6.145537120576104184e-02
6.571167426636680131e-02,2.650043986266270926e-02,-2.231133936837058351e-02
5.606680950776514460e-02,-5.591526808507791190e-04,-6.030038489714792307e-04
-1.767423346163933540e-02,5.637137443704652584e-02,1.951619733735037582e-02
6.601334826582333504e-02,-3.266548882552527261e-02,1.634193648125368756e-02
-3.819290546817726006e-02,1.063020883564704498e-02,3.620895955879510630e-02
7.878027815060849662e-03,-1.097870423198268712e-02,-6.672225755304335426e-02
-2.137816631437720535e-02,-5.202368051987197456e-02,3.413213607596717047e-02
1.997991063422433627e-02,1.160120912174593052e-02,-1.087591978757028871e-01
-6.945263011578409196e-02,1.641662156509883855e-02,-5.249354453851543673e-02
9.053047691030323071e-03,-4.290377371572711568e-02,-3.400501641841819495e-02
-7.360981626425819324e-02,2.385767486593633191e-02,6.556780211424163840e-02
-3.432979485854517621e-02,-8.274051520979609428e-03,3.890280568500392722e-02
4.911075506098269011e-02,-6.644391441641246676e-02,-5.202192856257990827e-02
1.766538247461085787e-02,4.414064945104704402e-02,3.831519115513676993e-02
6.962736805940084386e-03,1.154934160024038460e-02,-2.015082990764102341e-03
1.381624808256816037e-02,1.205297576745211841e-03,5.766514185018516842e-02
4.890886194647036528e-02,3.902174153702264031e-02,4.018365858484537062e-02
1.719472519385922826e-02,-5.053989358523593850e-02,1.504926371593382287e-02
2.416263997613301781e-02,4.374724001862923851e-03,4.351990988847175001e-02
1.844860817264342215e-02,2.017497691977125640e-02,1.686539152653344573e-02
2.222184980134465655e-03,-4.158797997133721613e-02,-1.542974398193376791e-02
-1.775903901280838360e-02,3.717655466195475544e-02,-4.684686031416689794e-02
1.568347700754344973e-02,2.051833501637912588e-02,-5.727277720297944269e-02
3.821142464203466232e-02,-1.219099914578997785e-03,1.342631245505385672e-02
-4.073663769804779927e-02,-4.829527881758473307e-02,7.378712285795503700e-02
7.672764829695391531e-02,-2.785609431303876296e-02,-1.205196783134777558e-02
2.967577382485698037e-02,5.251403732719738156e-03,-3.993778940312843473e-02
-7.049948722207645402e-02,4.547655001492133253e-02,-2.522851242324164814e-02
-1.810257899358901079e-02,8.385927742809115570e-02,4.252946541261603403e-02
7.041384971951157590e-02,-4.814336454393857573e-02,5.974893962159592148e-02
3.050787026136800306e-02,-6.383503239332614931e-02,4.088708069535767348e-02
2.559106000222179100e-02,5.781224688147517006e-03,-2.339301144849543612e-03
6.256052204075662759e-02,4.642860546335575433e-02,6.604730358338310736e-02
8.848653690584839041e-03,-3.220465336139137491e-02,-6.590108135330800809e-02
-8.126455130830776211e-03,2.213817788215835525e-02,1.523355969024068994e-02
8.477936045168891349e-03,6.594898549058102188e-02,1.378877285879352883e-02
2.661116019145935360e-02,2.118293585961581599e-02,2.718777212408348895e-02
-7.385361766930893801e-03,-2.811940118178897843e-02,-8.894998640108298105e-02
-2.921447487053253911e-02,7.818356182383751074e-02,-2.144953887698554211e-03
-3.604702591713872945e-02,-2.343978635909293659e-02,-2.174010382677159237e-02
-1.279093953765393470e-02,-1.517593841294114475e-02,-1.707241588168354959e-02
-6.688043585214903733e-03,5.262211343171418337e-02,-1.313344803480635987e-02
8.515835017979984933e-02,-1.630587694480556057e-02,1.102707996115382533e-03
-5.605657054899378794e-02,-1.869167205122236955e-02,6.971532552202334976e-02
5.569639046505336921e-02,3.552408455301083595e-02,-4.956694743761563826e-02
-4.013720792179321928e-02,1.369724368637144016e-02,-1.241139556376404801e-02
-4.165887133752647215e-02,7.872001536959757906e-02,3.456411913640419775e-02
-1.336676231110875065e-02,-2.434147918755504708e-02,1.671080147604422916e-02
-6.357139793521537907e-03,4.519533655859834381e-02,-5.815500027981258813e-02
-3.010725844378801114e-02,-3.322985511543485870e-02,-8.060579323606922864e-02
-3.453010126939443786e-02,-6.153429954243917754e-02,2.393737850575591245e-03
-2.806319389138730094e-02,2.277953022021787094e-02,2.952816913155616174e-02
-4.650725372146348978e-03,-5.045085930923901008e-02,5.627638358414546044e-02
-1.166216339352535089e-02,1.000108437753430626e-02,-4.383307205762003445e-02
-1.064071921569775467e-02,-3.733381266899250123e-02,8.106316680814634398e-03
-3.601585531907747911e-02,-1.468003237149741527e-02,-1.164781998452906094e-02
4.272567184473867463e-02,-2.720279480089755203e-02,-5.377796661448898397e-02
1.784968025713670747e-02,-1.774285155449573451e-02,4.673109332129739973e-02
-3.850205436304397072e-02,2.654769199571231642e-02,-4.204797034156758720e-03
-1.020013028723611506e-02,1.516949694794939366e-02,3.744355582716888536e-02
1.394831220558799718e-02,-3.328528082833435986e-02,-8.661251041598284905e-02
-4.518380060860688677e-03,7.337591035341276859e-03,-7.680778981767531766e-02
