accel_x (m/s^2),accel_y (m/s^2),accel_z (m/s^2)
1.666749859107652019e-04,-1.197634195543357432e-04,-9.794675477424631183e+00
2.298744257622398917e-04,1.807214330728212090e-04,-9.794750814997543742e+00
-2.402962378422067089e-04,-2.586014560880986029e-05,-9.794749924261179075e+00
-1.029217077794143105e-05,1.796607605468780505e-04,-9.794790151343178763e+00
3.863103722357392545e-04,-8.463963256299319733e-05,-9.795005718912268122e+00
9.607592371430330696e-05,-7.957248716218442942e-05,-9.795221727377743548e+00
3.193438741245857387e-04,2.666835295781434171e-04,-9.794013229408344401e+00
-1.239649625704713901e-04,1.511113254080595448e-04,-9.794938229124738882e+00
-1.418053605269403619e-04,1.859043322462904308e-04,-9.794612092176636864e+00
1.159412755694041894e-04,1.311396668415881935e-04,-9.795216548682807556e+00
4.361063749925782372e-04,-7.625653482382487177e-05,-9.794130093623184763e+00
-8.078285419181046472e-05,-1.224472482163726150e-04,-9.794517172476052025e+00
-9.975033560389715600e-06,1.316482235507381124e-04,-9.794481610434736751e+00
-3.180431059089773387e-04,1.058715603219341451e-04,-9.794611954495577422e+00
-9.276693227271224761e-05,-1.347179492632038947e-04,-9.794894911063169118e+00
1.303490449201461974e-04,-2.027542895498982221e-04,-9.795358732322174689e+00
9.960477966354707921e-05,-3.294333991980440075e-05,-9.794970361874996811e+00
-3.926320831922036863e-04,-1.659032896583775046e-05,-9.794452375057305815e+00
-6.147768806447518209e-05,-4.393051194760342460e-05,-9.794622979877855684e+00
-3.278145930938459562e-04,1.393748204096018812e-05,-9.795093437514012180e+00
-6.356456907056282481e-05,-1.841787620029847021e-04,-9.794841107408421621e+00
-3.049008406012389369e-04,-1.225248659661490975e-04,-9.794843502919372114e+00
-2.251337251746941392e-04,-1.004724467385372183e-04,-9.794043051588975146e+00
-6.288069257869635935e-05,2.115447512351118368e-05,-9.794746703442358537e+00
-4.044446681772945326e-04,1.355717243829080885e-04,-9.794495210930747930e+00
-1.452024207190135384e-04,-1.285040672881126783e-04,-9.793833473950465773e+00
-8.565868914179934309e-05,-8.498362068419769227e-05,-9.794693325437437537e+00
1.058302645999272093e-04,1.475310308427621999e-05,-9.794726064814700095e+00
9.317378019683740336e-05,-1.154143365490912111e-04,-9.794366628226869764e+00
-2.331467215421052257e-05,1.256445613142820339e-04,-9.794478386382682089e+00
-1.722568041698671973e-04,-1.446606441688228438e-04,-9.794426332507461197e+00
-1.923698786781878145e-04,2.185500204521704474e-04,-9.794795490439963004e+00
-1.063530722980289220e-04,4.523094705906255316e-05,-9.794669143895909258e+00
1.735225683409380155e-04,1.533890167858387827e-04,-9.794537896401665833e+00
-4.365558906144321349e-05,-4.396191349703518236e-04,-9.794142355191830518e+00
-6.528120951738500938e-05,1.546199123019440500e-04,-9.794577643452356597e+00
-2.174385032361125856e-04,-9.596603569982838371e-05,-9.794380280786997517e+00
1.555297932151538127e-05,-6.713893272637724700e-05,-9.794276735696646696e+00
-2.840149396292796589e-05,7.086671074011359549e-05,-9.794635285282023318e+00
3.521133866638279444e-04,-2.413650467674542796e-04,-9.794232214994295305e+00
1.993797264137494137e-05,8.127968278251351372e-06,-9.795182231524034222e+00
-4.692864783278891442e-05,-1.563457323354807180e-05,-9.794368756765129191e+00
-1.763344412661848833e-04,2.331143777317706782e-05,-9.794403514988138326e+00
-9.712166139363070721e-05,1.441872806947185743e-04,-9.794014100891114794e+00
3.383521345125808992e-05,-1.017598784739756097e-04,-9.794240108827198199e+00
-5.764911837005335922e-05,-1.326674459723108882e-04,-9.794311576194168367e+00
-8.084699922308835032e-05,1.043524169925974271e-04,-9.794711329427272517e+00
-1.480503636229462273e-04,1.924281653539687120e-04,-9.795023409763778943e+00
1.176847023820842776e-04,-2.230768228567148171e-04,-9.793894744876546099e+00
1.336256540943578960e-04,3.559645212156122105e-05,-9.794657038554021256e+00
-2.323435279242448280e-04,-3.478323199684536825e-05,-9.794503044514403456e+00
-1.461793929281058756e-04,6.999576642790736900e-05,-9.793892888044018363e+00
2.319029058147641282e-04,2.069203919775569234e-05,-9.794680417472024558e+00
1.178301258151670836e-04,-4.564983837405184796e-04,-9.794532852315928295e+00
6.366167773536633506e-06,2.082392561564734839e-04,-9.794744949113605159e+00
1.946517794745848977e-05,1.035234534131242710e-04,-9.794315693890958130e+00
3.093328752953240128e-04,1.921652803140923868e-04,-9.793893064968983708e+00
-1.076236982939004279e-05,5.138323366820724626e-05,-9.794692778614312090e+00
-2.663166554206998531e-05,-8.931526459399505107e-05,-9.794654018542431118e+00
-1.150526821172112075e-04,5.363347422823905471e-05,-9.794402131824544000e+00
-2.137394062144876939e-05,-2.124433734552593780e-04,-9.794907419850048313e+00
5.791885871801666699e-05,8.658093295067621439e-05,-9.794324846179309318e+00
-3.852499450566006684e-05,-8.540552270581411093e-05,-9.793732631653281118e+00
4.193476020097493240e-05,5.051932291412404054e-04,-9.795122736202673153e+00
-2.195696148977835675e-04,1.368330210037751039e-04,-9.794506876875024304e+00
3.008659738832669315e-04,-3.572331882261184209e-06,-9.794332010074084494e+00
-5.475018871409076523e-04,1.928667863815029175e-04,-9.794373552824326978e+00
-4.490309981900507191e-05,4.549048954532759482e-06,-9.794551891899455853e+00
1.963280372897115286e-04,-2.827273897499031738e-04,-9.794562732792025272e+00
9.354997524333213065e-05,8.898943093953893418e-05,-9.794336112883332390e+00
-3.096036280067409946e-04,-3.534755357800083446e-05,-9.794967810683255394e+00
-1.031683799494776137e-04,-1.113630050725867844e-04,-9.794542129690753995e+00
-1.800615831871957425e-04,3.358793223243494627e-05,-9.794648602261776915e+00
-9.106180959635237499e-05,4.030962245402037092e-05,-9.794552874693053468e+00
-1.292677871577251720e-04,1.103887294366381541e-04,-9.794907113623278150e+00
-1.861391791869163774e-04,-1.076282353043428577e-04,-9.794799774170954265e+00
7.102288742209538787e-05,-1.229609209013501938e-05,-9.794237464714083075e+00
2.861325537642831580e-04,-1.185562357935537306e-04,-9.794706291774311069e+00
-1.796931443287492038e-04,2.904486737680375729e-04,-9.794434457806302063e+00
1.961936923350066024e-05,-1.885279778193307333e-04,-9.794540056699521102e+00
-9.229353138157660424e-05,1.407938909855252464e-04,-9.795070728016504802e+00
5.947406959689108263e-05,9.949186653190265602e-05,-9.794414975334191809e+00
-3.743058535647448334e-04,-2.526130721608135137e-04,-9.794298190103608803e+00
-2.024209296158119579e-04,-9.536276721540805183e-05,-9.794683185423410876e+00
-2.452328846607517310e-04,6.587069170782241297e-05,-9.794692174740960766e+00
5.716873892381497041e-05,-1.927779400145559823e-04,-9.794919327149273158e+00
3.623597134347760368e-05,1.345997273664356403e-04,-9.794802982321488827e+00
5.602558918989096758e-05,-8.175700888990099192e-05,-9.793933944518434132e+00
6.264027187260125132e-05,1.254398550942931189e-04,-9.794962654005146874e+00
1.047700150835984478e-04,-2.278668260494766677e-04,-9.794719967057968546e+00
-1.978494969190922959e-04,9.933613487465495478e-05,-9.794244128651676817e+00
1.851415821322688164e-04,-5.520285107901300761e-05,-9.794393228319984601e+00
2.600433390076969183e-04,2.029990427721193821e-04,-9.794267361590316412e+00
5.337054530167866136e-05,-7.619395149958400513e-05,-9.794012469153699385e+00
-2.251230468700370730e-04,1.675715741089213852e-04,-9.794474405999713085e+00
7.971362670203338151e-05,-6.406965084745412328e-05,-9.795325619541172202e+00
1.894816770079630339e-04,-9.645753606389801185e-05,-9.794982411292933122e+00
-1.957833123389643632e-04,-1.654166748534659052e-04,-9.794471268621435911e+00
-2.305429419792185070e-04,-2.183869267315164496e-05,-9.794458521381210758e+00
2.562212827487914200e-05,9.986556488308104620e-05,-9.794578878986920145e+00
2.363159095171823694e-04,-1.261747596000956345e-04,-9.794197026278835594e+00
4.119444827634268755e-05,9.080512922620809885e-05,-9.794776389571048014e+00
-2.589694824062876120e-04,1.289531071700436018e-04,-9.794576850724078909e+00
-1.476941842242009703e-04,-1.466621906053171093e-05,-9.794359918312974145e+00
-4.514755239833060952e-05,-2.706601767527612315e-04,-9.794926278439428202e+00
2.879200261621434097e-04,-1.110897580956086677e-05,-9.794354813462739173e+00
1.956043914332766267e-04,2.442603160513305086e-05,-9.794922588784297446e+00
2.347045161278055550e-05,-2.333502706688870773e-04,-9.794481087030264987e+00
-8.397923700944545254e-05,5.336605816581240061e-05,-9.794323797450147140e+00
-1.702084124713346017e-04,-7.841328667545053200e-05,-9.794176692702961873e+00
-6.601980032044025605e-05,-3.432807240820704185e-05,-9.794327172665962422e+00
-2.810815497381587776e-04,-1.384456574620334171e-04,-9.794191862776266078e+00
-8.503881222162459732e-07,2.380918314058492308e-04,-9.794660712564320804e+00
2.262735174568956376e-05,-1.093240499922312940e-05,-9.794450971295106001e+00
1.204087004459064933e-04,-2.141730038187401755e-04,-9.794329191227044262e+00
-5.972988500205852499e-05,-2.329927637223927082e-05,-9.794431281460507677e+00
2.821307254382450220e-04,-3.586352450694006429e-04,-9.795072723929779457e+00
-4.541419257362605717e-04,7.258792410661180430e-05,-9.794294888380701281e+00
5.653521650102955384e-05,-1.880089855042756264e-06,-9.794458351965221965e+00
-2.962108357562443059e-04,-5.403199950628523757e-05,-9.794720862694108021e+00
5.135991639313439091e-05,5.805694090185533788e-05,-9.794543323532129975e+00
3.456455698054555336e-04,3.091585637824580119e-05,-9.794939714892597848e+00
-3.070086610503013026e-05,4.581448500287767467e-05,-9.794517414834510660e+00
1.954816587865088593e-04,-2.126384420221531118e-05,-9.794380457616405522e+00
9.480753794871888437e-05,-1.023271319982584722e-04,-9.794496732426084762e+00
-3.129137617085917130e-04,-2.958958212472323403e-04,-9.794274990072254994e+00
4.278782038909842677e-05,-2.409899135400781042e-04,-9.793879530252700860e+00
-1.211987155333022366e-05,-3.271462971253800739e-04,-9.794183736116488959e+00
2.802360307718373131e-05,-1.314656736189940699e-04,-9.794260936080629421e+00
1.047556320393499299e-04,-1.547721532066770962e-04,-9.794429185564906604e+00
8.319985047283590140e-05,2.641408693630312187e-04,-9.794559576035712922e+00
-1.663891212018573566e-04,8.268435792366192385e-05,-9.794970887957298089e+00
2.460801570413152567e-04,1.538096041932114980e-04,-9.794874716324503794e+00
-2.402287264553031574e-04,1.599657467334831575e-04,-9.794054426086049148e+00
-2.141256471248984407e-04,3.524418746018873278e-04,-9.794318681318133102e+00
-8.142516971516274092e-05,4.038269629510486312e-04,-9.794641215489438224e+00
-2.252250984771220048e-04,-5.952277315077604035e-06,-9.794527826351345112e+00
-1.857560501969938614e-04,-2.781343832673808489e-05,-9.794424797704241570e+00
-1.472872877440757600e-04,-1.106975459823975790e-05,-9.793679430067546932e+00
2.234378710037951190e-05,1.545858641831917473e-04,-9.794647093719294872e+00
-3.367467175560496850e-05,3.342620177781814258e-05,-9.794216765296884120e+00
2.412201639472485158e-04,1.310828570214230427e-04,-9.794768757103478052e+00
-1.620401251056042484e-04,2.093483737857704854e-05,-9.794415169195412219e+00
-2.533044754891055402e-04,1.906116073282557557e-04,-9.794020049613717305e+00
-1.609025496501310319e-04,-1.237029012071714726e-04,-9.794274798122325265e+00
7.670861663921409450e-05,8.620768155693795862e-05,-9.794287006009694707e+00
-3.891755441565903251e-05,-4.849359913471384714e-04,-9.794340135020238591e+00
1.580927090991738731e-05,-3.228470351250470571e-05,-9.794799462518568589e+00
2.406443522270762091e-04,2.026537858319371057e-04,-9.794244601284155749e+00
1.157427320116441482e-04,-1.826632697496745382e-04,-9.794655413050215031e+00
-1.485374175802676913e-04,-2.142287245400440463e-04,-9.794528501904141038e+00
1.798654113972917212e-04,-1.668658179918593967e-04,-9.795032749906077640e+00
-4.987254523076773349e-05,6.736882853982429666e-05,-9.794293228579288524e+00
6.388250455803170375e-05,-1.146515184811265327e-04,-9.794517903228808109e+00
-9.732334182455258025e-05,1.889564401666914508e-04,-9.794545622073023594e+00
-7.421154816716897626e-05,-3.237223695149139217e-04,-9.794270698807531872e+00
-2.286760896887120005e-04,2.306299330790019322e-05,-9.794777328177090681e+00
4.567284221394623378e-05,1.004554700748658188e-04,-9.794434453575911803e+00
-7.537080315631514127e-05,3.120809313612804775e-04,-9.794958037263992168e+00
1.706389736441333096e-04,-4.427712930542615825e-05,-9.793772657115500380e+00
-1.687506913468712259e-04,1.402129270039882659e-04,-9.794274841778033647e+00
1.094901355756336295e-04,6.868503394286527993e-05,-9.794441317180538675e+00
3.334805421979314486e-04,-1.861823605114254683e-04,-9.794122644108837150e+00
-2.353924080265660786e-04,-6.690280517604215024e-05,-9.794873960314065542e+00
1.855016876461600773e-05,-1.350398206941441734e-04,-9.794805038275919529e+00
-1.790475089458837233e-04,-1.244932524783211162e-04,-9.794402037540248074e+00
3.809756178433292093e-04,-4.772127815317827145e-05,-9.793865870551972108e+00
3.425198048569974606e-05,1.728968173391694826e-04,-9.794526979459499572e+00
1.384692877554507119e-04,-5.468860173963858810e-05,-9.794612539209982316e+00
-1.044878630710781269e-06,8.723963303496996629e-05,-9.794722768962483173e+00
7.206013918775517788e-05,-3.727963611630763876e-04,-9.794007311806490534e+00
-3.222005151704104798e-04,-3.487288502330082785e-05,-9.794709650829050318e+00
-3.244413863301713781e-04,-1.014574813976950370e-04,-9.794475851142967926e+00
-1.919032854822076662e-04,-2.402933467161349264e-04,-9.794557734595016996e+00
1.885021513642879168e-04,8.281195178585061423e-06,-9.794526623160942691e+00
-3.948149758493015439e-04,4.349064001835236748e-05,-9.794279402351834918e+00
-1.434756103537567981e-04,-6.140579425845010581e-05,-9.794445938989751355e+00
-1.055304576955452833e-04,-1.316993002757496460e-04,-9.794503394438047295e+00
-2.651150007969117024e-04,-9.117118314921549474e-06,-9.795532379815455215e+00
-9.384735193802711299e-05,-1.798437929860880141e-04,-9.794284196454693614e+00
-1.866838393195361691e-04,1.127449056461141358e-04,-9.794502687661729823e+00
-3.466956299323125843e-04,1.661576075194924780e-04,-9.793968081892741040e+00
3.092945432570143083e-05,-2.931439677386235928e-05,-9.794296517362411691e+00
-2.749388516080984550e-04,2.252438691553523972e-04,-9.794485778013456212e+00
-7.493436118995013895e-05,1.585369831332992456e-04,-9.794513498359199488e+00
9.165238944927911637e-06,7.312703379827923170e-05,-9.794443710007071147e+00
-3.784907262378971204e-04,-1.233714037244117796e-04,-9.793720685397644843e+00
-9.332315684340153491e-05,-9.573086285096840252e-05,-9.794774825452002176e+00
2.857837651454676059e-05,2.848297139335297600e-04,-9.794330396700610564e+00
1.014941361406889331e-04,-5.694902469221454068e-05,-9.794352839027169466e+00
8.520424975177852281e-05,8.608899837887610575e-05,-9.794418824610870544e+00
6.109868834896589758e-05,3.917551210121617499e-04,-9.794502145269351701e+00
-3.889782912391598520e-04,1.049240744484931877e-04,-9.794854357379664478e+00
-7.640347257176219255e-05,1.372269735301787303e-04,-9.794188640038186122e+00
-1.512369745632138342e-04,7.448096137376227388e-05,-9.794066281178503530e+00
-1.354301412722479648e-05,1.618579571894150765e-05,-9.794703568668241545e+00
-1.065980612954213193e-04,1.610639658822891885e-04,-9.794619833345196369e+00
-1.752125453010110537e-04,2.547546856275120680e-05,-9.794572869955528560e+00
-1.534101437815869071e-04,-1.771866363060032599e-06,-9.794441508124322127e+00
1.622468292605723516e-04,8.658540445127384873e-05,-9.793802961170429811e+00
1.546297143362286911e-04,9.867723463808648454e-05,-9.794562897672971502e+00
-2.039474136760882888e-04,-8.339248977090721110e-05,-9.795018301412151018e+00
1.566365450337913563e-05,2.163745829580801907e-04,-9.794695414928558108e+00
-6.959192000116927305e-05,1.276613157091659461e-04,-9.794324307825691633e+00
1.434931432162511852e-04,2.677683380654079584e-04,-9.794470169145512273e+00
8.329710594715424683e-05,1.038506468190598304e-05,-9.794396265761053044e+00
7.128027607150218823e-05,-5.606997935673014097e-05,-9.794811116316964217e+00
-7.676479266475140831e-05,1.181727941508052630e-04,-9.794691374855759136e+00
1.006692689790002410e-04,-3.089085034453194813e-05,-9.794648125416202333e+00
1.225045481964780102e-06,-2.345728405072700692e-05,-9.794388587823871006e+00
2.048515190330146547e-04,-2.576205465805675530e-05,-9.794992558048514653e+00
-1.018541405826900383e-04,-2.137377564685319700e-04,-9.794642102362351110e+00
7.207055426184289003e-05,-7.757238173625844346e-05,-9.794686083972470314e+00
4.456992006215912015e-04,-1.581297406107730027e-04,-9.794014851507117925e+00
4.305429779028042915e-05,-3.139300603407931510e-04,-9.794584391896972164e+00
2.372682651587613544e-04,-9.870355465701060812e-05,-9.794828252169990535e+00
-1.924299811259318378e-04,-1.830659489390786790e-04,-9.794373692620967020e+00
2.116322028883869000e-04,1.747347696841613065e-04,-9.794180515279794719e+00
4.466166883162062589e-05,-1.464461655927622944e-04,-9.794848131488777199e+00
-2.163378680753432826e-04,1.430290085812436281e-04,-9.794973660834498830e+00
2.683802740142905078e-04,-1.555755903425772859e-04,-9.794216690759682820e+00
-2.695810613531452810e-05,4.792803090125624378e-05,-9.794227579735991895e+00
-2.122201091926358065e-04,-6.301259045086220699e-05,-9.794256447658659326e+00
-5.887209059306876730e-05,-2.078425699724078602e-04,-9.794909383007368575e+00
2.974127889519650016e-04,1.839617153796554798e-04,-9.794631764801478013e+00
-2.528201496468082731e-05,-3.384106678346082464e-05,-9.794262369655610811e+00
9.020198731518232758e-05,-7.351728374871081470e-05,-9.794239374464792647e+00
-9.652591879758270924e-05,1.314127526636103599e-04,-9.794473302046016627e+00
-2.727074854333576986e-04,-6.812620072576530531e-05,-9.794121059653850381e+00
-6.364195026942466821e-05,2.982565164045520938e-04,-9.794251725981515833e+00
-1.914543910340774872e-04,1.992364947411803843e-04,-9.794332003207212978e+00
3.870062577869015944e-04,1.460143531191402126e-04,-9.794489361125796378e+00
-1.653032607038756689e-04,-8.451646745792107428e-05,-9.793940297430689057e+00
-5.838352321864646177e-05,-2.123938368935104762e-05,-9.793994236420035193e+00
-4.430757429194920202e-05,1.361840979847647748e-04,-9.794635450407549015e+00
-2.425057515986238973e-04,-1.048526001106309525e-04,-9.794988425915180486e+00
3.936092257258141849e-04,3.348659460061503276e-05,-9.794485414245544419e+00
8.015791326116539347e-05,2.546499521121542214e-04,-9.794293479795856072e+00
-4.136316898588088828e-04,2.183441674289806548e-04,-9.794522285502718972e+00
6.177530594725042792e-05,-3.160907775668309007e-04,-9.794566134649803857e+00
2.717037457659533697e-04,-1.187937578174287628e-04,-9.794041438370244990e+00
2.586290719717320341e-04,-1.046533614310038077e-04,-9.794384730034190412e+00
2.364841904355626586e-04,6.139839756231005568e-05,-9.794863164264606681e+00
-1.647645651506420472e-04,-2.503192280519088322e-04,-9.794495597243983553e+00
1.180666136770536901e-04,-3.426477565657951615e-04,-9.794441928682314114e+00
-3.538752875772353091e-05,-1.137992593390998363e-04,-9.794491552331086481e+00
2.303743474425640181e-04,-1.848682633022594504e-04,-9.794499662303143950e+00
-1.925802960573266874e-04,1.160325424597602027e-05,-9.794856807999293480e+00
-6.643451398385728736e-05,-1.005116373857722006e-04,-9.794514457929494711e+00
1.244818552978294035e-04,-1.877755725546636709e-05,-9.793812476869161898e+00
1.294926402054212956e-04,3.065852453051325229e-05,-9.794086939243783263e+00
1.320028518333882922e-04,1.278329690185407339e-04,-9.794327539463735022e+00
-1.154826476756583341e-04,3.634278626379405601e-04,-9.794218134394206743e+00
2.546989841370961026e-05,-1.954080564047071548e-04,-9.794532473839330677e+00
2.881908112365424773e-04,-2.119223545269669688e-04,-9.794117099277258376e+00
1.414738920538381347e-05,3.132941904756676542e-05,-9.795084487161004105e+00
2.372019278167249872e-04,-1.314977791161780455e-04,-9.794430642757717465e+00
-3.214287601264639014e-04,1.126617945968014808e-04,-9.794482807837265881e+00
7.124377754739323382e-05,1.501129592104908099e-04,-9.794361062012876928e+00
1.833999281969045337e-04,-1.534279249849198831e-04,-9.794034703427993094e+00
-9.106120788800337593e-05,1.251805997237919940e-04,-9.794189162729797005e+00
4.013145773259912670e-04,-1.560211159094395197e-04,-9.794551872639953416e+00
-1.409617970319948412e-04,-8.529203453867706289e-05,-9.794500673320213124e+00
3.680329701887823557e-05,2.598700710275505849e-04,-9.794878789518383755e+00
-3.947428069512749619e-04,3.258742606696435622e-04,-9.794040467340227707e+00
2.920002533495897232e-05,5.070113237204250064e-05,-9.795022801048050454e+00
2.239666783132000728e-04,1.078075028129896152e-04,-9.793613386870529069e+00
6.272183701725174464e-05,-9.622264430292625263e-05,-9.794645120753038725e+00
9.932714542269128349e-05,-4.269780653314964828e-05,-9.794591878738565072e+00
-9.695127986174124457e-05,-9.146927107516965012e-05,-9.794366422356059587e+00
1.013363509816710205e-04,-5.057285864066193826e-05,-9.794433538848515752e+00
-2.014514356834037759e-04,5.529216875335030851e-05,-9.794936657537839153e+00
-3.443313036778437430e-04,2.205963141387139431e-04,-9.794700404950022588e+00
-1.408646504296057222e-04,-5.532618323947418394e-05,-9.794556303636047900e+00
-2.937056702493457579e-05,-3.654433223237003002e-04,-9.794518080216946032e+00
2.069592082056478672e-04,1.880712694430571220e-05,-9.794459392172845114e+00
8.880504078887366314e-05,2.405471957435448803e-04,-9.794827647496125778e+00
1.206100059827464627e-05,2.163077441972836596e-04,-9.794859597417239883e+00
8.947497451707089866e-05,1.410493817170659667e-04,-9.794836046155747766e+00
-2.719172414805357820e-05,2.180868518276428045e-04,-9.794754607612324193e+00
1.453992373048653959e-04,2.095742101844621976e-04,-9.794696527469136882e+00
6.709379447412719519e-05,9.196193055355644786e-05,-9.794580996319638189e+00
-8.268208396520789329e-05,2.429691942947344871e-04,-9.794197003518965161e+00
3.752032084780029331e-04,1.132533530266782924e-04,-9.794356160874173156e+00
-4.319111619418335786e-06,-1.992894760851040203e-04,-9.794777572408440491e+00
9.325165713672440527e-06,-2.033959679362258945e-04,-9.794887385878904951e+00
-2.583101135551931740e-04,1.649707640684111760e-04,-9.794774480469675026e+00
7.029196892364053453e-05,-3.668651773966450269e-04,-9.794441659679224088e+00
1.829342858814788568e-04,1.749901254632774253e-05,-9.794542510917468192e+00
8.051571669427377669e-05,-2.145011388675345217e-04,-9.794961518535840739e+00
3.274391892057093074e-05,-2.297858788866630555e-04,-9.794886225496240328e+00
2.112956020745424203e-07,1.409490888857730418e-05,-9.794581232762618939e+00
-2.142146754264201761e-04,-1.545344029693783330e-04,-9.794921975715912055e+00
-2.739071120396856262e-04,1.209686557906366496e-04,-9.793895800772064675e+00
-9.442693481334872563e-05,-8.281109050177889932e-05,-9.794754392626579431e+00
2.319603316605786903e-06,-2.431035580733831802e-04,-9.794885168803874720e+00
1.077768119580314833e-04,-2.533245426918839739e-04,-9.794824822800730857e+00
1.323672309176887672e-04,-9.995842220693563964e-05,-9.794748284476188616e+00
-6.304474718109673331e-06,6.603883671831380954e-05,-9.794573753908151659e+00
-1.079659926378547804e-04,-3.567423797287753274e-05,-9.794722354837800182e+00
4.033336022603919166e-04,-1.535728656505832646e-05,-9.794088456283205346e+00
-1.042835169018474197e-04,2.867079782903221553e-04,-9.794733010626572423e+00
-2.143980219020204426e-05,-2.932846363848552328e-04,-9.794630648757227220e+00
2.538705945884760438e-06,-1.517289433107445206e-04,-9.794178129809473887e+00
-5.101773642303687300e-05,1.935549066462793173e-04,-9.794271221128315830e+00
1.467374833976822356e-04,7.178501587233836049e-06,-9.794579985632065444e+00
1.067381844229294495e-04,-1.001211329823592272e-04,-9.793979723156304829e+00
-4.557361569325852149e-05,-3.678393269373484364e-05,-9.794651274822637532e+00
9.434483906823805681e-05,-1.452393620909939035e-04,-9.794786154748152285e+00
-2.217929964698364514e-06,-2.945518974202427587e-05,-9.794225452183196623e+00
6.336321740840464344e-05,1.743872954900700439e-04,-9.794102659304574132e+00
-9.097879536916245419e-05,1.020290219053442057e-04,-9.795028919105297049e+00
-3.277164769459000693e-05,3.284348020206867135e-05,-9.794944279206882598e+00
2.730817087356398340e-04,7.486298877166262594e-05,-9.794587761308580554e+00
1.794089549455340398e-04,-4.824749868502584008e-04,-9.794813015303702741e+00
1.934433727960107338e-04,9.256028764528856422e-05,-9.794730627393432698e+00
-7.914073412002821330e-05,-4.402106516163480803e-04,-9.794659854696160295e+00
-3.610680978262558643e-04,8.461374097922883257e-05,-9.794141734493118534e+00
4.658171402489530107e-04,-4.068756917016214461e-05,-9.794520004335680596e+00
2.493014451541461943e-05,-1.573416753999450340e-04,-9.794091699507681881e+00
-1.698423227831602717e-04,3.438395948014358328e-04,-9.794826896284842377e+00
-2.153484971799286005e-04,3.343101101880372894e-06,-9.794085327141619501e+00
8.673867838446296585e-05,8.975142249517819464e-05,-9.794414697538076808e+00
-3.156029129302564615e-05,-1.482031209991967636e-04,-9.795053699605485775e+00
9.518198724434945800e-05,9.120805389659021904e-05,-9.794596104417360394e+00
-2.005741474075030005e-04,2.784528494515466426e-04,-9.794697730468167052e+00
3.307214701838022864e-04,-1.142276153692127694e-04,-9.794602565645766035e+00
-8.840137279678861850e-07,8.048410579788408184e-05,-9.795238735479241399e+00
1.588427538703880457e-05,1.555654266763560091e-04,-9.794334397099119016e+00
-8.083303853685646224e-05,-6.371342475794658012e-05,-9.795181121203103913e+00
1.318399834757579946e-04,-4.145148660442648489e-05,-9.794692787159251068e+00
1.484323738110965426e-04,-1.094683440396259603e-04,-9.794648072857253140e+00
-2.533683121697468841e-04,-1.730716633435983769e-04,-9.794698675813551247e+00
3.752093093264873762e-04,1.839840703892373184e-04,-9.794715114213653706e+00
4.687618817961032515e-04,-5.640948201621854641e-06,-9.794374427726861398e+00
-1.059281172209351404e-04,-1.475703357818668822e-04,-9.794728747953010739e+00
2.114091685511577262e-04,5.694725971171919396e-05,-9.794437906383043568e+00
-3.752802297224680972e-05,-4.717593121408606110e-05,-9.794249514739851392e+00
-3.048193686260329541e-05,-2.789636500652492080e-04,-9.794959333207035712e+00
6.544192109284609194e-05,3.029056685600205103e-04,-9.794871171062684567e+00
1.722449335396078398e-04,-1.153757005717478973e-04,-9.794795003040199788e+00
-8.531207858255392877e-05,2.342533757090998938e-04,-9.794658000974713730e+00
7.248789405832727615e-05,1.833778550438209057e-04,-9.794731428858945321e+00
9.048034229430610366e-06,-1.368788589095404958e-04,-9.794204169866933540e+00
7.824991613182901101e-05,4.581189278406552664e-07,-9.794396431721844820e+00
-1.803480098203673267e-04,-2.830565884542646880e-05,-9.794271966065593915e+00
-1.803753743236757140e-04,-3.090447399473289589e-05,-9.795203532533696134e+00
-7.008054756710055508e-05,-2.423034640660469028e-04,-9.794454058249288053e+00
1.680239112404501760e-04,7.114043862244959964e-05,-9.794845158431103371e+00
1.800029217946505746e-05,1.905428575539611980e-04,-9.794721046625344485e+00
-5.901638440024760022e-05,-1.778657212685285375e-05,-9.794599518387414605e+00
1.403450341263872821e-05,5.533619457562429634e-05,-9.794790058176729985e+00
3.008152163992289523e-04,-7.248511298739569286e-05,-9.794870010386654613e+00
1.426260886868128979e-05,1.284039264983652482e-04,-9.794135631977219703e+00
9.012940380020269748e-05,-3.396088770024105583e-04,-9.794919248892812291e+00
-1.955207569776457662e-04,2.622025429037482851e-05,-9.794236588994928994e+00
1.866489994495156132e-04,3.248014519031090590e-05,-9.794303134837354818e+00
-6.264766429790596133e-05,-7.363630773597507366e-05,-9.794682241510768606e+00
-9.844502622007061292e-05,1.798868982078459966e-04,-9.795107991969873140e+00
-3.609925142876277047e-04,1.122602705941486633e-04,-9.794412516827723181e+00
-4.509602140252922048e-05,-5.309555617541578674e-05,-9.794566377152154502e+00
-2.596442257818456492e-04,4.126454582892645332e-05,-9.794577278341719762e+00
4.942357931679582610e-05,-2.724837910398216043e-04,-9.794084015730836867e+00
3.588291366043180972e-05,-4.939282117750486470e-05,-9.794786269545459945e+00
1.948550882991854449e-04,-7.644546146772028235e-05,-9.794289579916885202e+00
-1.081602181480691019e-04,1.017445948191803137e-04,-9.794548048733329182e+00
2.392327848376203517e-04,-1.737931474015492941e-05,-9.793996190341957231e+00
9.130088826296355953e-05,3.857587995641809797e-05,-9.794388020046604026e+00
-2.629546969518296497e-06,2.065326018589047489e-04,-9.794799813937798305e+00
-9.442086071994847400e-05,-1.186376185330405508e-04,-9.794827684864197082e+00
5.856458020543845990e-05,1.656905531573973770e-04,-9.794673021046474304e+00
2.297163918898686269e-04,-6.044452705209798886e-05,-9.794415156825115432e+00
-5.909212910813466102e-05,-4.854868280466353487e-05,-9.794976793515969504e+00
5.486358636660130367e-05,3.282391261786830341e-04,-9.794979929240891892e+00
-1.814073979806047905e-04,-2.424335061364515719e-05,-9.794221531679728088e+00
8.088299069547100141e-05,-9.244103432414890178e-05,-9.794469673200968174e+00
-4.214202939911544329e-05,8.699578071687765119e-05,-9.795160659718387564e+00
1.520588720685023890e-05,-2.290622488922682692e-04,-9.794558467509260069e+00
-7.007041995281264887e-05,1.448631088432016892e-04,-9.794665875113647502e+00
2.410305208750547186e-04,-6.072613897712322698e-05,-9.794584068668735100e+00
-2.753198108324123863e-04,1.775934923844223027e-04,-9.794180173480789620e+00
1.648209741339760231e-05,-1.079347030153427516e-05,-9.794582210980443904e+00
9.773490198418659670e-05,1.982314223373823176e-04,-9.794590416936140187e+00
-1.942010922267350579e-04,-4.663797127113636148e-05,-9.794019789837546952e+00
1.365867486782956655e-04,2.380651243883334330e-04,-9.794381194928757139e+00
1.917232429148631992e-04,1.661380748325271250e-05,-9.794371310550216592e+00
8.420345626708619928e-05,-1.212701029500742157e-04,-9.794355704970815424e+00
7.199435199016665737e-05,1.445805071723236168e-04,-9.794723137528288603e+00
-6.050554261470526769e-05,-9.835712726460375615e-05,-9.794620688953088461e+00
-9.442264898214890287e-05,2.278297316969208025e-04,-9.794250540343139022e+00
3.080592576618287892e-04,-3.162106903608772257e-04,-9.794567909136477013e+00
-3.348508734834257611e-04,1.017254129045226451e-04,-9.794492940201415365e+00
2.788736797289752115e-04,1.627032620642955205e-04,-9.793724895716716006e+00
8.047623677227390288e-06,-1.040151169681642661e-04,-9.794749797378484502e+00
-7.045186641014460419e-05,2.753551860995795625e-04,-9.794402525565040207e+00
-1.773411335446719385e-05,2.831841333583074338e-04,-9.795237553453851831e+00
4.733447492366004144e-05,-2.919981189967765220e-05,-9.793957791529484425e+00
-2.756593328296904960e-04,3.690650155718953402e-05,-9.794218400821026904e+00
1.663716889072669089e-04,6.308384241672049340e-05,-9.794637327051958664e+00
-7.518012138783078532e-05,-1.214958512438365292e-04,-9.794170327582710556e+00
-2.128733090863629558e-04,-8.273979416382593705e-05,-9.794450479056719061e+00
-2.401099680657722734e-05,-9.069833092175284134e-05,-9.794782233036093189e+00
3.935909727990305294e-05,1.178957015384058266e-04,-9.794025955686539220e+00
-1.055949305119903555e-04,7.829806294780435982e-05,-9.794896541368226295e+00
-1.628997762995913008e-04,-6.668924492361335741e-05,-9.794188476324782400e+00
-2.640385256803505628e-04,-7.012029909546772560e-05,-9.794466635470053362e+00
-1.295620126984080571e-04,-1.009547779739290756e-04,-9.794340371175495719e+00
1.317844534706064130e-04,2.606082992880748555e-05,-9.794801971512825389e+00
3.455713984493711150e-05,-2.864865759275079084e-04,-9.794424759502151190e+00
-7.109152623114087114e-05,-6.188424323629291592e-05,-9.794143454767967327e+00
-2.506786383749289287e-05,1.209763675897229852e-04,-9.794379507290239317e+00
-2.056814211552914255e-04,3.041540590107918944e-05,-9.794605867816262190e+00
3.203978566882089677e-04,-2.218090656531142692e-04,-9.794121509633134437e+00
1.320973417020913107e-04,2.109255080664773890e-04,-9.794340918986474520e+00
3.069203053604549757e-05,6.621777403343407640e-06,-9.794948820007112644e+00
-1.102162174305376755e-04,-4.422240427965059358e-05,-9.794446557821215649e+00
-5.640811798471557045e-05,-6.972486230063187104e-05,-9.794899863055333000e+00
-5.701985644002824149e-05,-7.744315123226341716e-05,-9.794544505205328377e+00
-5.816527744366126239e-05,-1.182700150756407320e-04,-9.794550657956399675e+00
1.576435335773269974e-04,3.274378797341409792e-04,-9.794296676024492498e+00
7.990584101622160459e-05,1.552695135515357494e-04,-9.794468250428268519e+00
-1.899912178193620253e-04,6.234807150458178990e-05,-9.794130322287829316e+00
-1.917253729792229851e-04,1.890500000444981382e-04,-9.794054093270089467e+00
2.257267660970012192e-05,-5.379444877846539889e-05,-9.794953257537605040e+00
-3.311604154106812707e-04,-2.150791966678889701e-04,-9.794902019845196151e+00
1.644412748397806861e-06,1.158937710954510914e-04,-9.793942860531789307e+00
8.540780350526669363e-05,-2.781151721209421221e-04,-9.794493505385348797e+00
1.506621090925079241e-04,2.959947343831683167e-04,-9.794074042256097457e+00
-1.821703696273077372e-04,-2.742762415721011166e-05,-9.794409344839193565e+00
-1.958609626592030422e-04,-6.695580355840327386e-05,-9.795076897593203213e+00
-4.328653814961566833e-05,2.033445878776148302e-04,-9.794567774201489385e+00
2.727230767736354609e-04,1.168957077742601781e-04,-9.794261591811514123e+00
2.940170104169527693e-04,-3.132904951888854789e-04,-9.794696658228236430e+00
-5.515435600429914755e-05,-3.994703134283015644e-04,-9.793789389321641892e+00
4.492459905294981853e-04,6.906571410969424636e-05,-9.794114524128488597e+00
-2.255522607996187018e-04,7.975991326741678944e-05,-9.794373251033766437e+00
1.123678595146804747e-04,-1.005313438749604792e-04,-9.794176078553867626e+00
6.531933589534426993e-05,-3.781987935121636647e-05,-9.794745039600295300e+00
-1.709419859969363352e-04,-1.782625085739221471e-04,-9.794262869267159388e+00
-1.305769245176508896e-04,5.435437131093967246e-05,-9.794294598244205119e+00
-1.617959434629487759e-04,3.519407040539740243e-05,-9.794404828602701230e+00
-4.427612968934104080e-05,1.988199565449344760e-05,-9.794665867285841543e+00
-9.463522956995925196e-06,-5.674185410472467396e-05,-9.794391226795031713e+00
8.522785928926948878e-05,-2.283101328579031605e-04,-9.794380740708303890e+00
2.341458990773767049e-04,-1.013292272372186303e-04,-9.794443243815493361e+00
2.696859289075536638e-04,2.102113827518451621e-04,-9.794587239063874406e+00
7.110451539232713928e-05,1.346950020785723102e-04,-9.794355220440319698e+00
1.273250229325178552e-04,-1.348857866798228806e-04,-9.794247906050681962e+00
-1.181446247768665805e-04,1.399523917721034376e-04,-9.794564705222738255e+00
-9.555182343134485895e-05,-2.139042809994339846e-04,-9.794640945891798012e+00
-8.118076842661436400e-05,2.310278901909207353e-05,-9.794321996025267651e+00
1.315277022811920109e-04,-3.371517277343892408e-04,-9.794543095384023346e+00
-2.469449556607304815e-04,-2.967059560846890928e-04,-9.794645300752927497e+00
1.679729099673592599e-05,-1.554427804091581611e-04,-9.794984662078844551e+00
-1.149171464482407932e-04,-2.966993592887077802e-05,-9.794502581345419401e+00
2.056776349851097434e-04,-8.234111995908340075e-05,-9.794362997664704196e+00
-1.294654922360146792e-05,1.387592565359818198e-04,-9.794681175648417337e+00
1.042914815170931607e-04,-1.455199651704176421e-04,-9.794720479417197367e+00
-6.044108244476839185e-05,1.382676232557966185e-05,-9.795166935383948115e+00
2.185527024279728674e-05,-1.230536084787544997e-04,-9.794472553628169820e+00
-1.634768356578491979e-04,9.872052740436523322e-05,-9.794901826110992360e+00
-1.267154668384943574e-04,1.428233841237480119e-04,-9.794677868184669123e+00
-2.763313824255891828e-04,1.310645616975739960e-04,-9.794618360283694258e+00
1.657756462193225779e-04,7.837745758230624574e-05,-9.794385266554572311e+00
-6.949754028890023718e-05,-1.963970814979035695e-04,-9.794958268939691237e+00
2.315051296860312960e-04,3.591054786131517404e-04,-9.794457878666998241e+00
4.377857881387362779e-05,-1.645702243960660171e-05,-9.794440594043123838e+00
-2.081422916100026589e-05,-2.378592817536298815e-04,-9.794459414290200172e+00
1.237803920429344227e-04,-1.565997939963420862e-04,-9.794424852943414805e+00
-1.157787715689616369e-04,-5.267272348144004003e-05,-9.794163892499195612e+00
7.748705455810305615e-05,6.805368993785299069e-05,-9.794430893927421167e+00
-3.047440706677593722e-04,8.415443574472892207e-05,-9.794950286296611353e+00
-2.414668207878188644e-04,6.680309279633480214e-05,-9.794271875058944588e+00
2.941478371248146457e-04,-5.931584530450257991e-05,-9.794704789910328557e+00
5.310642942670498648e-05,1.119324784054381063e-04,-9.794769771204940412e+00
-1.201718004211254693e-04,-2.506666659219052397e-05,-9.794560219792424860e+00
4.724433674302414140e-05,-1.362980563391207349e-04,-9.794504873419557001e+00
8.040266085407130222e-05,-1.162550061736465997e-04,-9.794455220170499743e+00
2.922602235273376344e-05,-9.803793507348450027e-05,-9.794903030262766208e+00
8.415777986000106748e-05,-1.297268718708295319e-04,-9.794185317012303216e+00
7.227255992906051678e-05,-4.871861983183750487e-05,-9.795188577939109464e+00
-2.228089758852353451e-04,7.593641028383720437e-05,-9.794354019115452559e+00
2.828872483660259374e-04,3.193696217546312444e-04,-9.795181624865112013e+00
1.883371391722195754e-04,2.333361206624071324e-05,-9.794748996001677810e+00
1.133153901707737501e-04,-9.297509492482465695e-05,-9.794641259571355008e+00
-2.266547464110390034e-04,-5.686076230883384925e-05,-9.794678248804263632e+00
1.402704537921029178e-04,-4.116144065491614044e-06,-9.794821562664679959e+00
1.567944431125933337e-04,-2.484388377120574053e-04,-9.794404077894737881e+00
-9.726103104555484219e-05,1.322409806491462727e-04,-9.794371630939098239e+00
1.608730102529940540e-04,9.074885598159393419e-05,-9.794667997199329790e+00
1.789236781008045601e-04,-3.009799449426486912e-05,-9.794261036707260004e+00
1.449714146209310180e-04,-1.064354998014419663e-04,-9.794827929411402678e+00
2.385571423334618025e-05,1.052505491352397592e-04,-9.794910518972272939e+00
-1.512213879060031842e-04,2.204782826948424145e-04,-9.795221740563107460e+00
-3.126233385029714130e-04,-2.377345431841221637e-04,-9.794806321072913491e+00
5.749382180488541360e-05,-2.733707149832734261e-04,-9.794243151198775976e+00
4.249671609921736655e-05,1.094524290564798878e-04,-9.794283738671945017e+00
7.086245290987673053e-05,-1.102394011888634204e-04,-9.794444196226706367e+00
-2.926292063737040753e-04,1.894459762398733368e-04,-9.794442010428159762e+00
-9.830813821851662341e-05,1.378005725210625836e-04,-9.794175616478931090e+00
9.998100103706987207e-01,2.134184291661612087e-04,-9.794923161497138153e+00
1.000519555359597801e+00,-5.374876528634134083e-04,-9.794796171639202242e+00
1.001310001335457223e+00,-1.414187464443778918e-03,-9.794554495581595077e+00
1.002813028775006110e+00,-2.321716317274240878e-03,-9.795088982863825677e+00
1.004943134462570109e+00,-3.540357041892937956e-03,-9.795792698483037242e+00
1.007342993305930801e+00,-5.693495143738461044e-03,-9.795888809702118394e+00
1.010220249456346364e+00,-7.641715604020438146e-03,-9.796405774372061614e+00
1.013498011496088091e+00,-9.995658383845366229e-03,-9.796783253462088226e+00
1.017681975968966590e+00,-1.231185931893036961e-02,-9.797877195051450272e+00
1.022187056484137102e+00,-1.507254995787613884e-02,-9.798842459367152813e+00
1.026999508815981121e+00,-1.741744468358246214e-02,-9.800445285524393313e+00
1.031700562690754497e+00,-2.047814911608602725e-02,-9.801089246608436056e+00
1.037460094036125158e+00,-2.365742961637673850e-02,-9.801951698858754725e+00
1.042799569429084583e+00,-2.669121945423490530e-02,-9.802583573756773916e+00
1.049173846170309954e+00,-3.041393595928331209e-02,-9.803280051317893040e+00
1.055516393731365188e+00,-3.332362198673997911e-02,-9.804086382595608384e+00
1.061982018189716825e+00,-3.639183669005108257e-02,-9.804827166032065833e+00
1.068739676965351437e+00,-4.048648342940264211e-02,-9.806260011316359382e+00
1.075402775567723790e+00,-4.375355070220790510e-02,-9.807362484923391577e+00
1.081789750542390349e+00,-4.737312817656482572e-02,-9.807561848711268127e+00
1.089295234668934409e+00,-5.085653909277811080e-02,-9.808893806215323252e+00
1.096433344824167433e+00,-5.447711244572063516e-02,-9.809412575588783767e+00
1.103385704027993519e+00,-5.847861164184810917e-02,-9.810091763058139236e+00
1.110895568215559237e+00,-6.205758023573163668e-02,-9.811189066140890702e+00
1.118047680130841437e+00,-6.618142402813464997e-02,-9.812385378140875858e+00
1.125846283445468998e+00,-6.981424127971287696e-02,-9.812914824520836632e+00
1.133464967066418083e+00,-7.345784689361511965e-02,-9.813566910631337237e+00
1.140859644700168873e+00,-7.743668954278740135e-02,-9.814551865268690278e+00
1.148573659476693543e+00,-8.116506360448433322e-02,-9.814796233150401505e+00
1.155683860966743914e+00,-8.487561188131985401e-02,-9.815379329453980617e+00
1.163525036718088490e+00,-8.868182620602996225e-02,-9.816338651116602421e+00
1.171169337172629055e+00,-9.255994237531822710e-02,-9.816390631426926916e+00
1.178682954432291652e+00,-9.633561077749865087e-02,-9.816848078112940357e+00
1.186086952998104405e+00,-1.004872059417012270e-01,-9.817682637946886004e+00
1.194202483861811048e+00,-1.040532194548021983e-01,-9.818727416145749842e+00
1.201764207562297182e+00,-1.080596831877016634e-01,-9.819108097753652231e+00
1.208995811370517481e+00,-1.116457418367221843e-01,-9.820194376139241399e+00
1.216757244552574946e+00,-1.156165000669734655e-01,-9.819970265144824850e+00
1.224512885193899780e+00,-1.194068973142612400e-01,-9.821013153579009725e+00
1.231831562119921175e+00,-1.231286389890456356e-01,-9.821108857804240699e+00
1.239556546563828077e+00,-1.270249731605258559e-01,-9.821011723300859586e+00
1.246955239973129848e+00,-1.306134042511490345e-01,-9.822021091822422889e+00
1.254412411754025403e+00,-1.343961404241335589e-01,-9.822334306718619956e+00
1.261987098291922571e+00,-1.381899891047694562e-01,-9.823320445418870506e+00
1.269554789731292210e+00,-1.415144264043401434e-01,-9.823490913565006366e+00
1.277315293025388598e+00,-1.457376791510102965e-01,-9.824052501532380077e+00
1.284414536939397777e+00,-1.492387585255299243e-01,-9.823582407163245378e+00
1.291378152416246206e+00,-1.530411985313102907e-01,-9.823862723352208448e+00
1.298988268553502579e+00,-1.567315976565430424e-01,-9.824351564309008467e+00
1.306292821240307322e+00,-1.603237999329174823e-01,-9.824558998129209186e+00
1.313803205849731981e+00,-1.638883118875563150e-01,-9.825320610196927262e+00
1.320631244412050709e+00,-1.676489566203690218e-01,-9.825923667817374252e+00
1.328036069308422107e+00,-1.709297209840967002e-01,-9.826246440644133884e+00
1.335513230514195460e+00,-1.746869449273914521e-01,-9.825557124605207804e+00
1.342524163129325210e+00,-1.781313103392253849e-01,-9.826030887726373564e+00
1.349937778821750811e+00,-1.820059397261342415e-01,-9.826504841937767409e+00
1.357001866292646852e+00,-1.854447921884652406e-01,-9.826871359916834692e+00
1.363639863428041998e+00,-1.886280484960019543e-01,-9.827063786591599737e+00
1.370545005289547813e+00,-1.923149064692602772e-01,-9.826862773823798136e+00
1.377958861296495474e+00,-1.960153492827576283e-01,-9.827038420670694663e+00
1.384744407796640875e+00,-1.992245615755421084e-01,-9.827393193269383431e+00
1.391843012312632633e+00,-2.029474277609679966e-01,-9.827766298558440639e+00
1.398313052250469202e+00,-2.062953877778053169e-01,-9.827416746262665370e+00
1.405356219708763454e+00,-2.096778601759236027e-01,-9.827825432230966385e+00
1.412314456613732228e+00,-2.128134673007375521e-01,-9.828245830085140966e+00
1.418898615989930612e+00,-2.165875026581219054e-01,-9.827308179645953601e+00
1.425818502116981579e+00,-2.198089668312792899e-01,-9.827760230556547683e+00
1.432350141170286140e+00,-2.229459313334873349e-01,-9.828400668710543187e+00
1.439206451894464722e+00,-2.268052873765263600e-01,-9.828822809582392850e+00
1.445648260166079613e+00,-2.297851378633489761e-01,-9.827690532783833532e+00
1.452704370425675240e+00,-2.331754390272055000e-01,-9.828653866882469003e+00
1.459018202038710132e+00,-2.364495408461026738e-01,-9.828331667186594345e+00
1.465571727026191651e+00,-2.397150735812737243e-01,-9.828653088915157099e+00
1.472138421752659410e+00,-2.429016338997680990e-01,-9.828316629829609852e+00
1.478665321843051217e+00,-2.459464762362112700e-01,-9.828471217791502568e+00
1.484873618998956424e+00,-2.492776022444016526e-01,-9.829225818315636687e+00
1.491223213408669590e+00,-2.525491988893048823e-01,-9.828446276009115579e+00
1.498027738348206128e+00,-2.554721708935681068e-01,-9.828491698512230812e+00
1.504119862678602537e+00,-2.586578858580181883e-01,-9.828428110315581279e+00
1.510433755446732640e+00,-2.620319947523164772e-01,-9.828523797759451952e+00
1.516945624308081886e+00,-2.653210341563697061e-01,-9.828563296625647538e+00
1.522922078564820314e+00,-2.683165901008723320e-01,-9.828079963211852288e+00
1.529085686006597999e+00,-2.714833196008227811e-01,-9.828686540053011456e+00
1.535293382125615613e+00,-2.743147345538626825e-01,-9.828213346087411040e+00
1.541587738684960796e+00,-2.774669291969114604e-01,-9.827740714629166874e+00
1.547995141683328857e+00,-2.802920267438379076e-01,-9.828003337290050823e+00
1.554025048895126160e+00,-2.833783325449414359e-01,-9.828356181909470024e+00
1.559902652695539960e+00,-2.865746658870799157e-01,-9.827969661841427396e+00
1.565898724117635199e+00,-2.892294876834091144e-01,-9.828287191505856057e+00
1.571657657713866785e+00,-2.923757398947061659e-01,-9.827726956575741468e+00
1.577567269620040680e+00,-2.956570234236377548e-01,-9.827559443896474178e+00
1.583887643903670428e+00,-2.983306873339664489e-01,-9.827747651713849564e+00
1.589251469205899880e+00,-3.010162352006313657e-01,-9.826985689500551402e+00
1.595538866768730690e+00,-3.044190857170120945e-01,-9.826932824351052531e+00
1.601487790006706602e+00,-3.070024028595885190e-01,-9.827356908392857804e+00
1.606924959171896816e+00,-3.097814580143968821e-01,-9.826673466425773995e+00
1.612972433200027700e+00,-3.130577546006981793e-01,-9.826734987924170994e+00
1.618575118403401847e+00,-3.157226743490619270e-01,-9.826235623339913516e+00
1.624357222292101888e+00,-3.187405616616301174e-01,-9.825614114564732660e+00
1.629866337905157225e+00,-3.214099847324417558e-01,-9.826032947430139330e+00
1.635719484045973449e+00,-3.243631478643678179e-01,-9.825940933941652133e+00
1.641357246768708089e+00,-3.269718189454330903e-01,-9.825999001127648569e+00
1.646649618148098959e+00,-3.297744758001086018e-01,-9.825416668693238265e+00
1.652243684273565494e+00,-3.324993765184632299e-01,-9.825326850747687857e+00
1.657948906480152029e+00,-3.351633452911664812e-01,-9.825738685967637664e+00
1.663545855135470042e+00,-3.381581428305404646e-01,-9.825284576264531111e+00
1.668781281817563578e+00,-3.410305205707802045e-01,-9.824843626295411525e+00
1.674526347323310960e+00,-3.435699151678299201e-01,-9.825106037279837778e+00
1.680020387899901158e+00,-3.461594804642142975e-01,-9.824439664016173523e+00
1.685232520313656224e+00,-3.491004141152676543e-01,-9.824322227854089817e+00
1.690893204181858511e+00,-3.516285539890539047e-01,-9.823747032098429699e+00
1.695910122945506249e+00,-3.540796894695014130e-01,-9.824148288332819945e+00
1.700978481739267467e+00,-3.567030012132650363e-01,-9.823564723138284549e+00
1.706523275956575381e+00,-3.595475481242410565e-01,-9.822780208526735279e+00
1.711645505618986096e+00,-3.617400551964802258e-01,-9.823160663482585875e+00
1.716984139983174229e+00,-3.647039554080678814e-01,-9.822715556362084044e+00
1.722039692944663747e+00,-3.672178560735455677e-01,-9.821982190409196178e+00
1.727513905126069060e+00,-3.697530663348534974e-01,-9.821933756109610059e+00
1.732686808441491033e+00,-3.722559971187940353e-01,-9.821138566971818307e+00
1.737293990955805834e+00,-3.750641734602623845e-01,-9.821935627879478048e+00
1.742697945470601750e+00,-3.775543302359157805e-01,-9.820590262915533941e+00
1.747541333850256562e+00,-3.801984525465069154e-01,-9.820618818398054728e+00
1.752794462159856792e+00,-3.822298804703728181e-01,-9.820773805289086056e+00
1.757934335923985403e+00,-3.848880086723440175e-01,-9.819904631027501551e+00
1.762521964220068904e+00,-3.870015459737689567e-01,-9.819661266474252415e+00
1.767538150079444259e+00,-3.896779183422195425e-01,-9.819984159721935058e+00
1.772592700370001273e+00,-3.922265488004921252e-01,-9.819635125652139251e+00
1.777438979038095113e+00,-3.949989166881692770e-01,-9.819397339376040534e+00
1.782061128337184996e+00,-3.971090182528058121e-01,-9.818928948609507046e+00
1.787197905882591309e+00,-3.993616676068398319e-01,-9.818408220685480359e+00
1.791802256137112082e+00,-4.022684120557182275e-01,-9.818534531190021397e+00
1.796914102541993019e+00,-4.043071383643213057e-01,-9.817268591622969609e+00
1.801774487080141318e+00,-4.066665097013122954e-01,-9.817645766056051215e+00
1.806385593536740775e+00,-4.091629050203978712e-01,-9.816840621188758220e+00
1.811020254554843500e+00,-4.113029651492371430e-01,-9.817056980128036514e+00
1.815502725904494019e+00,-4.138344823870837019e-01,-9.816204771934300410e+00
1.820367913837724005e+00,-4.161757642718157402e-01,-9.815936409497114212e+00
1.825080982756702053e+00,-4.183146950435949196e-01,-9.815726963639718861e+00
1.829729952051056374e+00,-4.207909341118666879e-01,-9.815344156249276253e+00
1.833891537630051971e+00,-4.227998366076306525e-01,-9.815385057901970356e+00
1.838500126812383728e+00,-4.252324050542375389e-01,-9.814826787778242689e+00
1.843060881834419185e+00,-4.275195060090997146e-01,-9.813842571854435093e+00
1.847946519749672722e+00,-4.297990438053831408e-01,-9.813642309767978134e+00
1.852356248868089805e+00,-4.318695516328868722e-01,-9.813296100472070904e+00
1.856821833864956250e+00,-4.340113102943496948e-01,-9.813006508858691745e+00
1.861467186535680884e+00,-4.364751437222658126e-01,-9.812639223749584971e+00
1.865699160117980648e+00,-4.384828032791175390e-01,-9.812504370942246368e+00
1.870578579120008245e+00,-4.406588427992501611e-01,-9.811914576969256174e+00
1.874598025663398504e+00,-4.431561271304558236e-01,-9.811425920420729696e+00
1.878854430338510406e+00,-4.450924942507629156e-01,-9.810900313400084727e+00
1.883345906957549998e+00,-4.471915404866321220e-01,-9.810428068273678193e+00
1.887759044658239516e+00,-4.492351689334496134e-01,-9.810726708616430258e+00
1.892042582956683816e+00,-4.514844355581543733e-01,-9.810212101405342722e+00
1.896359596418776494e+00,-4.536516391648434121e-01,-9.810101600141154066e+00
1.900438376818160302e+00,-4.557572591621872338e-01,-9.809271927626475929e+00
1.904615129852593292e+00,-4.576689171842305282e-01,-9.808798002292268947e+00
1.909105756416698441e+00,-4.597131839837989009e-01,-9.808724164212600627e+00
1.912886994978898025e+00,-4.620766124440764955e-01,-9.807557836569458232e+00
1.917215247254628885e+00,-4.640786311866956781e-01,-9.807273058876722516e+00
1.921324008374430958e+00,-4.659367277203532165e-01,-9.806722561423466544e+00
1.925610639641786026e+00,-4.680321276338732517e-01,-9.806453247391420547e+00
1.929284760499836215e+00,-4.700890258219707629e-01,-9.805878776998316226e+00
1.933545275712983180e+00,-4.718580343328857007e-01,-9.805829270340426618e+00
1.937311670550869946e+00,-4.744038324324658662e-01,-9.805451934216996790e+00
1.941501347802060407e+00,-4.758690692538076750e-01,-9.805664804978478699e+00
1.945493706705428982e+00,-4.782143184148215376e-01,-9.804732363192329103e+00
1.949335595683202582e+00,-4.802129990408345872e-01,-9.804492292446022716e+00
1.953430518390500525e+00,-4.820573849415273893e-01,-9.803747295746056523e+00
1.957372811327201312e+00,-4.840230558011773820e-01,-9.803516761965090254e+00
1.961241238867458936e+00,-4.859476306161624182e-01,-9.802645576756514600e+00
1.965121523759857380e+00,-4.876213665409463993e-01,-9.801735793461201496e+00
1.969067914939051089e+00,-4.895702848295238052e-01,-9.802248085096259445e+00
1.972966074924373370e+00,-4.916368324462664363e-01,-9.801770479397770686e+00
1.976790899625313402e+00,-4.933986542549686494e-01,-9.801646167477587213e+00
1.980971997105110072e+00,-4.954585506869371714e-01,-9.800295867841672504e+00
1.984777442666319391e+00,-4.972351789123519716e-01,-9.800256194154931322e+00
1.988294435245056224e+00,-4.992147744726532776e-01,-9.799680767921898905e+00
1.992009029549056232e+00,-5.008522245724930100e-01,-9.799477879901752786e+00
1.995706455010221259e+00,-5.024483182534309478e-01,-9.797994017087292562e+00
1.999323995579468383e+00,-5.045871766158249727e-01,-9.798449921648241911e+00
2.003523792065213360e+00,-5.065383831717040763e-01,-9.798188781548391901e+00
2.006748075322895453e+00,-5.082241976980794718e-01,-9.798144011081530991e+00
2.010552749671803419e+00,-5.101626627663589097e-01,-9.797110734328498438e+00
2.014523168996567914e+00,-5.119428079384971131e-01,-9.795530753175157201e+00
2.017680398766060090e+00,-5.136619432177146338e-01,-9.795891936107867792e+00
2.021106036658974148e+00,-5.155291187426305211e-01,-9.795805417079030519e+00
2.025053696853902352e+00,-5.172113755987552963e-01,-9.795361911263189114e+00
2.028475903375159373e+00,-5.188485468083895435e-01,-9.794883623482093071e+00
2.032246499665976369e+00,-5.206297006133475680e-01,-9.794278518556792434e+00
2.035620375870828003e+00,-5.224980524713754848e-01,-9.793774642744036640e+00
2.039076605743863180e+00,-5.242438407713921888e-01,-9.793192631537975146e+00
2.042304303601838900e+00,-5.257706264214397907e-01,-9.793040228145041937e+00
2.046101271217700912e+00,-5.273829250471339103e-01,-9.792143027979593128e+00
2.049645199278198771e+00,-5.292841191294531678e-01,-9.792196200495670411e+00
2.053249582847924248e+00,-5.308547534215004582e-01,-9.791457409815977897e+00
2.056575583654831618e+00,-5.325479526258751761e-01,-9.790928053638786821e+00
2.059504990313919315e+00,-5.341733470514365978e-01,-9.790893280367704676e+00
2.063331523479142504e+00,-5.359259580857781424e-01,-9.790051445027893706e+00
2.066359349861721206e+00,-5.376444979510943689e-01,-9.789645475863057555e+00
2.069850781371104009e+00,-5.394348488457516577e-01,-9.789279674327090675e+00
2.073128900540998298e+00,-5.409112009197599713e-01,-9.788849336482888575e+00
2.076715540072584520e+00,-5.423046457454255842e-01,-9.788096289388068527e+00
2.079643155305560320e+00,-5.437900022207877715e-01,-9.788778069882370758e+00
2.083208347447980113e+00,-5.456787139915149076e-01,-9.786878208460105810e+00
2.086285993023627050e+00,-5.470913009509433822e-01,-9.786157430333959795e+00
2.089473869143255502e+00,-5.491789308336990638e-01,-9.786120435140178486e+00
2.092875420355386762e+00,-5.505414378442852197e-01,-9.785453464002429769e+00
2.095706610095722677e+00,-5.521284171778712002e-01,-9.785384355693743430e+00
2.099005621412135092e+00,-5.533759023262126986e-01,-9.784914351406534649e+00
2.102478459404594435e+00,-5.552098101315224854e-01,-9.784409446301346236e+00
2.105421122517176613e+00,-5.566217100092071268e-01,-9.784106586327643740e+00
2.108938555654923164e+00,-5.582384023574074039e-01,-9.783816030967997790e+00
2.111996655661745326e+00,-5.594560905444043719e-01,-9.783099108777857822e+00
2.114739218474009697e+00,-5.614729264281375087e-01,-9.782330936546529188e+00
2.117762292347691311e+00,-5.628643830761427269e-01,-9.781847904066639288e+00
2.121178709531962081e+00,-5.643989090252988783e-01,-9.781045206691841187e+00
2.124185637293710016e+00,-5.658973040928440001e-01,-9.781335273885501280e+00
2.127232764451608027e+00,-5.676079462621598237e-01,-9.781012716650796079e+00
2.130222402252644365e+00,-5.687824050014548272e-01,-9.780109304712276241e+00
2.133194928069130913e+00,-5.704624306178720516e-01,-9.779851640854177575e+00
2.136156755068437274e+00,-5.718861517888355062e-01,-9.779283964585284039e+00
2.139461401737014157e+00,-5.734640248300261200e-01,-9.778676641092673094e+00
2.141967624823189364e+00,-5.745052187749839501e-01,-9.777508889973558937e+00
2.144798419476064755e+00,-5.763463123584634529e-01,-9.778362431675571287e+00
2.147849062105217754e+00,-5.777969774491727994e-01,-9.777266606034805463e+00
2.150873325259363256e+00,-5.789561767750983634e-01,-9.777070976367399524e+00
2.154063896905895170e+00,-5.805860280605404933e-01,-9.776400573249228287e+00
2.156589499789602904e+00,-5.819247315414999289e-01,-9.775731797941954682e+00
2.159484289360082077e+00,-5.835239284667096404e-01,-9.775278733077090720e+00
2.162519908019457482e+00,-5.849304055707207350e-01,-9.774562221931230255e+00
2.164982228552725374e+00,-5.860219511295436945e-01,-9.774202443876861324e+00
2.167805277807631992e+00,-5.879595226142175779e-01,-9.773885165880550119e+00
2.170818369795066261e+00,-5.887578420784587152e-01,-9.773188009629224737e+00
2.173653992517754485e+00,-5.902536224260207520e-01,-9.772548090109106411e+00
2.176514185484072161e+00,-5.915275510527094882e-01,-9.771704486964489789e+00
2.178865046716373932e+00,-5.928092354491761862e-01,-9.771758052587580679e+00
2.182027449032275523e+00,-5.940124160441750956e-01,-9.771910235576186210e+00
2.184761464981057610e+00,-5.954431620367378608e-01,-9.770592494949909224e+00
2.187367509682655253e+00,-5.967875412615818442e-01,-9.770598347586572530e+00
2.190017668570753084e+00,-5.980270721948686141e-01,-9.769744208817057185e+00
2.193024687308970933e+00,-5.992923638072574777e-01,-9.769617219392682017e+00
2.195282067734932507e+00,-6.009387145780333839e-01,-9.768602526975396216e+00
2.197888972696674603e+00,-6.023321971970500011e-01,-9.768578944018535992e+00
2.200618086866102718e+00,-6.031709698242249118e-01,-9.768125552790261068e+00
2.203134993445000855e+00,-6.047278937416555866e-01,-9.767827834830397293e+00
2.206068766932694381e+00,-6.062724651533099030e-01,-9.767329135241856974e+00
2.208603401171074232e+00,-6.073035139361699919e-01,-9.765822119857567429e+00
2.211438099241282540e+00,-6.085184763193437485e-01,-9.766058241548421393e+00
2.213754069120806189e+00,-6.100447985978401100e-01,-9.765661434477250324e+00
2.215995161064525654e+00,-6.112146789374940381e-01,-9.765242005441699291e+00
2.218853458058591688e+00,-6.121485490945060004e-01,-9.764744256117879218e+00
2.221505800067942626e+00,-6.135117694507418173e-01,-9.763964669422124487e+00
2.223986761943153034e+00,-6.148976728902569855e-01,-9.763545176030447692e+00
2.226274553504130171e+00,-6.159713284860414140e-01,-9.762706171075224759e+00
2.228950670347528362e+00,-6.170606018024973327e-01,-9.762724634332682783e+00
2.231116808551361519e+00,-6.185345889744561232e-01,-9.761420317545068670e+00
2.234015841227869892e+00,-6.196577856801168682e-01,-9.762262824481878098e+00
2.236379407966606170e+00,-6.208331057679120635e-01,-9.761104706049120949e+00
2.238931233851384928e+00,-6.221152140081147586e-01,-9.760725308916775589e+00
2.241318199955684154e+00,-6.229886159170343607e-01,-9.760027821383877367e+00
2.243598780008845939e+00,-6.245270172478240012e-01,-9.759824423307810193e+00
2.245960655805580242e+00,-6.254292547862230212e-01,-9.758950796145537510e+00
2.248757738425831931e+00,-6.267078343474391522e-01,-9.758825823541911859e+00
2.250951729992321404e+00,-6.279061902041723764e-01,-9.759096290583652689e+00
2.253245148781639173e+00,-6.291471037566845892e-01,-9.757368866202819291e+00
2.255488751771700162e+00,-6.299840057421983719e-01,-9.757720329237089985e+00
2.257889193777287584e+00,-6.313880256052171180e-01,-9.756528909123654003e+00
2.260483847554608516e+00,-6.324142289021374985e-01,-9.756264930004379110e+00
2.262704753119127332e+00,-6.335274057666053782e-01,-9.756452964364536129e+00
2.264691269440191945e+00,-6.346459017349248555e-01,-9.755589345558211889e+00
2.267352413281439993e+00,-6.359131452108829352e-01,-9.755376414237010962e+00
2.269528134885983928e+00,-6.368561784504700451e-01,-9.755068249603858987e+00
2.271868988482625973e+00,-6.379491129614917044e-01,-9.754059041483008841e+00
2.273973072689194463e+00,-6.390321594056146415e-01,-9.753288207055437198e+00
2.276101195254627729e+00,-6.401933589168022909e-01,-9.752993935897700695e+00
2.278524363322876667e+00,-6.416679949742603029e-01,-9.752655670920868047e+00
2.280584240637645088e+00,-6.423119041244538252e-01,-9.752031979658370986e+00
2.283204238739022340e+00,-6.435289565034811865e-01,-9.751565086616080791e+00
2.285046007103654020e+00,-6.443556793739502186e-01,-9.750639553816736083e+00
2.287322779227527469e+00,-6.454824316860502398e-01,-9.750775894115188080e+00
2.289807668772464222e+00,-6.464671625700625368e-01,-9.749998995003039681e+00
2.291920559281867220e+00,-6.477449534537518261e-01,-9.749704326324952319e+00
2.293934226548218103e+00,-6.488610839335829938e-01,-9.749590832894833525e+00
2.295945674574620732e+00,-6.496323575091447200e-01,-9.749644209681017415e+00
2.298223624369653884e+00,-6.507995197633654749e-01,-9.749129812825144015e+00
2.300142389394427056e+00,-6.516087206897643869e-01,-9.747540155586047916e+00
2.302443018540606179e+00,-6.527213383601405683e-01,-9.747738918755036508e+00
2.304533190642660934e+00,-6.537888916520806504e-01,-9.746530478697483346e+00
2.306440825453675458e+00,-6.544720588382407778e-01,-9.746349446691102258e+00
2.308479073408303606e+00,-6.556141711829540641e-01,-9.746531650037862704e+00
2.310538471720159581e+00,-6.566718521244258033e-01,-9.746083056537909073e+00
2.312811015471365472e+00,-6.580460311372795523e-01,-9.745492484043282388e+00
2.314809203851764252e+00,-6.588394013797684856e-01,-9.744700290539388021e+00
2.317172081033926023e+00,-6.598546481547606923e-01,-9.744385811018739574e+00
2.318853217676477563e+00,-6.610649798421160961e-01,-9.743943691110461103e+00
2.321154793728913202e+00,-6.617999317774170276e-01,-9.743878079516965940e+00
2.322728341518519368e+00,-6.625555781145772150e-01,-9.742847105873815750e+00
2.325148875324745568e+00,-6.638519683283220507e-01,-9.742637077230115850e+00
2.326905498094963942e+00,-6.647934374078275921e-01,-9.741845092605284862e+00
2.329150078363123821e+00,-6.655089776662856949e-01,-9.741965274976253752e+00
2.330883686867384341e+00,-6.667745599231720277e-01,-9.740900388148121536e+00
2.332833708721930854e+00,-6.675665340206651255e-01,-9.741079311441769306e+00
2.334555471042187857e+00,-6.686155038624198577e-01,-9.740137629723898627e+00
2.336408657471441330e+00,-6.692014280469987808e-01,-9.739200531649531811e+00
2.338431762079349774e+00,-6.700931964401919405e-01,-9.739492058967400112e+00
2.340345605135223828e+00,-6.712502984723860422e-01,-9.738936339921703933e+00
2.342303236696835267e+00,-6.725519075809175407e-01,-9.739298933921233470e+00
2.344408331284691283e+00,-6.731159430484667805e-01,-9.738511823759449015e+00
2.346383026793453119e+00,-6.741238768939749049e-01,-9.737546678099176845e+00
2.347679078974627132e+00,-6.750924900843757737e-01,-9.737248305163408446e+00
2.349692391579263351e+00,-6.758627966208842208e-01,-9.736490594228980555e+00
2.351487261325111877e+00,-6.765609570644119941e-01,-9.736342190478058711e+00
2.353338819089390910e+00,-6.775537645740233872e-01,-9.736044072206453848e+00
2.355426124444505831e+00,-6.786407485908845238e-01,-9.735646203893603357e+00
2.357428190870418216e+00,-6.796891239742790525e-01,-9.734547643847859533e+00
2.359047933312503176e+00,-6.801851104571580153e-01,-9.734553117494561647e+00
2.360515546826911226e+00,-6.813220712529700629e-01,-9.734535156349071627e+00
2.362726867785965634e+00,-6.818591036457705146e-01,-9.733495325279033494e+00
2.364336386901498610e+00,-6.825697815313761518e-01,-9.733101417232123964e+00
2.365981492473790304e+00,-6.837630309100858339e-01,-9.732819874446866137e+00
2.367738082375410169e+00,-6.847008249213251130e-01,-9.731987364183169120e+00
2.369697146590773240e+00,-6.850188708665639892e-01,-9.731747325155520656e+00
2.371103876519015774e+00,-6.861796083850784100e-01,-9.731941827558829416e+00
2.372952671199422436e+00,-6.869675453457992909e-01,-9.731290472777194722e+00
2.374918869591116088e+00,-6.877019826434110916e-01,-9.730942624922930051e+00
2.376534017386428665e+00,-6.886624762028269453e-01,-9.730111344088783198e+00
2.378250498596783391e+00,-6.896923779053049097e-01,-9.729928417693944454e+00
2.380036617604592841e+00,-6.901031805236983452e-01,-9.729320829879977595e+00
2.381509173886773745e+00,-6.909565669596559045e-01,-9.729333179376419949e+00
2.383330234026961314e+00,-6.918642177703961949e-01,-9.728365491456738567e+00
2.385252854444967152e+00,-6.928994002336344993e-01,-9.728328799897393964e+00
2.386523593912099894e+00,-6.935423809651090066e-01,-9.727667558581810425e+00
2.388297851085256163e+00,-6.941884690497857058e-01,-9.726731439226069753e+00
2.389950865390400914e+00,-6.946432828570463514e-01,-9.726784787882893468e+00
2.391679940637186252e+00,-6.961230492849109774e-01,-9.726109823377024455e+00
2.393013426424758894e+00,-6.967500786476956698e-01,-9.726038976981762119e+00
2.394676325022317087e+00,-6.974568150552507007e-01,-9.725504189279739364e+00
2.396613738551016226e+00,-6.982078030632286048e-01,-9.725533434881231898e+00
2.398239499237260208e+00,-6.991076136773697325e-01,-9.724345013936144255e+00
2.399681246704570725e+00,-6.999058245538652967e-01,-9.724246370338470058e+00
2.401036743999514833e+00,-7.008013697288630883e-01,-9.723764827144300682e+00
2.402629841917361286e+00,-7.012183287823764433e-01,-9.723686569890967135e+00
2.404505902666478345e+00,-7.019952349621760845e-01,-9.723005422109382678e+00
2.405959183487206055e+00,-7.027803229521911721e-01,-9.722282751999239636e+00
2.407312121303641028e+00,-7.034022218071989130e-01,-9.722480319594572151e+00
2.408930978928717881e+00,-7.043047807026452389e-01,-9.721495429878883598e+00
2.410382063243210471e+00,-7.053717648128607909e-01,-9.721355736422117033e+00
2.412083202706839291e+00,-7.057793612929289528e-01,-9.720827995860416237e+00
2.413854708154538731e+00,-7.065843411101025984e-01,-9.720932002086044577e+00
2.415029667986079431e+00,-7.070446431963043343e-01,-9.720139398520673879e+00
2.416525108419325552e+00,-7.080091793423484159e-01,-9.720004369418054679e+00
2.418058645470208656e+00,-7.084974590578915210e-01,-9.718952564975683828e+00
2.419747171985845657e+00,-7.093490549447042381e-01,-9.718484571003541461e+00
2.420913394007766506e+00,-7.103281826882303918e-01,-9.718643219521673871e+00
2.422597615716989949e+00,-7.106949329858236464e-01,-9.717965245001662922e+00
2.423876078078732732e+00,-7.114734229193055981e-01,-9.718295688506628949e+00
2.425504216998337181e+00,-7.121517835489080683e-01,-9.717579305567911163e+00
2.426884576307019703e+00,-7.128035410095567848e-01,-9.717127215143980479e+00
2.428201820880105277e+00,-7.133815999768350347e-01,-9.716060812569741856e+00
2.429730809219525778e+00,-7.142153484105512318e-01,-9.716202482471508972e+00
2.430923247089478600e+00,-7.146251327973757173e-01,-9.715977949027191585e+00
2.432510954829562699e+00,-7.155711456866112874e-01,-9.715534150445522599e+00
2.433769108926429947e+00,-7.162869396472347772e-01,-9.714875103630030040e+00
2.435425085393050360e+00,-7.168736753084891111e-01,-9.714335210785337793e+00
2.436456827335670372e+00,-7.176337422483027861e-01,-9.714080230643146407e+00
2.438050591309909532e+00,-7.183708590571261654e-01,-9.714281344936477325e+00
2.439413053487152983e+00,-7.186374462099529570e-01,-9.713117499686468648e+00
2.440632602299911191e+00,-7.197648347551661718e-01,-9.712564129319911643e+00
2.442053602897017228e+00,-7.204683355534020617e-01,-9.712751842235663347e+00
2.443627456638687967e+00,-7.209067402137530056e-01,-9.712357467629795238e+00
2.444673480774000041e+00,-7.214420270391361800e-01,-9.712431261691442330e+00
2.446203665711252917e+00,-7.221740955756639213e-01,-9.711528132355535803e+00
2.447589195836577414e+00,-7.228615349827048897e-01,-9.710871125950328420e+00
2.449063627776296492e+00,-7.235875414201670131e-01,-9.710921544859052901e+00
2.450115395278560371e+00,-7.242389600848305742e-01,-9.710189378720119890e+00
2.451635148213108906e+00,-7.247524209001205975e-01,-9.710236858769061286e+00
2.453094131217091967e+00,-7.256326199782836550e-01,-9.709360308893099756e+00
2.454507977739230906e+00,-7.262757478143764267e-01,-9.710060131996874233e+00
2.455772767673625623e+00,-7.264830621168261171e-01,-9.708826964105384150e+00
2.456988143281408465e+00,-7.270483623149240904e-01,-9.708070356622032548e+00
2.458071515334042889e+00,-7.279333844267759090e-01,-9.707854290522297092e+00
2.459343278151040479e+00,-7.282060992977221758e-01,-9.707892466125587205e+00
2.460657802711769371e+00,-7.289389235728105376e-01,-9.707293274308732123e+00
2.462094668630997685e+00,-7.294848555409594315e-01,-9.706754801418499667e+00
2.463340423731076534e+00,-7.301543895707935938e-01,-9.706603967193524696e+00
2.464327088384074216e+00,-7.308150793795619160e-01,-9.706530583330273743e+00
2.465441870727014706e+00,-7.315242461496385129e-01,-9.705791530425074143e+00
2.467178594599797048e+00,-7.320765124911460253e-01,-9.705675875870833025e+00
2.468174598435808331e+00,-7.322758006560825539e-01,-9.705663962022356372e+00
2.469409149002008697e+00,-7.329438881347749568e-01,-9.704715173917584536e+00
2.470517010095455657e+00,-7.338387983628424927e-01,-9.704464638899224838e+00
2.471789673267732024e+00,-7.342879365525888380e-01,-9.704231567836449912e+00
2.473327959789800801e+00,-7.352128441597741704e-01,-9.703489320249236272e+00
2.474037331545030138e+00,-7.354132774231664227e-01,-9.703246042969094987e+00
2.475318326510040023e+00,-7.358210317805184975e-01,-9.703146301190646028e+00
2.476570717333232086e+00,-7.366569301471060927e-01,-9.702403899136706755e+00
2.477932027990504160e+00,-7.370950269015356104e-01,-9.702410939069856965e+00
2.478805661046322051e+00,-7.379295035048384355e-01,-9.702252754330018547e+00
2.479941869147066491e+00,-7.382861038065522408e-01,-9.701286250406987222e+00
2.481129940553252311e+00,-7.390578256106896671e-01,-9.701217456740765854e+00
2.482459990284824780e+00,-7.396708112173173699e-01,-9.701097271338264605e+00
2.483674519832615335e+00,-7.400099418653205419e-01,-9.700424914841043744e+00
2.484841824860012593e+00,-7.403093535088265398e-01,-9.699531868543980195e+00
2.485687025450872056e+00,-7.411454979525229358e-01,-9.700031517904275091e+00
2.486879587012133630e+00,-7.415760489021838708e-01,-9.699386322755643164e+00
2.488209348001388932e+00,-7.421540869858218592e-01,-9.700016632707443520e+00
2.489544641622674970e+00,-7.426904031497963965e-01,-9.698870633043249256e+00
2.490191733332664636e+00,-7.430370853431167433e-01,-9.698650534163876458e+00
2.491557769836487690e+00,-7.439967772037073823e-01,-9.697829337246195891e+00
2.492373749968817886e+00,-7.442351215089582084e-01,-9.698659415301850828e+00
2.493317589156116121e+00,-7.444593599285639351e-01,-9.696997390723831600e+00
2.494621594750541238e+00,-7.454987216016276674e-01,-9.696771362230146352e+00
2.495856256266734352e+00,-7.456817743387486042e-01,-9.697308953827858957e+00
2.496810701724428316e+00,-7.462389788608650987e-01,-9.696237157511147231e+00
2.497984546659506311e+00,-7.468282739257414704e-01,-9.695507434070565367e+00
2.499064808510235824e+00,-7.473980239789602686e-01,-9.695567608434183526e+00
2.500140272116162965e+00,-7.475863092452672554e-01,-9.695894418704925855e+00
2.500809088299548844e+00,-7.479058208034953248e-01,-9.694927911007948040e+00
2.502407273930652654e+00,-7.490244659164346785e-01,-9.694522777382825751e+00
2.503265452311289163e+00,-7.494442039544991774e-01,-9.694437185239111798e+00
2.504338874902479084e+00,-7.495965180674416528e-01,-9.694017255886063111e+00
2.505136785973797853e+00,-7.502539454944540109e-01,-9.693589481065824742e+00
2.506482247752750414e+00,-7.508312948893023364e-01,-9.693823492494184180e+00
2.507224352389122224e+00,-7.514961488480694785e-01,-9.693410686549697175e+00
2.508494323823232452e+00,-7.518853179883803195e-01,-9.693015727340567267e+00
2.509643737573484579e+00,-7.525319044373687261e-01,-9.693527858937844854e+00
2.510374917645730619e+00,-7.528723571432669459e-01,-9.692727359900260353e+00
2.511689827061021063e+00,-7.530176142867547329e-01,-9.691859925610248894e+00
2.512510120197211982e+00,-7.536078420899221531e-01,-9.691560176442710173e+00
2.513421238095883137e+00,-7.541620201890033570e-01,-9.691606566541487666e+00
2.514271196935245367e+00,-7.547401219289359142e-01,-9.691321259763602924e+00
2.515315034501408586e+00,-7.549682605494277832e-01,-9.691063844533875482e+00
2.516229558350684847e+00,-7.554452093361599951e-01,-9.690629446479810838e+00
2.517309590129880537e+00,-7.558436808584303446e-01,-9.689554313979376943e+00
2.518096904679659076e+00,-7.563432229850663990e-01,-9.690099796332333426e+00
2.518899854634731206e+00,-7.568994343271382430e-01,-9.689261537285865700e+00
2.520514672951382984e+00,-7.573208097852515142e-01,-9.689421455127833482e+00
2.521161874878643960e+00,-7.575008250397875509e-01,-9.688696094874243769e+00
2.521971804731040656e+00,-7.584204429665946101e-01,-9.688078577589916307e+00
2.523107168254367316e+00,-7.591083416589095023e-01,-9.688170936283459156e+00
2.523832357229041090e+00,-7.589221986320532354e-01,-9.687962737192119533e+00
2.524759083561988415e+00,-7.596090432850413077e-01,-9.687481110180193866e+00
2.525916364636304312e+00,-7.601635516409733784e-01,-9.687327165579359800e+00
2.526669425989553908e+00,-7.603983834618884829e-01,-9.686211356864241395e+00
2.527693680700120904e+00,-7.609670770232339621e-01,-9.686900463152438689e+00
2.528707554595500007e+00,-7.615552310137406744e-01,-9.686535901481981625e+00
2.529481146402292158e+00,-7.618323671656056506e-01,-9.685840710399112652e+00
2.530566492302167791e+00,-7.618698986377669957e-01,-9.685501911396048769e+00
2.531015628234985826e+00,-7.626315833382448783e-01,-9.685337879600709243e+00
2.531999198875874768e+00,-7.627805440144120874e-01,-9.685265584673789618e+00
2.533482815262044774e+00,-7.633523174449867721e-01,-9.684009806532635878e+00
2.533689844865510743e+00,-7.639281802284217937e-01,-9.685013967764682263e+00
2.534683589253729163e+00,-7.640438612030916454e-01,-9.684603117481895396e+00
2.535749747455259051e+00,-7.645860624402917027e-01,-9.683882241874364638e+00
2.536523869326004377e+00,-7.651225605138390895e-01,-9.683978136200275699e+00
2.537343853959873829e+00,-7.653988907691561261e-01,-9.682743217889548504e+00
2.538325352505533150e+00,-7.660487049386628389e-01,-9.683017058810730049e+00
2.539105267253667808e+00,-7.662054931429486127e-01,-9.682845727919367818e+00
2.540043617994278691e+00,-7.666989850469845269e-01,-9.682709599436693182e+00
2.540803638978589074e+00,-7.671579801316841252e-01,-9.681894563453512959e+00
2.541478656299772432e+00,-7.675883919664285848e-01,-9.682676012597363879e+00
2.542423856640354529e+00,-7.677216792676347934e-01,-9.682029642750036302e+00
2.543183615586441348e+00,-7.682307917671474806e-01,-9.681691522171139042e+00
2.544237426428598958e+00,-7.684058878213431143e-01,-9.681285677285378810e+00
2.545025320029483673e+00,-7.688577044904399971e-01,-9.680284854482449575e+00
2.545826945346098213e+00,-7.693396563152108403e-01,-9.680026329804535479e+00
2.546756975543389423e+00,-7.698935679050947778e-01,-9.680113856842849529e+00
2.547422661644500597e+00,-7.701261157815474379e-01,-9.679314725522917939e+00
2.548239862502530872e+00,-7.703171288482640877e-01,-9.679877525426295648e+00
2.549050613862811954e+00,-7.710957676015004481e-01,-9.679988769566543638e+00
2.549853876645433726e+00,-7.713975098183346590e-01,-9.679073437487177856e+00
2.550803042033268575e+00,-7.717373481462095341e-01,-9.678991283223451703e+00
2.551393624207471511e+00,-7.720004221644509723e-01,-9.678889879838605381e+00
2.552009395277455628e+00,-7.723845018931062567e-01,-9.678062675941058401e+00
2.552819907997201376e+00,-7.727540718452901025e-01,-9.677654059816982013e+00
2.553702938860291649e+00,-7.728084383125082280e-01,-9.677483232486105535e+00
2.554451176082384034e+00,-7.734110943948635519e-01,-9.676937121182831447e+00
2.555310257947466024e+00,-7.738313693214479150e-01,-9.676727729167163616e+00
2.556086144507480729e+00,-7.742368455379716741e-01,-9.676546136974824464e+00
2.556944301155425148e+00,-7.746262917820906369e-01,-9.676448277172724488e+00
2.557690849870250638e+00,-7.751027524968374660e-01,-9.676733640906824974e+00
2.558423216056310956e+00,-7.753967642526057302e-01,-9.676467848484879397e+00
2.559120939718051879e+00,-7.758946411779800156e-01,-9.675119666059638135e+00
2.559864912948741189e+00,-7.758714010357932178e-01,-9.675839077238602925e+00
2.560621496327106339e+00,-7.766753141645140746e-01,-9.675454809010199497e+00
2.561207452252802330e+00,-7.764752314590389615e-01,-9.675383140576272467e+00
2.562125118587352812e+00,-7.771648631504631810e-01,-9.674647723882115358e+00
2.562400592899642948e+00,-7.775812812222692161e-01,-9.674440313778706724e+00
2.563475120149954378e+00,-7.776817892048968339e-01,-9.673856686654129788e+00
2.563945557255686847e+00,-7.780263100712705437e-01,-9.673552446430480956e+00
2.564896249642049320e+00,-7.785936173334294663e-01,-9.673444549241354551e+00
2.565560890181752818e+00,-7.788652844056375146e-01,-9.673176293813396498e+00
2.565956125155183010e+00,-7.791039370110619533e-01,-9.672887642876132119e+00
2.566930838516993330e+00,-7.794099169973475183e-01,-9.673340947187901051e+00
2.567744877342683640e+00,-7.797863729622380724e-01,-9.672210062769904582e+00
2.568611649649059636e+00,-7.802989793373535932e-01,-9.671940348427924050e+00
2.568893498832334643e+00,-7.803227686664068186e-01,-9.672061879246026450e+00
2.569906087801405725e+00,-7.805506335673214613e-01,-9.672034915927692822e+00
2.570598159597208721e+00,-7.808212092816548822e-01,-9.671689046518713084e+00
2.571431080559592353e+00,-7.814982185592156405e-01,-9.671375307886876271e+00
2.572071771070020940e+00,-7.816532424460486128e-01,-9.671178627343699929e+00
2.572378066809085873e+00,-7.819892901396150453e-01,-9.671278420511397300e+00
2.573376620229863132e+00,-7.820534730288865033e-01,-9.670752449587748600e+00
2.573819690496046420e+00,-7.824204851012268591e-01,-9.670814994216136995e+00
2.574982002476032594e+00,-7.828529294578152609e-01,-9.669686865052607772e+00
2.575069264152903159e+00,-7.833655112580666380e-01,-9.669616922320747321e+00
2.575670030527379417e+00,-7.832649411951515539e-01,-9.669880835504011785e+00
2.576207937060990716e+00,-7.840519615243471963e-01,-9.669607568140866860e+00
2.577071702984767398e+00,-7.841609873399510988e-01,-9.669392241134280752e+00
2.577742679712184959e+00,-7.845959610425374819e-01,-9.668964793599801766e+00
2.578520283434171834e+00,-7.846852951271195975e-01,-9.668472691557097320e+00
2.578991892474820080e+00,-7.852143687492947333e-01,-9.668690495867487300e+00
2.579592336574854539e+00,-7.854075555420924060e-01,-9.668094169811094929e+00
2.580467241283047830e+00,-7.857004877250075570e-01,-9.667886850191781178e+00
2.581064106927316804e+00,-7.859447264942927003e-01,-9.667835457347674577e+00
2.581602885138553738e+00,-7.861184323209865488e-01,-9.667346544694035870e+00
2.582061864886751934e+00,-7.864680908076365773e-01,-9.666882124642260266e+00
2.582929117111957940e+00,-7.866885157729561762e-01,-9.667188747198693477e+00
2.583539017529567605e+00,-7.871825182528487952e-01,-9.666940002625821649e+00
2.584125474412447332e+00,-7.877089175742871818e-01,-9.666489013134318853e+00
2.585256818420591074e+00,-7.878836542598253168e-01,-9.666454352356080193e+00
2.585559016140857924e+00,-7.881488035029907691e-01,-9.666031280010141558e+00
2.585806056153186816e+00,-7.883744417471650889e-01,-9.664823642089169553e+00
2.586737024723849032e+00,-7.882191256343032970e-01,-9.665731149633911556e+00
2.587068265268068323e+00,-7.887816630687973785e-01,-9.665517569861622249e+00
2.587864614791529405e+00,-7.891923297093705880e-01,-9.665069792585150310e+00
2.588439377394967877e+00,-7.893264786267112365e-01,-9.664051889026092468e+00
2.589052792633160571e+00,-7.899627175029531045e-01,-9.664665321382035046e+00
2.589221256846329755e+00,-7.897322112757190204e-01,-9.663963763688467878e+00
2.589905493615750842e+00,-7.903772050049835407e-01,-9.663669273017104544e+00
2.590521454947142033e+00,-7.907712067024240676e-01,-9.664085698115661316e+00
2.591084254379274032e+00,-7.907404602932754933e-01,-9.664108896728231812e+00
2.591911370929080416e+00,-7.910797445696181596e-01,-9.663008514827561513e+00
2.592628776049866524e+00,-7.911657812324335293e-01,-9.663469667517569306e+00
2.592670658680787277e+00,-7.916699141341296819e-01,-9.662257592226971781e+00
2.593593257711545697e+00,-7.919428870658901110e-01,-9.663603530256088092e+00
2.593943925064293943e+00,-7.923070322053671344e-01,-9.662753492517961007e+00
2.594855712576351614e+00,-7.922593658848300358e-01,-9.662411116081992546e+00
2.595349754253301278e+00,-7.923828631083448260e-01,-9.662088198370716086e+00
2.595866030912755917e+00,-7.926230767831476953e-01,-9.661616558241316710e+00
2.596633698400967472e+00,-7.932469491122563499e-01,-9.661851023440162223e+00
2.596972445579300626e+00,-7.932270292184491201e-01,-9.661500082225698449e+00
2.597565131053100274e+00,-7.935816070237304842e-01,-9.661101526280379659e+00
2.598019327017604851e+00,-7.939830483285879037e-01,-9.660885351606577132e+00
2.598481002137944529e+00,-7.941690647727999153e-01,-9.660534794485467813e+00
2.598922490970455801e+00,-7.942311340585185286e-01,-9.660360063598227853e+00
2.599474524445771095e+00,-7.947591487377341224e-01,-9.660550140673509034e+00
2.599991697862946705e+00,-7.951608322034663390e-01,-9.659894800916365654e+00
2.600601309969508890e+00,-7.952986883758751402e-01,-9.659974218423593939e+00
2.601315836845598639e+00,-7.952377557328597080e-01,-9.660076878858435023e+00
2.601738236692156647e+00,-7.957569983252354984e-01,-9.659414305537813661e+00
2.602276052238327253e+00,-7.957673905970302775e-01,-9.659156033300003941e+00
2.602825170698900514e+00,-7.960778468035533129e-01,-9.659662295858248982e+00
2.603269149736997967e+00,-7.966512649653711975e-01,-9.659054693857369145e+00
2.603634267282052051e+00,-7.968280603029711529e-01,-9.659221586295815953e+00
2.604298258269595490e+00,-7.967127847250609074e-01,-9.658846801402241056e+00
2.604701528959995738e+00,-7.970276015971821115e-01,-9.658175224072858001e+00
2.605457785492599765e+00,-7.975489557929587026e-01,-9.658455403043138432e+00
2.606002312569834611e+00,-7.973741462907938393e-01,-9.657742655034375900e+00
2.606048323169054548e+00,-7.976369716018577583e-01,-9.657657502170524211e+00
2.606939185013310567e+00,-7.979446074509993769e-01,-9.657739184899655882e+00
2.607358692730391780e+00,-7.979804415878932744e-01,-9.657837130288555727e+00
2.607729733506078507e+00,-7.984855796048275778e-01,-9.656569734324884635e+00
2.608187829473905150e+00,-7.987637102804430178e-01,-9.657079237675459282e+00
2.608667066387826861e+00,-7.988138081089081188e-01,-9.656626118995601971e+00
2.609504490777308394e+00,-7.991667316492051532e-01,-9.656663317029096305e+00
2.609944508622318970e+00,-7.991470964224208773e-01,-9.656644373497233147e+00
2.610158579401002044e+00,-7.994695254499615267e-01,-9.656325266675274577e+00
2.610561409934585075e+00,-7.999596905314275697e-01,-9.655719558096739874e+00
2.610993642937069037e+00,-8.000406811020955855e-01,-9.655379252526127942e+00
2.611693996084742508e+00,-8.003530950559296642e-01,-9.655553961663077445e+00
2.612100476852984077e+00,-8.005842375668977828e-01,-9.655903861677764155e+00
2.612839947757596093e+00,-8.007170259694104120e-01,-9.655069056646137682e+00
2.613363759648763551e+00,-8.009132888923361504e-01,-9.655020857464700512e+00
2.613455031045860633e+00,-8.012552579046964274e-01,-9.654797559467406032e+00
2.613884265464209378e+00,-8.015690101679003865e-01,-9.654996593415095418e+00
2.614503978393837080e+00,-8.015766487220659098e-01,-9.655000912268885571e+00
2.614485397695222257e+00,-8.017794084507309238e-01,-9.653892234998048494e+00
2.615283701827705531e+00,-8.018489751886953565e-01,-9.654104676065255575e+00
2.615881277062942711e+00,-8.018542552343574936e-01,-9.654048989214651044e+00
2.616112888221993504e+00,-8.027602403359075378e-01,-9.653812959102394231e+00
2.616721923993626575e+00,-8.024200192897976702e-01,-9.653414696934568440e+00
2.616801478285661009e+00,-8.028956550569354977e-01,-9.653603704870219460e+00
2.617514888230579206e+00,-8.031104197667607858e-01,-9.651945507395984336e+00
2.617810988301612962e+00,-8.033085345950700118e-01,-9.652383451430386785e+00
2.618466481302736959e+00,-8.032795212203742707e-01,-9.652984565071344392e+00
2.618869734810152838e+00,-8.035363085435184294e-01,-9.652556353905373143e+00
2.619535235480056734e+00,-8.036490975181882490e-01,-9.652564751209233407e+00
2.619600924455151247e+00,-8.038447348413441107e-01,-9.652612204811291008e+00
2.620055022093429109e+00,-8.042275777513578916e-01,-9.652290435595897833e+00
2.620420920759939598e+00,-8.044837511013042120e-01,-9.651410598736243074e+00
2.621524369434518942e+00,-8.046284541820536429e-01,-9.651213104376354934e+00
2.621217994298541853e+00,-8.049952305001518704e-01,-9.651731610620789326e+00
2.621943279039620212e+00,-8.048047487555961554e-01,-9.651065404806622894e+00
2.622143990294669713e+00,-8.048430235676206079e-01,-9.650374159524309547e+00
2.622708667971116459e+00,-8.053475190493879499e-01,-9.650607040548477400e+00
2.623129620941382800e+00,-8.054009553946899214e-01,-9.651205662163897969e+00
2.623423257524544194e+00,-8.055628337495708280e-01,-9.650163366156355949e+00
2.623906594075804843e+00,-8.058752892353943098e-01,-9.650328215765323847e+00
2.624285668085463374e+00,-8.059960985000896860e-01,-9.649638629031560555e+00
2.624755026449808071e+00,-8.064291455863020763e-01,-9.650519593082080405e+00
2.625073649827958988e+00,-8.064432429716876793e-01,-9.650323573935926547e+00
2.625293367247908183e+00,-8.066931067844104186e-01,-9.649696724762744537e+00
2.626046084782216461e+00,-8.072577867490516867e-01,-9.650051774672837368e+00
2.626024154987083747e+00,-8.072078659847814475e-01,-9.649224464639720722e+00
2.626634392084586267e+00,-8.071795429828806379e-01,-9.649216039991626914e+00
2.627092287519028790e+00,-8.073612362176082469e-01,-9.648856810492702607e+00
2.627489721447076043e+00,-8.076550035679450623e-01,-9.649009236601953532e+00
2.628073060383313120e+00,-8.079490359814124334e-01,-9.648842003377090748e+00
2.628328955606790807e+00,-8.079057432848526510e-01,-9.648443912808481571e+00
2.628559929117750382e+00,-8.079633510336463598e-01,-9.648811720366872180e+00
2.628823870149978870e+00,-8.082212219200531900e-01,-9.648845619675181950e+00
2.629396512429735822e+00,-8.083333810106350104e-01,-9.648040722642468481e+00
2.629787479595386834e+00,-8.090326534527878533e-01,-9.648312425712132878e+00
2.630317962224678840e+00,-8.086695024450875069e-01,-9.647683432660130620e+00
2.630670405035672399e+00,-8.085986153056272663e-01,-9.647420793808311856e+00
2.630940984778896929e+00,-8.090130344113690697e-01,-9.647642564888462502e+00
2.631621269775551664e+00,-8.094878770182671879e-01,-9.647090158088861500e+00
2.631777121398944264e+00,-8.096261665284198994e-01,-9.647413006719276041e+00
2.631908393538903379e+00,-8.097758370136649564e-01,-9.646412791122791930e+00
2.632416037117629060e+00,-8.099009362892762853e-01,-9.646488442321519585e+00
2.632882058832193284e+00,-8.101987554727210217e-01,-9.646960351556657542e+00
2.632468394010750057e+00,-8.099494330273910858e-01,-9.646254174323466657e+00
2.633474338598943199e+00,-8.101548333672479174e-01,-9.646702840399322909e+00
2.633695969606411058e+00,-8.103329126411190630e-01,-9.646155822066273089e+00
2.634404550150250657e+00,-8.107699053931267663e-01,-9.646010544914545903e+00
2.634309789948249048e+00,-8.108431971585543518e-01,-9.645566583341267375e+00
2.634837425185136972e+00,-8.105994174485505743e-01,-9.646169910898118260e+00
2.635179122164912346e+00,-8.111228290691365750e-01,-9.645230863374614216e+00
2.635218652514820459e+00,-8.112281439236068703e-01,-9.645185025013375935e+00
2.635858260940180831e+00,-8.111964916774824230e-01,-9.644496467353572910e+00
2.635914250422145333e+00,-8.117764948458221497e-01,-9.644897365462760774e+00
2.636440785522877306e+00,-8.118894037349191350e-01,-9.645022659083748451e+00
2.637050352515246665e+00,-8.117785406314053098e-01,-9.644617295895093534e+00
2.637118717337819884e+00,-8.119717748831223325e-01,-9.644139183560104911e+00
2.637648374173417132e+00,-8.121055450617881144e-01,-9.644814038867965067e+00
2.637955473324619771e+00,-8.123474192042783315e-01,-9.644479918240801197e+00
2.638197718820981752e+00,-8.121367926707161455e-01,-9.644033476304187502e+00
2.638555610852994171e+00,-8.125063767887411581e-01,-9.643762675994318911e+00
2.639246895892374489e+00,-8.130386998901858453e-01,-9.643388297302987411e+00
2.638838256572455965e+00,-8.131462972759965213e-01,-9.644631125753793555e+00
2.639350190964112830e+00,-8.129070254305218457e-01,-9.643623477774005082e+00
2.639678762041693716e+00,-8.133424899395510499e-01,-9.643001557676813107e+00
2.640091700006707232e+00,-8.137320840044628412e-01,-9.643010986390120109e+00
2.640680612934152904e+00,-8.134586416988472957e-01,-9.643378104527961625e+00
2.641105026880919304e+00,-8.137136834670768426e-01,-9.643666031098904412e+00
2.641031528533139827e+00,-8.138052376981084191e-01,-9.642591460932262493e+00
2.641325550609403994e+00,-8.140631916681227986e-01,-9.642137767208566856e+00
2.641588686644044337e+00,-8.141807102537179652e-01,-9.642941251029423455e+00
2.642017714875980694e+00,-8.141519773353992351e-01,-9.643068504549598075e+00
2.642261270335276802e+00,-8.143292369608609027e-01,-9.642796511492711886e+00
2.642612792964109669e+00,-8.147097035281438693e-01,-9.642747563055461768e+00
2.643123786724727697e+00,-8.150412396058057674e-01,-9.641176041444884603e+00
2.643265173568327242e+00,-8.146798318522876503e-01,-9.642112968818636887e+00
2.643487993940177194e+00,-8.150162163608218879e-01,-9.641740636145648580e+00
2.643832901646836930e+00,-8.152074584395476720e-01,-9.641567081436974718e+00
2.643752863418770360e+00,-8.150213429447359381e-01,-9.641216428314782760e+00
2.644403841185514636e+00,-8.153309309729399601e-01,-9.641339128868265718e+00
2.644759598685206825e+00,-8.155713801750207326e-01,-9.640728570751106119e+00
2.645197698311486878e+00,-8.155258556510718293e-01,-9.641016568346561399e+00
2.645240465668941443e+00,-8.156765597075684715e-01,-9.640631462206403768e+00
2.645639607658391235e+00,-8.158449703937746822e-01,-9.640748436830680390e+00
2.646022322523606807e+00,-8.162349062344350648e-01,-9.640567170882500037e+00
2.646205798980346913e+00,-8.163603457353403314e-01,-9.640618315677867756e+00
2.646537590891857583e+00,-8.163722319934795246e-01,-9.639701213733271601e+00
2.646955033262920143e+00,-8.164327911964492923e-01,-9.640426387546288112e+00
2.647194780314214846e+00,-8.166468590116604531e-01,-9.640644461804621201e+00
2.647346880548524961e+00,-8.167961112743670204e-01,-9.639790052613513183e+00
2.647530214259009362e+00,-8.171589983302232074e-01,-9.640123699473162944e+00
2.648050144897446057e+00,-8.172508940974230196e-01,-9.639565551157261325e+00
2.648182482631939116e+00,-8.169079952475258866e-01,-9.639706131781913712e+00
2.648516410301973600e+00,-8.172931424411353785e-01,-9.639637297680621941e+00
2.648798555928915999e+00,-8.172751197894085884e-01,-9.639422997949965932e+00
2.648970379018264154e+00,-8.173752706522831035e-01,-9.638928032262008117e+00
2.649422148077471117e+00,-8.179492516688502413e-01,-9.639083724011959120e+00
2.649156815106016083e+00,-8.177496139367219641e-01,-9.638870721018866661e+00
2.649971999766941977e+00,-8.178435555962756398e-01,-9.638515601677941191e+00
2.650062097061606003e+00,-8.176659831309097681e-01,-9.638840418544118549e+00
2.650424367289834215e+00,-8.183636689614907089e-01,-9.638583315540742547e+00
2.650550797932274882e+00,-8.180938050801231931e-01,-9.638345005887769545e+00
2.650945137101577753e+00,-8.182793740952599704e-01,-9.638543253653063303e+00
2.651448692977742549e+00,-8.183310971237360842e-01,-9.638122600651445993e+00
2.651718105790761726e+00,-8.184126442774523058e-01,-9.638098595826571469e+00
2.651793843548337026e+00,-8.187436509709874466e-01,-9.637440601837523602e+00
2.652106997784713815e+00,-8.189160370683223888e-01,-9.638341059993850379e+00
2.652023735654184478e+00,-8.191333807677292356e-01,-9.637589272672220986e+00
2.652212438782693305e+00,-8.188589698565345021e-01,-9.637945134586287210e+00
2.652587368266152712e+00,-8.188103260605165135e-01,-9.637415337434203977e+00
2.652874309295140343e+00,-8.192479229129895346e-01,-9.636974258823700623e+00
2.653247191380568637e+00,-8.195295492452364661e-01,-9.637254398858754456e+00
2.653485061940795475e+00,-8.195514803260723902e-01,-9.636719802670160817e+00
2.653747379008074780e+00,-8.195959119180947772e-01,-9.636850780621962542e+00
2.653907161474482024e+00,-8.197659011060898226e-01,-9.636619719923901428e+00
2.654251218172794857e+00,-8.199811836187269609e-01,-9.636506898646826969e+00
2.654326499473040002e+00,-8.198234470942287189e-01,-9.636546694974658323e+00
2.654764849605235622e+00,-8.200752945240135094e-01,-9.636242490761761204e+00
2.654853027366986140e+00,-8.203105300212452100e-01,-9.636807604120967596e+00
2.655006563958583143e+00,-8.204681621499652078e-01,-9.636801479937130210e+00
2.655537912368780784e+00,-8.205522362443596895e-01,-9.635723544440264021e+00
2.655711293469140699e+00,-8.205137769644333945e-01,-9.636318247099985967e+00
2.656030565577346181e+00,-8.206854665603849908e-01,-9.636385592617937590e+00
2.655928433535745814e+00,-8.205815896108406005e-01,-9.635551940480439725e+00
2.656277369208548844e+00,-8.209027849360229778e-01,-9.635612487870082177e+00
2.656480154449721631e+00,-8.208697437292378218e-01,-9.636235180483399887e+00
2.656974235856490285e+00,-8.209006944117557270e-01,-9.635141051113585320e+00
2.657057832836233757e+00,-8.213241514964869650e-01,-9.634984991537827170e+00
2.657383502350494808e+00,-8.211976980156442396e-01,-9.635376936751889332e+00
2.657047919316967377e+00,-8.211850714002014717e-01,-9.634711193297540888e+00
2.657410036714536794e+00,-8.214280904354204216e-01,-9.635434741070456610e+00
2.657783053178517818e+00,-8.214628818301407120e-01,-9.635423008904552944e+00
2.657918115904525980e+00,-8.214354615812756721e-01,-9.635081620991389428e+00
2.658422577648062557e+00,-8.220146138012904835e-01,-9.634801402846314033e+00
2.658772216225527618e+00,-8.221862719135331066e-01,-9.634300173738134632e+00
2.658724837857741718e+00,-8.218255585991861567e-01,-9.633847528732339072e+00
2.659267601248565871e+00,-8.219019911400031742e-01,-9.633910435078419709e+00
2.659387727127927814e+00,-8.220431601243053388e-01,-9.634237347265685258e+00
2.659543735912020423e+00,-8.222698059452407948e-01,-9.634316127199086921e+00
2.659566294219680938e+00,-8.222093503958785021e-01,-9.633405699902525043e+00
2.660015756955221189e+00,-8.225169534672222005e-01,-9.634207466935826858e+00
2.660340494795171207e+00,-8.223781660832717444e-01,-9.633876007042262657e+00
2.660014481077932924e+00,-8.225506902919434982e-01,-9.632742162455640411e+00
2.660387275113329952e+00,-8.226926910294907191e-01,-9.633037820376708638e+00
2.660628548060202103e+00,-8.224458537886053522e-01,-9.633680084012505418e+00
2.660829649120504126e+00,-8.230226922768942854e-01,-9.633025932891866816e+00
2.661112829660556844e+00,-8.230341635940034983e-01,-9.633438280079223759e+00
2.661600511677473690e+00,-8.229926085847804051e-01,-9.633249609836832761e+00
2.661680081354738103e+00,-8.233654744865261943e-01,-9.632323823550358100e+00
2.661569437160093088e+00,-8.235616640221489204e-01,-9.632874062350845534e+00
2.662402333978892255e+00,-8.232839919560469566e-01,-9.632666632365456394e+00
2.662313623204059621e+00,-8.237018955592952940e-01,-9.632521498522844894e+00
2.662464143599167166e+00,-8.237225543417021623e-01,-9.632560043605094435e+00
2.662636590712718299e+00,-8.238449461299641730e-01,-9.632325038807868722e+00
2.662761928249482324e+00,-8.239784213366228016e-01,-9.632054602169363378e+00
2.663129001808111962e+00,-8.239077914729823204e-01,-9.632684675625128534e+00
2.663242485727153497e+00,-8.242308225874104277e-01,-9.631396633389099904e+00
2.663293170509477559e+00,-8.239935336781151198e-01,-9.632077615939190096e+00
2.663705543990913860e+00,-8.241526050202014897e-01,-9.632042854268972221e+00
2.663936172676938163e+00,-8.240785240091943464e-01,-9.631128102722863460e+00
2.663697600842057867e+00,-8.241337306920758499e-01,-9.631329603048724763e+00
2.663859855536550914e+00,-8.243525105476700032e-01,-9.630917337386472710e+00
2.664551602661349161e+00,-8.247451213535803571e-01,-9.631736169359129462e+00
2.664579380019285626e+00,-8.244181334082142376e-01,-9.631221356608694606e+00
2.664596744156262798e+00,-8.249285674840064475e-01,-9.631718896815488762e+00
2.664914502938668051e+00,-8.248762055056935161e-01,-9.631089315251360361e+00
2.665366834614806724e+00,-8.247818744969735993e-01,-9.631154333287319957e+00
2.665216676846589472e+00,-8.247630120825515387e-01,-9.630431839418555739e+00
2.665639177470703558e+00,-8.248451753018013477e-01,-9.631531367789639475e+00
2.666072891806206879e+00,-8.248941149112568594e-01,-9.630987244662618352e+00
2.665870513149080523e+00,-8.251805235930191884e-01,-9.631166475870539756e+00
2.666184014407436909e+00,-8.252316036677346256e-01,-9.631134332134942966e+00
2.666391654957814605e+00,-8.254156089267631335e-01,-9.631119426071863998e+00
2.666430730728695409e+00,-8.254810791869947595e-01,-9.630763185939501980e+00
2.666460520153599578e+00,-8.256537678378053080e-01,-9.630300957419756003e+00
2.666900390862521064e+00,-8.260053998231110528e-01,-9.630640645576477255e+00
2.666877356504656404e+00,-8.254706197883714403e-01,-9.630299360542597498e+00
2.667175517403321372e+00,-8.257509414100902001e-01,-9.629741841546826109e+00
2.667276536525993169e+00,-8.258263613757684807e-01,-9.629931212358821213e+00
2.667653325923390994e+00,-8.257943942577240515e-01,-9.629637030049027047e+00
2.667695392312530611e+00,-8.261342416684893664e-01,-9.630208654226926512e+00
2.667794059329304801e+00,-8.261466692673746781e-01,-9.628905133606918909e+00
2.667848217679860578e+00,-8.259630069299970234e-01,-9.629300763491416504e+00
2.668153618270535432e+00,-8.262577689869019526e-01,-9.629912766265732671e+00
2.668391078655492077e+00,-8.263105429387401779e-01,-9.629438463449961461e+00
2.668446455644868376e+00,-8.263510512438909661e-01,-9.628816344155321616e+00
2.668619594606804313e+00,-8.264939000024796867e-01,-9.629682176565447449e+00
2.668739353594076658e+00,-8.264520517723943360e-01,-9.629191170406663502e+00
2.668788791660463122e+00,-8.266031756821039522e-01,-9.629429015280445370e+00
2.669004914487772773e+00,-8.269076539639556023e-01,-9.628465067446683179e+00
2.669762097509916998e+00,-8.265135161854435530e-01,-9.628697700960742623e+00
2.669482834107659741e+00,-8.267701938843693421e-01,-9.628814245126836369e+00
2.669821090648416995e+00,-8.265364656547264932e-01,-9.628191071659552236e+00
2.670139674618138947e+00,-8.271682967895539473e-01,-9.628664828541094067e+00
2.669978526508681504e+00,-8.271068614770515914e-01,-9.628397714769782567e+00
2.670192426750324532e+00,-8.273649317114840640e-01,-9.628713689201321202e+00
2.670426262969612718e+00,-8.270606964038353937e-01,-9.628737246753111378e+00
2.670369493478503831e+00,-8.273027373617460878e-01,-9.627961072003369480e+00
2.670839706579916317e+00,-8.272741016497147104e-01,-9.628270667651131376e+00
2.670702489299617621e+00,-8.273789390212893391e-01,-9.628881239148036286e+00
2.671082985605740312e+00,-8.278015518003796203e-01,-9.627955549602161156e+00
2.671403615697336420e+00,-8.274192532384054832e-01,-9.627647060501150378e+00
2.671240652483170663e+00,-8.275650302342855147e-01,-9.628318524290113700e+00
2.671705243149713915e+00,-8.275729111965067775e-01,-9.627795141706320337e+00
2.671879298870110997e+00,-8.277521187597135510e-01,-9.627683529521537054e+00
2.671602561871750936e+00,-8.276054145617848246e-01,-9.627624931949556597e+00
2.671684381048455403e+00,-8.278371994325247618e-01,-9.628158110680322679e+00
2.672125524406344876e+00,-8.279739009605043831e-01,-9.627318821977983276e+00
2.672036722430547240e+00,-8.281064337566448330e-01,-9.628178689323860340e+00
2.672143022983876293e+00,-8.277499349821949570e-01,-9.627371334681317450e+00
2.672280078703406225e+00,-8.282366665743604583e-01,-9.627039712924947423e+00
2.672518682451581196e+00,-8.283142699986038027e-01,-9.627548203370380975e+00
2.673044743405386114e+00,-8.283398991106563081e-01,-9.626660147297027237e+00
2.672735759373493725e+00,-8.282326762449381263e-01,-9.626767518059230255e+00
2.673098294738744496e+00,-8.287437558609914712e-01,-9.626750493457365110e+00
2.673282117417540960e+00,-8.288320661583210569e-01,-9.626913604336762020e+00
2.673468685346693352e+00,-8.286798764543181761e-01,-9.627059260542559116e+00
2.673402757493204884e+00,-8.285732955805635847e-01,-9.626030302317662546e+00
2.673471063172855544e+00,-8.285905871345129459e-01,-9.626847262110361569e+00
2.673735921971038376e+00,-8.286456992770646623e-01,-9.627091499582327572e+00
2.674056774374731216e+00,-8.288979305972062894e-01,-9.626233078005508759e+00
2.673722828951740738e+00,-8.290622297371029736e-01,-9.626000192767952157e+00
2.674293531460864237e+00,2.072205537228106187e-01,-8.664918973343226583e+00
2.674751167067498159e+00,2.442823585546568532e-01,-8.699561824189395054e+00
2.675760061829441039e+00,2.826683684510813421e-01,-8.731078509247053532e+00
2.677242569351553136e+00,3.217496568767475584e-01,-8.759860745910515334e+00
2.678097065431599866e+00,3.620818238930844091e-01,-8.786390174262860953e+00
2.680521571791017355e+00,4.028422049631565360e-01,-8.810917776012377800e+00
2.682341691290599961e+00,4.447436397771425409e-01,-8.833815092835001437e+00
2.684235252974060515e+00,4.875419071509577429e-01,-8.853833627583293620e+00
2.686845056920080133e+00,5.307218700283506951e-01,-8.872911781017036148e+00
2.689091845877265907e+00,5.756177705493735752e-01,-8.891056962590935697e+00
2.691588737806112075e+00,6.207509006785715266e-01,-8.906641947715112195e+00
2.693755113737844820e+00,6.667915171914533534e-01,-8.921989522481283075e+00
2.696490510913939875e+00,7.137608326742228559e-01,-8.935211686500096562e+00
2.698961734289117675e+00,7.617247923456693659e-01,-8.949088954708603438e+00
2.701498799192873612e+00,8.103825607895086547e-01,-8.960433976392982558e+00
2.703968566763639281e+00,8.598168323232913135e-01,-8.972070514974875621e+00
2.706647195423723673e+00,9.094468410004405978e-01,-8.982905931223294616e+00
2.709240726921192444e+00,9.602164199029941116e-01,-8.992861156751750684e+00
2.711630769733774926e+00,1.011752461179572293e+00,-9.001632259976135586e+00
2.714072675513600874e+00,1.063535974953873975e+00,-9.010405864425996114e+00
2.716470414852859783e+00,1.115975966819109599e+00,-9.017989629359131953e+00
2.718399381796308578e+00,1.168721666295168937e+00,-9.025312400570584259e+00
2.720991936661028898e+00,1.222056124686705658e+00,-9.032647504221159807e+00
2.722969089015794708e+00,1.275785688314912791e+00,-9.038560039622252518e+00
2.725005808759758619e+00,1.329670242956776161e+00,-9.044514792636414668e+00
2.726990351165327731e+00,1.383707672719902027e+00,-9.049352552700709040e+00
2.728759351082225670e+00,1.438551596108853525e+00,-9.054711963952749798e+00
2.730852501925235654e+00,1.493182803793401625e+00,-9.059277617168753238e+00
2.732149204590879510e+00,1.548293326411835924e+00,-9.064463963321276907e+00
2.734034648159576975e+00,1.602962419691506879e+00,-9.068148395835352815e+00
2.735498422825032083e+00,1.658688632299668342e+00,-9.072095383261435941e+00
2.736783848658167262e+00,1.714021917784682492e+00,-9.075019826911265852e+00
2.738057621860269464e+00,1.769464076284127385e+00,-9.078456222112045282e+00
2.739483378879555620e+00,1.825568571329267531e+00,-9.081438369031307190e+00
2.740389506528052355e+00,1.881477982809077742e+00,-9.084280579767776587e+00
2.741296772547677563e+00,1.937590495474390551e+00,-9.086574517695540365e+00
2.742318838487651789e+00,1.993870614269951824e+00,-9.088723237039484815e+00
2.743168447780983676e+00,2.049747716170359446e+00,-9.090613680639441085e+00
2.743305951561153311e+00,2.106511979511273225e+00,-9.092690959516538385e+00
2.743997545850254571e+00,2.162942436559192494e+00,-9.094481403685460208e+00
2.744250541706566349e+00,2.219357113416343008e+00,-9.095620085691432877e+00
2.744416891052603891e+00,2.275836393030813198e+00,-9.096898139498160063e+00
2.744725670449349231e+00,2.332840643552678284e+00,-9.098022392420173077e+00
2.744684061964666633e+00,2.389577043462738359e+00,-9.099449369223865602e+00
2.744356177820643339e+00,2.446625721747556437e+00,-9.099667990120396510e+00
2.744282434497242296e+00,2.503633140745258778e+00,-9.100636377170459923e+00
2.743759056299283294e+00,2.560304864162000094e+00,-9.101730562967269123e+00
2.743064940818510600e+00,2.617755065743816889e+00,-9.102251788902643526e+00
2.742649541153697967e+00,2.674824499227310248e+00,-9.102583307920886213e+00
2.741889988629662156e+00,2.731966670402943720e+00,-9.102669164793120160e+00
2.741041821881152973e+00,2.789355896169951610e+00,-9.102476051275699476e+00
2.740104978595087282e+00,2.846612947756672174e+00,-9.103110659804922733e+00
2.738751293381075591e+00,2.903999349021485710e+00,-9.102455295923146394e+00
2.737464841803883164e+00,2.961276454511287959e+00,-9.101766603174182180e+00
2.736433939480809041e+00,3.018588218234232734e+00,-9.102561633044661704e+00
2.734712319083667076e+00,3.076458384784947153e+00,-9.101595347358587773e+00
2.733119012378481205e+00,3.134004065158622954e+00,-9.101160863584686567e+00
2.731456824773626835e+00,3.191614084800823203e+00,-9.100438177547687246e+00
2.729277786793113947e+00,3.249155686019810751e+00,-9.100133364997857299e+00
2.727073660368549923e+00,3.307081819294337421e+00,-9.099515261580194192e+00
2.725434069911888191e+00,3.362201614008641037e+00,-9.098487920954397623e+00
2.723836046452385418e+00,3.412256420934775214e+00,-9.096641361975443374e+00
2.721773002054801882e+00,3.456961072755697195e+00,-9.095081066927937385e+00
2.720696002162986016e+00,3.497559925177383011e+00,-9.093198927375985008e+00
2.719339767276224951e+00,3.534931359669973627e+00,-9.092033610490192430e+00
2.718769661331533971e+00,3.568003012263748275e+00,-9.088945110918739800e+00
2.717991849566152140e+00,3.597973796374461131e+00,-9.086549985657427442e+00
2.717432950551929682e+00,3.625107689873396044e+00,-9.084314606187090746e+00
2.716869236258427467e+00,3.649104932690121927e+00,-9.081217080490597837e+00
2.716730299662357240e+00,3.671575166231692222e+00,-9.078894017484527623e+00
2.716205271966280144e+00,3.691333458131047962e+00,-9.076130956779495662e+00
2.716157793414624599e+00,3.709083180192124019e+00,-9.073016640206716943e+00
2.715760922473565042e+00,3.725479093196629954e+00,-9.069879796746814549e+00
2.716085425460176950e+00,3.739664694626779973e+00,-9.067326325777282037e+00
2.716510066522630051e+00,3.752513077369383776e+00,-9.063622667773447716e+00
2.716848732871288252e+00,3.764118767863286141e+00,-9.060307343797711965e+00
2.717175002474530032e+00,3.774281115327925207e+00,-9.056571558915392117e+00
2.717352682814317077e+00,3.783829576008858719e+00,-9.054751578452398419e+00
2.718111901250821472e+00,3.791946529195556526e+00,-9.050748654741051169e+00
2.718620753050196459e+00,3.799271040451147385e+00,-9.047846674503702502e+00
2.719029040213972515e+00,3.806022316166501884e+00,-9.044523950176245108e+00
2.719518857601920026e+00,3.811759940235652344e+00,-9.040721118224089636e+00
2.720146521461383582e+00,3.816586604921104797e+00,-9.038332430814632446e+00
2.721480805981490558e+00,3.821161590385332651e+00,-9.034191223483315270e+00
2.721922018516283792e+00,3.824895128735204874e+00,-9.030419235451597970e+00
2.722724179260952670e+00,3.827973371116419887e+00,-9.027872694790449515e+00
2.723809267941726731e+00,3.830877360221989214e+00,-9.024308408526259484e+00
2.725000731997890835e+00,3.834055210123290092e+00,-9.020561643961796605e+00
2.725561672884921460e+00,3.835656883881736867e+00,-9.017877822528504339e+00
2.726617760112323374e+00,3.837398636534417484e+00,-9.014546794247458195e+00
2.727313273732471455e+00,3.839066728228422321e+00,-9.011101601849054177e+00
2.728516014060915928e+00,3.840329522119858119e+00,-9.007765397111024086e+00
2.729886616814510614e+00,3.841191709271298382e+00,-9.004109962560244540e+00
2.730545601816837920e+00,3.841520940557373809e+00,-9.001915762450686032e+00
2.731893954084860354e+00,3.841815770795639295e+00,-8.998102104951097857e+00
2.733098394011541643e+00,3.842014890596804566e+00,-8.994212243196480827e+00
2.734005184555370782e+00,3.842146449653681461e+00,-8.991355901796568517e+00
2.735250758434453200e+00,3.842012345181367916e+00,-8.987729900051245835e+00
2.736119009117758960e+00,3.841772343609947349e+00,-8.985317515495307106e+00
2.737740726410012204e+00,3.841111185834429342e+00,-8.981671786708259830e+00
2.738834983395771250e+00,3.840483654768015676e+00,-8.978686925983677014e+00
2.739831664780586706e+00,3.839818345491262885e+00,-8.975465486480311839e+00
2.741089813691970800e+00,3.839427003321620013e+00,-8.972387153337775700e+00
2.742451561687935246e+00,3.838438273225240671e+00,-8.969728289349742312e+00
2.743767154820424103e+00,3.837160039817723245e+00,-8.967038817826729513e+00
2.744948986926615042e+00,3.836174350810110045e+00,-8.963451625730334271e+00
2.746529194675550123e+00,3.835118166806004147e+00,-8.960314152973770874e+00
2.747653883580794432e+00,3.833816758063988583e+00,-8.957236920953443260e+00
2.748594637528773976e+00,3.832384739784336691e+00,-8.954187032200870533e+00
2.749813540896860253e+00,3.831139979884682134e+00,-8.950901653300588734e+00
2.751418279657752652e+00,3.830052068378091867e+00,-8.948649908257186425e+00
2.752767300816477469e+00,3.828350691848585452e+00,-8.944873697105681032e+00
2.753939378345200861e+00,3.826862288234897491e+00,-8.941653201870085610e+00
2.755433540368576129e+00,3.824992300964469294e+00,-8.939012204597615252e+00
2.756563274253686746e+00,3.823724657573005281e+00,-8.936196803434379277e+00
2.757788972766036739e+00,3.821961197667542720e+00,-8.933596505984503722e+00
2.759380599586449545e+00,3.820072019291497423e+00,-8.929904974216764657e+00
2.760970594538361578e+00,3.818600367842315269e+00,-8.927121637353732098e+00
2.762332964817080239e+00,3.816813523002304809e+00,-8.924506791491062074e+00
2.763452578424156147e+00,3.815240173336389429e+00,-8.922258065063672916e+00
2.764929820583874598e+00,3.813289903221450672e+00,-8.918569101936220989e+00
2.766109599765628424e+00,3.811376938213894672e+00,-8.916546629706365579e+00
2.767662631581463639e+00,3.809546102574937088e+00,-8.913288279453643881e+00
2.768928698143322542e+00,3.807376702655426381e+00,-8.910683903439471365e+00
2.770319129236981315e+00,3.805816480646376121e+00,-8.908158782171154755e+00
2.771976883355618426e+00,3.803658972428693996e+00,-8.905025730254118699e+00
2.773221736192491349e+00,3.801808702943876739e+00,-8.902427688154658014e+00
2.774503463100899570e+00,3.799737028873209965e+00,-8.899233898752223482e+00
2.775943382373980306e+00,3.798068955635577115e+00,-8.896578852904495349e+00
2.777223814946337743e+00,3.795592542625589427e+00,-8.893935705974440609e+00
2.778974290905042555e+00,3.793952524110077551e+00,-8.891540283795707822e+00
2.780120236204352668e+00,3.791878627400635526e+00,-8.889499395420054739e+00
2.781851119976496811e+00,3.789965440179631440e+00,-8.885968648297726702e+00
2.783275040833845804e+00,3.787631762637279742e+00,-8.883412785508520315e+00
2.784500234160956378e+00,3.785613225593045250e+00,-8.881066285243118585e+00
2.786090731931256226e+00,3.783316506306585225e+00,-8.878676210735694241e+00
2.787599193901393324e+00,3.781364064215877896e+00,-8.876365381137167887e+00
2.788939673534389208e+00,3.779335804124917875e+00,-8.873239217955921632e+00
2.790411030394701175e+00,3.777090269937844802e+00,-8.871335779856039494e+00
2.791845391581112779e+00,3.775085410759355220e+00,-8.868445818946678827e+00
2.793369915371508139e+00,3.772929815661293595e+00,-8.866230263326366767e+00
2.794659087709830292e+00,3.770764775575757621e+00,-8.863748374650402440e+00
2.796033778361957989e+00,3.768698824132058256e+00,-8.860371799756816102e+00
2.797907563499130390e+00,3.766268094057177329e+00,-8.857431078894638432e+00
2.799210124266366062e+00,3.763961081463423675e+00,-8.856226228820935020e+00
2.800485908667050161e+00,3.762266193628714284e+00,-8.853176712575574925e+00
2.802165074202373596e+00,3.759611118998610113e+00,-8.851491133771302700e+00
2.803615659130556992e+00,3.757672561223496022e+00,-8.848488547422665107e+00
2.805212804918991498e+00,3.755111353260262685e+00,-8.846186514352755381e+00
2.806583273796815714e+00,3.752786581693418722e+00,-8.843655903676818753e+00
2.807904256671937215e+00,3.750551213894993907e+00,-8.841680858828091516e+00
2.809238980045750012e+00,3.748467705562945618e+00,-8.839126273450474969e+00
2.811028324250373522e+00,3.746182773297058510e+00,-8.836897502294846163e+00
2.812527287269850795e+00,3.743908488600369289e+00,-8.834843516190273860e+00
2.813737765739821040e+00,3.741536175149796417e+00,-8.831819388448122865e+00
2.815367548019943378e+00,3.739237014136382431e+00,-8.829485348045022164e+00
2.816932787265806315e+00,3.737050608418856612e+00,-8.827509340299515728e+00
2.818441941319182131e+00,3.734422299582288662e+00,-8.824891169319334594e+00
2.820416892708133449e+00,3.732517845397401057e+00,-8.823065664339003078e+00
2.821487996498562190e+00,3.730045384240793016e+00,-8.820203941955453431e+00
2.823033070963226976e+00,3.727720160049488474e+00,-8.819095245980337339e+00
2.824770522972235742e+00,3.725515975243559375e+00,-8.815530843554787666e+00
2.826043050285145242e+00,3.723127975072287654e+00,-8.813219595257205441e+00
2.827848406848313623e+00,3.720633294292776672e+00,-8.811859586165192937e+00
2.829153339329773420e+00,3.718499618843603471e+00,-8.809263101184544809e+00
2.830606318852175285e+00,3.715750505496327349e+00,-8.807444155997005808e+00
2.832044711125771386e+00,3.713656674051833750e+00,-8.804727745638048830e+00
2.833645685581283047e+00,3.711105022810471610e+00,-8.802609800770186510e+00
2.835358455990215631e+00,3.708665092986918044e+00,-8.801583590468386120e+00
2.836884707689788065e+00,3.706570186140291323e+00,-8.798758235487053270e+00
2.838395926135400149e+00,3.704313752234821067e+00,-8.796276267292135742e+00
2.840008545165439102e+00,3.701823331011036000e+00,-8.794104961590333502e+00
2.841075382852183751e+00,3.699031892833958945e+00,-8.792434495711255238e+00
2.843042140875392754e+00,3.696874840777291560e+00,-8.790430660208494729e+00
2.844574108358127962e+00,3.694561241980132138e+00,-8.787642811832105494e+00
2.846180463006234618e+00,3.692004861773747315e+00,-8.785796174392837443e+00
2.847507473520973775e+00,3.690147671602883594e+00,-8.783980255010678917e+00
2.849155797680622548e+00,3.687400672741735885e+00,-8.781930886602204112e+00
2.851021075525298265e+00,3.684748620023859722e+00,-8.779572692744752160e+00
2.852609536307793459e+00,3.682355971015123242e+00,-8.777469936843354859e+00
2.853915997714813191e+00,3.679932229131718469e+00,-8.775481347779379604e+00
2.855522191946560540e+00,3.677480134650613852e+00,-8.773676945310041830e+00
2.857169029291166229e+00,3.675176265214879390e+00,-8.771005183928648918e+00
2.858469082206746670e+00,3.672856425843538108e+00,-8.770296863384240638e+00
2.860162223467656695e+00,3.670337147079677287e+00,-8.767477555608957474e+00
2.861329269539073739e+00,3.667782358448621771e+00,-8.766083275753972615e+00
2.863391344091384738e+00,3.665535556913715354e+00,-8.764259097733589243e+00
2.864679666460603791e+00,3.663384403275327994e+00,-8.761750896636748109e+00
2.866544185601817230e+00,3.660607870083854021e+00,-8.760020224344476247e+00
2.868222012189554970e+00,3.658269931210764714e+00,-8.757487434540584204e+00
2.869710560186574000e+00,3.655244970132620175e+00,-8.756134192096276081e+00
2.871592244002380667e+00,3.653315512068872284e+00,-8.754223531319953011e+00
2.872586962903282082e+00,3.650653173367374826e+00,-8.752036309123642610e+00
2.874406278923948843e+00,3.647923549047322300e+00,-8.749694304306846249e+00
2.875713410347147114e+00,3.645646265370170447e+00,-8.748452802092549163e+00
2.877392711677281945e+00,3.643329504562948351e+00,-8.746536216480544468e+00
2.879145845807024262e+00,3.640481356632085053e+00,-8.745096457065285378e+00
2.880408617209031963e+00,3.638237181459079039e+00,-8.743142332333965427e+00
2.882221909312001173e+00,3.636039182537974757e+00,-8.740552520505605827e+00
2.883435838660572959e+00,3.633564254649801928e+00,-8.738665193839581846e+00
2.885602385636636846e+00,3.631120761294277077e+00,-9.737138593142494969e+00
2.886985207024172162e+00,3.627645937031609424e+00,-9.735411368164509582e+00
2.888523136211234466e+00,3.624238274821439010e+00,-9.733466241965153642e+00
2.889769322099991378e+00,3.620601029971109774e+00,-9.731932490212956921e+00
2.891533151801849222e+00,3.617670490854977050e+00,-9.730542370299582799e+00
2.892861630849222987e+00,3.614114907015444356e+00,-9.728909722644281999e+00
2.894542657786141948e+00,3.610551917690613788e+00,-9.726474649658007010e+00
2.896117302556423301e+00,3.607154013540065041e+00,-9.725527293521070149e+00
2.897494132609207185e+00,3.604016819164565177e+00,-9.723067376951799901e+00
2.899213943693320417e+00,3.600532582516404734e+00,-9.721469491149779429e+00
2.900997039236796748e+00,3.597175302064814506e+00,-9.719619727847090829e+00
2.902293954990807556e+00,3.594240159361495657e+00,-9.717927242577427904e+00
2.903995723016463248e+00,3.590873205065269413e+00,-9.716536798081717663e+00
2.905488957651686022e+00,3.587124896193732759e+00,-9.714671773117919074e+00
2.907261553716382618e+00,3.584258529616578759e+00,-9.712723239376337858e+00
2.908522760824054032e+00,3.580885937490172921e+00,-9.711409515505987855e+00
2.910073180540464488e+00,3.577668226809090246e+00,-9.709517734902792796e+00
2.911828162707569501e+00,3.574293436853722028e+00,-9.707905390945056112e+00
2.913388798127348078e+00,3.571217853222198979e+00,-9.705606655593522092e+00
2.915043974074723820e+00,3.567607537676269036e+00,-9.704342444825533320e+00
2.916705791419143434e+00,3.564622257410918316e+00,-9.702958858969813249e+00
2.917742052455187807e+00,3.561194786201749451e+00,-9.701007726609505610e+00
2.919518471463417253e+00,3.558309307406417599e+00,-9.699413553725653614e+00
2.921043664949632745e+00,3.554764068310837466e+00,-9.698281249472003651e+00
2.922942398422309296e+00,3.551778397676624177e+00,-9.696278737867649156e+00
2.924323742747044541e+00,3.548251144089312525e+00,-9.694824531090004527e+00
2.925511487098510166e+00,3.545019752021819404e+00,-9.693025292645902624e+00
2.927517340421277758e+00,3.542034184605387548e+00,-9.691694255175535844e+00
2.929057316406238343e+00,3.538978970498538157e+00,-9.689733210158273380e+00
2.930624614024442298e+00,3.535773839745393055e+00,-9.688439526379511335e+00
2.932544272077888703e+00,3.532566665490589841e+00,-9.686815213661963853e+00
2.934008536537769718e+00,3.529422063867685644e+00,-9.684818003385826657e+00
2.935490799294703024e+00,3.526225407963843317e+00,-9.683470377175728672e+00
2.936850069048386302e+00,3.522968540633839130e+00,-9.682167208638320588e+00
2.938624355388613996e+00,3.520114459191737044e+00,-9.680449522449814381e+00
2.940730628473212427e+00,3.516896002764325679e+00,-9.678579413932164144e+00
2.942088475908629874e+00,3.513809725366582981e+00,-9.677680143759515019e+00
2.943338940936536030e+00,3.510572028069798733e+00,-9.676103677949420501e+00
2.945012686549678183e+00,3.507493037211763198e+00,-9.674304516938423859e+00
2.946569760733686483e+00,3.504134497275961380e+00,-9.673186015601789478e+00
2.947943228633445933e+00,3.500973565507128349e+00,-9.672195502027024716e+00
2.950033253752058826e+00,3.498039621096336926e+00,-9.669870869628395482e+00
2.951666834721496269e+00,3.494814491175076476e+00,-9.668154868505068222e+00
2.953132803221734992e+00,3.491917376275146534e+00,-9.666938457034499166e+00
2.954633215624404396e+00,3.488896554116715176e+00,-9.666002780680841511e+00
2.956271019385382726e+00,3.485859392262237844e+00,-9.663947232136214538e+00
2.957772908571082215e+00,3.482735360496588939e+00,-9.662936035341267882e+00
2.959259254379624338e+00,3.479766333298445868e+00,-9.661418881359496780e+00
2.961006870210401765e+00,3.477154721853668473e+00,-9.660049774847751181e+00
2.962454831522185472e+00,3.473814276817964064e+00,-9.658285398394037102e+00
2.964187929826093360e+00,3.470739796204057814e+00,-9.657174090769906627e+00
2.966045486154758049e+00,3.467939770735878113e+00,-9.655294251330875710e+00
2.967485038238732109e+00,3.464841630887720125e+00,-9.653765085739664187e+00
2.969013428946331246e+00,3.461647110323495813e+00,-9.652631715951708102e+00
2.970297423160876082e+00,3.459248022145246182e+00,-9.651888636955568757e+00
2.972299808630042506e+00,3.455700885898698616e+00,-9.649842875520015184e+00
2.973854661740150007e+00,3.453200211783946649e+00,-9.648565412155496901e+00
2.975056964364811485e+00,3.449884987558190730e+00,-9.647090557244379028e+00
2.977032728876960022e+00,3.447033452361752293e+00,-9.645401217735543042e+00
2.978381435865397275e+00,3.443802803074460961e+00,-9.645109911990374485e+00
2.980360572071371283e+00,3.441251984202609027e+00,-9.642751044075081879e+00
