gyro_x (deg/s),gyro_y (deg/s),gyro_z (deg/s)
-5.722829399685270581e-03,-4.360776160293559369e-04,-4.243426616631332596e-03
1.552858730525092518e-03,-3.057445696426836553e-03,-2.471119307312478770e-03
1.047204500970889702e-03,-1.089534642437744354e-03,-4.867674110821839338e-03
4.907192107727977905e-03,-7.093574764979711580e-04,-1.817858346792069449e-04
-4.083756420264920972e-03,-1.439202818006992974e-03,1.896290522268730995e-03
-2.979294789799373424e-03,2.098360350048187879e-04,-3.190802723116442988e-03
-5.305123911055703231e-03,4.104090589414078325e-04,6.149392418386421914e-03
2.034273903633058642e-04,-2.364044193088544760e-03,-1.052677191122106332e-03
-1.818217773212687681e-03,1.845726568541353326e-03,-1.661049187952746411e-03
2.589415825385734445e-03,1.818942137555374467e-03,-9.666466965013983731e-04
-1.979224937585712107e-03,-1.162024539387204578e-04,-1.107041978886798240e-03
1.052193412382262981e-03,7.294928993543638640e-04,-6.554872203143948277e-04
-6.296231817416878332e-04,4.215840215603645176e-04,-1.291910558794630423e-03
8.425304803479446601e-04,3.927355569693325929e-03,2.964349696839189887e-03
4.634718052907636082e-03,-2.907342766055638020e-03,-4.106538918260392601e-04
-1.203187317887547921e-04,-3.200442353587994344e-03,5.975656617615421459e-04
2.419048453929692477e-03,3.733628720007226270e-03,-3.112857811681453511e-03
-2.273271659706668519e-03,3.469482262739089027e-03,3.446812628871808847e-04
3.490598807765743212e-04,-7.453152448907542429e-04,2.902384779985571397e-03
-2.688278707860966132e-03,1.699069498197524567e-03,-1.082227461093815315e-03
7.171781080217443918e-04,-1.865849135986222870e-03,3.811976347797249674e-03
-1.072810961957530989e-03,-4.272201917597369392e-03,2.491870128649797175e-03
1.402587213776720562e-03,-4.902737219238439796e-03,-4.275630325414223228e-03
-2.942919682201913020e-03,-9.404613522031620007e-04,-2.577079526372484143e-03
-9.519012974452015045e-04,-1.088165427137870525e-03,-3.676648259329574550e-03
1.816321664024316408e-04,6.350752492096544593e-04,2.151809945689849533e-03
8.059315746738635825e-04,4.370206584503796669e-03,-2.071440993163286767e-03
1.878972454364929816e-04,4.068909414263186040e-04,-4.188881601037810001e-03
8.337784831400114763e-04,2.635101862878465231e-03,-3.808678308122287470e-03
-2.545580638079577001e-03,1.122927863001397684e-03,2.414002624326173820e-03
-7.324857568574028727e-04,-6.905191947956734137e-04,-9.559206986262057913e-04
-5.885624911717348209e-03,-7.294233942354554643e-04,-2.846026178655841621e-03
1.994620008260133363e-03,-6.807030607881622689e-05,-3.231091848526453265e-03
-2.414482280648827441e-03,-3.934198627685845870e-03,-3.170868229687435168e-03
-2.453890376176352892e-03,-3.907964622769467822e-03,1.964201636742161222e-03
-8.934159610920874763e-04,2.988921358086320864e-03,1.773782798463561117e-03
-2.615825309035333356e-03,7.280385681203793789e-04,-2.867713421702538373e-04
-2.212453371670511718e-03,-6.132654043345533513e-04,4.905654128638346247e-03
-1.556821567797235994e-03,-3.241555417176589194e-04,-5.879478323345645662e-04
1.509003346027731939e-03,-3.240047896803823282e-03,3.081129384738712945e-04
1.989483442480246243e-03,-1.268059854868754111e-03,3.632953616044788930e-03
2.684241739184619517e-04,1.016447481056625057e-03,2.169449364851793252e-03
1.411366206880735469e-03,-1.194546257785875218e-03,-7.177374975432365125e-04
1.008146554461136448e-04,-3.927150477194029971e-04,4.720027505046253853e-03
-3.454232857202821968e-03,-4.481101889796117350e-03,-6.356204691663555270e-03
1.325662547291306696e-03,2.779490538628946587e-04,1.827212391500894787e-03
-4.148307682619528126e-03,3.317181650977092319e-03,-1.059762925011075531e-04
-1.696297034432285621e-03,-1.693523343107202969e-03,1.661397148924548478e-03
2.504730784526981724e-03,7.965560499961668421e-04,-1.643653286158159796e-03
-1.593378251225561083e-03,1.181954152749126749e-03,4.235909795492803542e-05
7.683421880767800718e-05,-2.752677433031230046e-03,-4.733805209732551748e-04
3.454401103165200080e-03,-2.115078506457178549e-03,-1.393301406953637023e-03
-2.358254954149002162e-03,5.553048808441685006e-04,1.200306884502850462e-03
1.528304590314623866e-03,-1.086830957373609427e-03,1.355980265575976043e-03
6.882024919848172065e-04,-1.080670072402372447e-03,-1.149444131662905955e-03
-9.172173437110654791e-04,4.665966382931486991e-04,-2.213668266842961155e-03
1.739146241988254963e-04,-1.950104518262210521e-03,4.162136135071498565e-03
-2.259541494225666362e-03,-2.282931896419604107e-03,1.737772511624099698e-03
-1.824924128636273846e-03,-5.376591782736178833e-03,8.680746190731585508e-04
9.940752700345041690e-04,5.229998092645808151e-04,1.684468475610910844e-03
2.574209566153590634e-03,-6.305163950544325456e-03,6.195225732193876010e-05
-6.673641330184078551e-04,-8.689070698220560489e-04,-1.368226812374501384e-03
1.914248796069779011e-04,1.491233136484315831e-03,-2.784800599491512457e-03
3.397696609949318013e-03,1.445587709635345192e-03,3.521258693328394029e-03
2.390174083960314893e-04,-3.171780482936530522e-03,-8.143685495738769325e-05
6.599532929346107199e-04,-2.446311133652140628e-04,-2.886881758252996411e-03
-4.883377797054234623e-03,-2.337083102640188231e-03,8.482439509399300340e-04
7.548531567793126135e-04,-3.660328874992808262e-03,2.172865637400499522e-03
-1.791742631277713511e-03,-4.451994339294626166e-03,2.177144179884770055e-03
1.136728282675434970e-03,1.850741874737750047e-03,-2.591157588417861927e-03
1.657302108621162666e-03,-2.261516960222027198e-03,-1.218124396110434500e-03
-2.659080819113126583e-03,2.899987556636923324e-03,1.777186637307119664e-03
4.822613263343772686e-04,-2.136366101144593788e-03,-3.063619214317242186e-04
-9.926777602026367036e-04,1.153456239261705903e-03,-2.988143809934454536e-03
-9.924566240428554624e-05,9.263784441123543677e-04,-3.385138227012419922e-03
-2.096814306538601156e-03,-3.540642808351372045e-03,-5.623095334305951458e-04
-1.621002051835749745e-03,-8.234486851391675756e-04,1.601277414920551168e-03
2.770295112899325615e-03,-1.434856476156651196e-03,1.434635522919530453e-03
2.279647161174831391e-03,5.449811875919789977e-04,3.306778734867856905e-03
-9.921949505418594783e-04,-9.383895909511352253e-04,2.859988526825967773e-03
-9.152293938585803409e-04,-2.436749552955806350e-04,4.216191468545775305e-03
1.562944635889729466e-04,-3.606298878991228297e-04,2.013231903716069301e-03
-1.569169949327396891e-03,-4.594535261522522673e-04,1.413841665253695763e-03
-1.569950655936825550e-03,4.139384035754832737e-05,-2.142604396522014652e-03
-2.410637825105171883e-03,-2.577709516909736879e-03,-2.406007684780834405e-03
2.565826623187103701e-03,8.132499970338932099e-04,6.968387354945029463e-04
1.990688579134589683e-03,2.719539673983111926e-03,4.906449388569172725e-04
-3.511686560000414612e-04,9.578836233783771066e-05,-3.918062414537246477e-03
-3.054646130771961239e-03,1.270542461249998096e-04,-4.719112972370831881e-04
3.073845226734196485e-03,5.564610438841697572e-03,1.080547711185486323e-04
3.507254448488142254e-04,1.834917542214275428e-05,3.988408273610963783e-04
1.789316769486178982e-03,-3.751371399439617973e-03,-1.431101632507258102e-03
2.827515089512492100e-03,-2.664582267006529491e-04,5.695989649705267277e-03
-4.055588626524099689e-03,-3.617054138692224127e-03,-2.181940886160173287e-03
3.161869612506492452e-03,-3.676360876313304517e-03,-3.152697940032909789e-04
1.427110888346774060e-03,-2.113468068200867987e-03,-2.200172510472660041e-03
7.721728964420490702e-04,-4.178682746381873593e-04,-2.991046586394529964e-03
-1.007520949581910312e-03,-5.851685618501840588e-04,1.232517162516905346e-03
1.477021429879791668e-04,-5.922489431112081329e-03,-2.051541608678494368e-03
2.017911693820810103e-03,2.397878229904571931e-03,-1.624196197167851550e-03
-1.399906228453148133e-04,-3.089538913375218656e-05,-2.685841686163615086e-03
3.054937216439892675e-03,-1.149814456786903312e-03,-3.017362043316396472e-04
2.735380341754257093e-04,8.550392357155091067e-04,2.927502825797696946e-03
-1.088902525386284192e-04,9.384620100801880282e-04,-1.667984426547493033e-03
-1.189296442768721053e-03,2.624878713296020533e-04,-6.933601003572548030e-04
2.377576137600201367e-03,-3.624523848121996399e-03,2.388151938325964053e-03
-4.819248528748310370e-04,-4.135948249008596263e-03,2.931761549078224904e-03
5.910104523064454253e-05,4.859171003874973062e-03,-3.324090150653078151e-03
2.202604750673289955e-03,9.959483861734686090e-04,5.151360413457388128e-04
-1.320835315037284475e-03,-2.743751067504773909e-03,1.735118731424530655e-03
2.360280004131391600e-03,1.614368053501223990e-03,4.524175210663594279e-03
3.743404670523145777e-03,-5.225930147222318045e-04,3.055358683298994849e-03
1.134678847643573680e-03,-2.195892654787810847e-03,4.738164484666530871e-04
-1.544280774537071070e-03,-1.371144130815525001e-03,2.639122142754192404e-03
3.410583075520259334e-04,-1.825097209645324021e-03,-2.735174817607922710e-03
1.799811302260126010e-04,9.810509304869492308e-04,3.331625889497633920e-03
4.751106353546610123e-03,4.572495968053461490e-04,-8.382601730320196620e-04
-1.226182472163764824e-03,-2.650261805492470143e-03,1.799285242581334871e-03
-1.604258524492445685e-03,1.639597479258350253e-03,3.951839717688159295e-03
-2.268804930658169586e-03,-3.120484150013290962e-05,8.372750502170206010e-04
-1.059446389160576939e-03,1.533801226875317796e-03,4.419279516289736465e-04
1.071776866707540134e-03,2.638968622172695416e-04,-4.759254691800210955e-03
6.005396034796747383e-04,3.665129427075396792e-03,1.143973929992861535e-03
-7.413284385112885611e-04,4.069377976374185277e-04,1.717809979761622356e-03
3.085334780360951112e-03,4.253653504472174572e-03,-3.713665286909973752e-04
-3.162185912837059062e-03,3.346156256563128035e-04,6.012437584807437914e-05
2.362234917709542421e-03,3.572510588446608376e-03,-1.236886984043635397e-03
1.238292848618171552e-04,-4.460794523433519315e-03,8.225996154324679297e-04
-5.595269753895328914e-04,-1.817473018841151951e-03,5.739027760603291999e-03
1.426502428220062773e-03,-4.762923097328301304e-03,1.002765073121931496e-04
-5.832061183381156326e-04,-4.103714423104435662e-04,3.728366301277746993e-03
-9.928832353033404930e-05,-3.530461360286690602e-03,-1.110907014413522196e-03
-1.129754924042136385e-03,1.583598186843599917e-03,-2.119657728504819021e-03
-7.156909053969152642e-04,1.452617906614383191e-03,-3.960903430431442760e-05
1.828635230929518676e-03,5.075344934360632998e-03,-2.268239463365054245e-03
1.533828509761978607e-03,-2.025008278036658383e-03,-5.832520019150521338e-04
-1.173535938473846234e-03,-2.908134816593367731e-03,1.367806157254943553e-04
3.365190879848823681e-04,2.208980955397221984e-03,-4.617472000070732552e-03
9.669281515957414220e-04,-2.127768252427871508e-03,-1.613858463181689100e-03
7.055546092404352829e-04,-3.375203054535187144e-04,-3.898873131734364051e-04
-3.718382121382765495e-03,-3.961937196789951966e-03,-6.205283474051968059e-04
-9.113461549024373925e-04,3.701066197876990219e-03,-7.166422015419067265e-04
7.871823081990450468e-04,1.084442216637236493e-03,3.732453861076965532e-03
1.421430114121369475e-03,-2.385087591206575593e-03,-5.061577313911104839e-03
6.157817124683391324e-04,-3.096519118177415170e-03,3.058795663124962497e-03
1.724469874825053882e-04,1.469241274022973619e-03,1.995600300389163348e-03
-1.137583338114920781e-03,5.202453403359518641e-03,1.718729262292390488e-05
-2.516226459804382382e-03,3.971657721548699877e-04,8.630051413777979456e-04
-8.983631145513994035e-04,-2.443129930558754232e-03,-1.585719315080704340e-03
1.674802206843585203e-03,1.434285935502223634e-03,2.785683851489187488e-03
6.601209784434660484e-04,-6.300575074641738202e-03,-6.718413811020652231e-04
-8.860944045401843681e-05,-3.947961871842353893e-04,-2.949686384663125979e-03
1.437500715564356605e-04,-2.194203944425044718e-03,1.889091500560996159e-03
6.231193311070186425e-04,-1.262465705379643092e-03,-3.874295403286222381e-03
3.093419820896571235e-03,3.381509301027550100e-03,3.817588202925152824e-04
1.646569753361293124e-03,-8.332219148517082613e-04,-1.724251477347226629e-03
-5.780891681905173628e-03,3.277094645743689350e-03,-6.710121584557288089e-04
2.531301701401686340e-05,1.257932938524338124e-03,-2.329463364675390079e-03
-1.782327965647119775e-03,1.384749585556307875e-03,-4.539493824212165879e-03
-1.882451347854760234e-03,1.720639322113651877e-03,-1.267262952258421107e-03
-1.472901370589391624e-03,9.930788922372616075e-04,8.506836547614107531e-04
4.140803705685737468e-03,-1.598161909932557107e-03,1.869230297674172574e-03
2.557688853675603100e-03,-2.407787311838344418e-03,-4.502930449496543434e-04
-8.660472278375530748e-04,-1.677982700690587537e-03,-2.554075273480854117e-03
-2.511010724524671963e-04,4.550156207243462921e-04,3.013488284025355683e-03
4.729773541636060272e-03,-2.882772217385348897e-03,1.250627357237312355e-04
-9.336992249649397630e-04,-4.854172665957344306e-03,2.873711349361248411e-03
-1.832719568822295921e-03,-2.408265078152660270e-03,3.410694119642677415e-03
-1.467331262886206397e-03,5.329819890422304645e-04,5.375095953330444841e-03
-1.504736273014208037e-03,3.014636448761790540e-03,6.595359720951722007e-04
1.472544201455311527e-03,2.331635429305241780e-04,-2.314681549659621061e-03
-1.891952056440345095e-04,4.569905695826064276e-03,-2.893810876590120610e-04
5.780127964656251501e-04,-3.466963450422712572e-03,-7.555944350210309739e-04
-9.618715353980825241e-04,1.917571278073793885e-03,9.134326887246837752e-04
7.861642488570275448e-04,1.903689181697899857e-03,-3.915363327112119339e-04
-2.531408549325817655e-03,-3.495885509796272262e-03,-2.511780597643734330e-03
-1.573229445079948581e-03,1.854475358689206552e-03,-2.350039352033457020e-03
7.741739646508659844e-04,-2.502107625090941624e-03,-1.696287106771699220e-03
1.887005491717262803e-03,-5.723572818536378989e-03,-6.893279691961926546e-03
1.803263900739450953e-03,-7.882170827512326432e-04,-1.373068698558174488e-03
-6.433148331581404339e-04,2.359445083830360567e-03,3.182962398239095464e-03
-2.949671835104109518e-04,-1.573865090020218956e-03,1.553758791568140164e-03
-3.101517920925345347e-03,-2.421605418693021511e-03,-1.064570751480065384e-03
-8.617481105738191609e-04,5.377074641706203499e-04,-2.397551529677915071e-05
-2.178970880951246539e-03,8.527804863012868140e-04,2.981498842846778876e-03
-5.257572695271719825e-03,1.264953068022023428e-03,2.391095306770223573e-03
-3.007613477668288297e-03,4.167053487653166535e-03,8.718426748856863496e-04
-5.900488625310925826e-04,2.370192359224143619e-03,5.073357650831282874e-04
2.021086482668285177e-03,3.090092272954726976e-03,4.428067234460867328e-03
2.690292429836805849e-03,1.445408210906004706e-03,2.753067951693218256e-03
2.301796069006967725e-03,-5.221347296149851267e-04,1.444721205685004992e-03
1.420581161302433891e-04,1.568637638521621757e-03,2.700506657866474708e-04
3.956909437636737387e-03,3.426524056776152159e-03,-2.600182500216161388e-03
1.086529829590602951e-03,-2.544294956600257236e-03,-9.741267375596178359e-04
-6.607920770773789828e-04,8.517401097573719469e-04,-9.693032190911491123e-04
2.325541501162131576e-04,2.017034447202583573e-03,2.146457229730977349e-03
3.917873464907091659e-04,-2.760063413363731798e-03,5.308847795540961451e-03
8.828682446048116434e-04,1.692664488097129745e-03,-2.684629202778852312e-03
3.977327629848368025e-03,-4.708115312112746802e-03,3.589476358785210607e-03
8.072382320843592704e-05,5.168767697975814625e-04,3.719926767516973506e-04
2.819387996406201059e-03,3.035478835351611976e-03,7.352978106644182882e-04
-4.971944665200813112e-04,-8.070032558619344345e-04,7.137717751987427426e-04
7.773367024500719589e-04,1.618633724680575278e-03,5.667393408544762860e-04
2.546773038023026139e-03,-4.224903020085771926e-03,1.461233261758270374e-03
5.569314220838755391e-04,-5.836225040718895926e-04,2.856956683080183468e-03
-2.192474360507650887e-03,-2.045093378579911775e-03,-1.867957777536645263e-03
4.244444718756768833e-04,-4.754430033948892228e-04,1.611210851209589649e-03
-2.705129196274335453e-04,1.601142305830582056e-03,-2.609872247006369845e-03
2.682780041107404867e-03,-3.345693770412495362e-03,-9.775199593515181921e-04
-3.567411502853187408e-04,-5.161387711917849895e-04,-2.390568747398641274e-03
1.225669801316597906e-03,-1.005494547821977674e-03,-8.304060229547387002e-04
-5.060373875888113729e-03,-1.705457760937762086e-03,-3.980328690834329837e-03
-1.108854276624921149e-03,-5.459185139698818565e-03,1.992997059797358729e-03
7.902888866869223379e-04,-3.348274171643800777e-04,-2.004055260446832316e-03
1.162225344214270822e-03,-2.041788721310218695e-03,-3.290778391304919736e-03
-2.281364096127664069e-04,3.791721095711189041e-03,3.313507953621327561e-03
-3.283560057880527232e-03,2.129913022101820146e-03,-3.447768172045260777e-03
1.356371269244136088e-04,6.048299203796470187e-03,-2.317533540387541231e-03
8.425683754152635740e-04,-1.539430616589284023e-03,8.549531370297137325e-04
-3.549048591837891588e-03,-5.398282285060325729e-04,-3.839891896060643878e-03
8.549160372902696661e-04,-4.317474072893796866e-03,-5.052005364579829037e-03
1.001134753565575920e-03,-2.448981525259656764e-03,1.514527056442182629e-03
3.613734639419582343e-03,8.890338987718936984e-05,-3.298071859745447219e-03
-2.151827784875569305e-03,2.997659647303532130e-03,-1.773457021882052145e-03
-2.532379747321555734e-03,8.815297503028658808e-04,2.743438118469431700e-03
-2.806749733552245732e-03,-1.683132673475961412e-04,6.752654604913046815e-04
-4.075972396360555243e-03,3.510312406428962341e-03,2.417719067083752647e-03
8.062401716815518473e-04,-3.143961040168245270e-03,6.846573999635413999e-05
6.672011985256135619e-04,-1.542677280610882027e-04,6.398046632629739508e-04
1.562686212783927610e-04,-2.127649817008637079e-03,1.153764763705108533e-03
-5.241531452363824579e-04,8.577957597064900545e-04,2.113852192703742118e-03
3.559292874863123710e-03,3.012834250474571464e-03,-6.101236958906622841e-03
4.456118556005625670e-04,1.422658054618682446e-03,-3.982275454014731590e-03
7.148528884874766039e-04,-1.674925460512375047e-03,3.019327990504555581e-03
1.110059156417087878e-03,-1.818345107879691799e-03,-4.379357194432834046e-04
-4.179829624135362673e-03,-3.717798679516338186e-03,-3.646945322882190130e-03
-5.092236709727828142e-04,-1.616578571641924143e-03,1.844277961705048565e-03
1.372925226837717926e-04,-1.464270766954617158e-03,1.919926340681700049e-03
5.548455083228881132e-04,4.694190345276327597e-04,1.766597539171372439e-03
-1.244572485298464063e-04,3.712643269570154239e-03,5.219599340640011348e-05
3.272583640525906969e-03,2.865149918226583738e-03,5.615614642523616452e-03
-2.438955223019779323e-03,3.441653311147634380e-04,2.855274216005304014e-03
2.615421638573817674e-03,3.057163816493214080e-03,3.124698136394337203e-03
-4.749807089661524720e-03,-7.337273042166894818e-04,5.803217958360826732e-03
-7.975938137535328520e-04,-8.767715249965730550e-04,-2.058393284794094932e-03
2.273105393470548335e-03,1.271086094567497327e-03,-1.008897347308778877e-03
3.098208650291850940e-04,5.891337920108118999e-04,-1.161722482516507450e-03
2.241715454571879731e-03,-2.348669337349460710e-03,-4.136429926570384281e-03
1.309480950005316403e-03,-7.722618620278987132e-04,-2.975005820672249092e-03
3.489424032085108445e-05,-2.944219303091926646e-03,-1.497043021028388217e-03
-2.073908185767559063e-03,1.928011624549050155e-03,-2.484802325711945627e-03
-7.276851339029637676e-03,7.307564658268677965e-05,-1.745367337245053120e-03
-1.299774141186219902e-03,2.034343787991853714e-03,-1.942507099203664165e-03
-6.575709100677153141e-04,-1.894947859584023443e-03,-3.975278786272557104e-03
-1.020375302970017144e-03,-1.749581512713987638e-03,3.330617156764884186e-03
4.507087962676488771e-03,2.362317513067311789e-03,3.010010787502468647e-03
-4.785888742644486566e-04,-2.948462289506936004e-03,-1.239714470866318426e-03
4.133745513752533005e-03,1.437167999098508831e-03,8.935926424125130701e-04
-3.598020595719742584e-03,9.528879125781703928e-05,-2.253911684245085440e-03
4.573658087186590823e-03,3.989423992260883456e-03,5.921175278390443603e-04
1.418816192251650841e-03,-1.024659795185782268e-03,2.620821699855968058e-03
-6.396393539630803801e-03,2.136932446653498283e-03,2.927518293005178327e-03
1.490123511812488973e-03,1.080097429071131838e-03,-1.406393456088048761e-03
1.354944347124791655e-03,2.571127669885073502e-03,2.280476890459699497e-03
-4.356291799827856706e-03,7.252918435395046097e-04,2.795325621291728114e-03
7.074649599257393402e-03,-9.318939661540722634e-04,-4.719872363268614798e-03
-2.596522622543433233e-04,7.623313444648785941e-04,-2.876146425553747620e-03
3.895580117593962585e-05,1.604779215918753985e-03,-6.989762235939982670e-04
-6.373029983196568972e-03,-2.050489412131175498e-03,-9.036071673384492601e-04
2.507824637902429849e-04,1.184085887149589986e-03,-1.491595374879987424e-04
6.765647778209581912e-05,9.090109970068968809e-04,-2.426702222894828662e-03
-3.413388550909258155e-03,-7.611500405473663970e-04,-1.628763782496014684e-03
3.648798750944477146e-03,-1.923411223989348858e-03,2.303931840243829865e-04
-8.798903027276254452e-04,1.259549397333986458e-03,4.010667006132411297e-03
7.520268135933058304e-04,3.035336220925611596e-03,1.188282279541458914e-03
-3.072240768208102987e-03,-6.299459903132359571e-05,3.323288980655626779e-04
-1.058766616148956990e-03,2.412457583188267005e-03,1.800675886907441431e-03
-2.415624160671998172e-03,1.183814557764819404e-03,-1.125682869959058812e-03
-5.498061593215558540e-04,4.210724481678760137e-03,-4.023216951016335592e-03
4.251708372724099724e-03,1.442315080000460903e-03,5.457156039550497108e-04
1.340367715370070550e-03,2.750819991937969531e-03,-1.341292005503143085e-03
5.185428834730530095e-03,-2.130893074554390842e-04,2.296581518478476528e-03
2.200049659051344243e-03,-4.687123741098199806e-03,-2.495970463426030322e-03
-5.526567943681601203e-04,-1.028781406637037290e-03,1.086047132450916044e-03
-7.266816488093669809e-04,1.367995411769583596e-03,-6.249319883172417501e-04
-1.094329563482932330e-04,1.997439084990309654e-03,1.074376707491603430e-03
2.503927830628701647e-03,2.972997908753779051e-03,1.595889615229044651e-03
-8.889930282569822890e-04,-5.738623133147033317e-03,-1.716328396518110267e-03
-1.514118793064172120e-03,1.092197200142861098e-03,-3.140652527266891893e-03
-3.462681133632467077e-03,-4.304478488409506885e-03,-4.301310131415081103e-03
1.942315161434683831e-04,3.305610984080773959e-03,3.825835760272204220e-03
2.655694975151731176e-03,-2.662882911905744155e-03,-1.999967164142002138e-03
-1.379861467646330319e-03,1.814595445545132482e-03,-1.335782655605509102e-03
-1.699116272401241185e-03,2.835181549694240632e-03,-1.153159707466567489e-03
-2.066991325359663484e-03,-3.282371282744961198e-03,1.457938293609869693e-04
7.612579575317006235e-04,2.725153570033131065e-03,-3.339473454206163378e-04
4.111893935029254689e-03,-2.195861785323085548e-03,-3.994504035563473457e-03
1.008083782242520220e-03,-3.444376113810419392e-04,-3.420769728082301633e-03
1.193212651622542735e-03,-1.339773262367738478e-03,3.164586016208193690e-03
-3.927641345949834696e-03,1.473224258898143783e-03,2.869372883952691126e-04
-1.421112417556050916e-03,-1.235136246395992544e-03,-1.742160931988167389e-03
3.678307253920145778e-03,1.364545812274309874e-03,-1.234276845773844486e-03
-1.436982139090234615e-03,-7.375887414401969579e-04,2.002806276569164476e-03
-6.917272905533839236e-04,7.043273764142189697e-03,-1.916750687448696110e-03
-2.737188330604272898e-03,-1.719480920261625594e-03,2.894047636118602903e-05
-4.947237220387045147e-04,9.232264644083475798e-04,4.056093802862588893e-04
1.886153144879128393e-04,-2.448938885711256837e-03,2.216562605243718579e-04
-7.806998369422371055e-03,1.838652251159089051e-03,-3.128071669995053858e-04
4.086974465682358072e-05,-2.168170429267968094e-04,6.902755369980616458e-03
-3.803479781402469007e-03,-2.189789649039953871e-03,-7.015501430208920947e-03
4.466597173771231881e-03,-8.030179861930423222e-04,-9.175076476985091615e-05
-2.955788701385371649e-03,-1.257251887977588623e-03,4.574485035373241325e-03
1.610830160098096183e-03,1.767515433058111174e-03,5.281237987336644124e-03
-1.771857983598876338e-03,1.542018932785752753e-03,-2.139772430525914686e-03
1.992520997078551463e-03,-1.194838903510835526e-03,3.628146342074392637e-04
1.142278493397471143e-03,-2.278275173845339236e-04,2.748788936014387799e-03
-1.171564786481713244e-03,4.909807715259627107e-03,5.527367248556072470e-03
1.607403461890529600e-03,3.201257237729207301e-03,-1.695119882399355980e-03
-9.515043602234777177e-04,-7.093052732882249760e-04,-1.512490569754881093e-03
1.775471791490053223e-03,6.048758171533188260e-03,5.125075068215182404e-03
-3.217813382860248636e-03,1.752083236525562573e-03,1.131442956156449318e-04
-7.654524605483487953e-05,1.757737234825068780e-03,1.075274637916447725e-03
1.841499781905331194e-03,-2.473865160220958901e-03,5.240756056475237741e-03
8.344095899955911600e-04,-4.418950990516103215e-04,1.362809258647061216e-03
-3.043975441006973540e-03,-4.434594655379198863e-03,-6.825697468868889822e-04
1.879359683414590695e-03,6.007277093720489588e-04,2.930278831658882522e-04
2.110828413357279752e-03,-3.639064328037084056e-03,-8.776789150484169298e-04
8.597542837118584856e-04,-2.378842058893071345e-03,-8.204400343367985668e-04
2.811664998849421754e-03,1.438652447773656161e-03,-4.292574667974226018e-04
8.105534398074519488e-04,-5.091599305187152714e-04,-6.776680353262118763e-04
2.946593014111730836e-03,-4.612567460014154299e-04,1.227432412123209996e-03
2.158166673783830803e-03,-4.993999685174439589e-04,-3.015125660988606307e-03
-7.115212454232188637e-04,-1.945510760785457540e-03,1.582919556721625303e-03
3.095243274638286631e-03,8.427383591592339232e-05,1.014692410374811371e-03
2.596497116105972715e-05,-1.826562026900933845e-03,3.844270344326060178e-03
4.032607436679738928e-03,2.493106239994364367e-03,2.436336832513739795e-04
-1.445416324407096387e-03,3.532517165834644837e-03,5.680640915048221261e-04
7.242421598038087990e-04,-2.189605066840053741e-03,1.496355966183735009e-03
-2.375009083255370454e-03,3.080582570521720799e-04,-6.064922856015857525e-03
3.860142675610599150e-03,-4.275178195073729877e-03,-6.881457926021265423e-04
2.620759751654031400e-03,-2.444163679598645219e-03,2.484490388724691114e-03
-1.146943720757343823e-04,-2.914500328456665935e-03,-1.366703273081571986e-04
-1.476836550727156404e-03,-4.772391464041954127e-03,7.200826649979616802e-05
2.999013987456111262e-03,-1.505058067176762941e-03,1.934440985379955310e-03
-7.609049137368726961e-04,6.999027574778331380e-04,-4.491837908517640936e-04
-4.323412981785739947e-03,1.785080484605589468e-03,-1.116054350223512522e-03
4.414175215980038216e-04,-2.073811049766549988e-04,1.429662473230551480e-03
-1.414113868675154423e-03,-2.611539464477847204e-03,1.957433434330922966e-03
1.321777931215081716e-03,1.443987954603975820e-03,4.714066340183085957e-03
8.840937478214323493e-04,-2.432149385367936116e-03,3.140060892642356806e-03
-1.999287083055010985e-03,-7.738178239512581279e-04,-3.775677010822839005e-03
3.063655673519109605e-03,-7.842086679953138998e-04,1.588038813798244237e-03
2.616001617291314595e-03,-9.363668081478505816e-07,-4.920968249515478548e-04
-1.199201980736600004e-03,-2.008399224607788219e-03,-9.713594630705960640e-04
-1.351288114462147194e-03,2.300194978868262685e-03,-2.532956970836017317e-03
1.287035789764011309e-03,8.223581742862128788e-04,1.648230908249910271e-03
4.746745990090522720e-03,-1.212287890145054064e-03,-1.554710179838646091e-03
1.374139209782915781e-03,2.145601937471953383e-03,1.868678608008365145e-03
-3.189464982553491079e-04,-3.254667650779977366e-03,-2.481010716167408869e-03
7.556275453987974485e-04,9.579590542279355992e-04,-3.302740671175447874e-04
-1.273859816494091971e-03,1.955902503532400269e-04,-2.760379140784917883e-03
2.448002184032600261e-03,-6.753165110931120835e-04,1.577337614902607835e-03
-8.670657847172124136e-04,-2.732773532454565221e-03,-3.035701824701459925e-03
-6.496162908019841595e-04,6.573832693120351065e-06,-6.072651134878348598e-04
1.355871268000978427e-03,-3.889049075708923831e-03,-1.302245995473786354e-03
-2.536574793762922785e-03,-3.078925595319343452e-03,4.313162949893229771e-03
-2.887422986834247730e-03,-6.825332424137518653e-04,2.561493190411379562e-03
-1.422498970891062601e-04,-5.229087015064493374e-03,-1.565835313004073628e-03
2.478707815976794945e-03,2.814293573810391826e-04,3.489566830404731458e-03
3.687257374513009354e-03,-5.020521078704015728e-05,-1.634853485419946123e-03
-6.111686493373746009e-04,5.331686311779133087e-04,8.590599308660404072e-04
1.749180053211881435e-03,1.814511748805405691e-03,1.678457100322424799e-03
2.023238241151104034e-04,-2.015157164155246747e-03,-1.295638234246853249e-03
2.222597758730365195e-03,1.990286804000247853e-03,5.108339464778805872e-04
3.025458942749023779e-03,-3.130655653848646975e-04,-2.778646506417289247e-04
4.528047786173363710e-03,-4.764066289775552255e-04,-1.035289774999857042e-03
3.174233830006418892e-03,2.151441693812376505e-03,-3.969429049740284224e-05
1.735185953547806453e-03,3.062378253047592686e-04,6.652692268370239206e-03
2.592520283671051560e-03,1.033385428401410646e-03,1.571272233265461277e-03
-2.907677059630972040e-03,-3.421960986352227691e-03,-2.081628583896376426e-03
-2.711669010492400887e-04,-1.178977052713031529e-03,-8.515161998259770243e-04
3.211909647906383697e-03,2.895056473960735694e-03,-7.382798365752132885e-04
-3.631918425646412795e-04,3.139059721361546918e-03,-4.694692211446262718e-03
-1.196261768598377113e-03,-2.536536015140706223e-03,-1.602492798203140369e-03
-1.563916492985170962e-03,-3.080207286068014066e-03,8.345088880341532383e-04
-6.449515270807548543e-03,-1.155459891154597907e-05,-5.411773975480813677e-04
2.724597714717696094e-03,-8.615977479829473604e-04,1.113292032288542936e-06
-1.483426958653546069e-04,2.898409483775718498e-03,-1.168256161823699301e-03
5.185459990483242201e-03,1.107011485130413465e-03,2.429178121962159275e-04
-3.787403160313096082e-03,1.716667932920611919e-03,-6.702575717501191820e-03
2.591523627305728720e-03,5.147700170816181357e-04,-2.551127680872829727e-03
3.327309706686657625e-03,-2.150497601223354163e-04,-5.555725094013627251e-04
-9.537978673587592946e-04,-2.276901271093824917e-03,1.959584803600634278e-03
-7.491842076450537817e-04,-2.043905524052209554e-03,-2.819939281172097905e-04
-3.734457014079773859e-03,2.002765494487020875e-03,3.495642711259016721e-03
-3.041150490929006057e-03,3.439736598836243275e-04,-3.270420000379132067e-03
-1.531473614913762913e-03,-1.628160339763631750e-03,3.482649298077990230e-03
5.455195696647263670e-03,2.385276975023077443e-03,2.857342723222241771e-03
-2.090684553828560150e-04,-8.191805742215324928e-04,6.644169599220000992e-04
2.930697429376519919e-03,-1.354510112073483699e-03,1.526572746642716966e-03
1.839742667108381887e-03,3.299453969385397626e-04,-2.354844125052704337e-03
-1.274215546731748887e-04,-2.782838676941705534e-03,1.399762657524727949e-03
2.776913062342782190e-03,2.012311953110681659e-03,-1.469376731372176248e-03
2.217570047899629880e-03,-3.286599005562509620e-04,5.200995798577042091e-03
3.186076280834501413e-03,-1.365722683793433050e-04,-4.294504026726345298e-03
3.085499795790698323e-03,-7.965924065785138499e-04,-5.523188120937364345e-03
3.323370555116293614e-03,3.161559057733388800e-03,-1.052879683703267233e-03
-2.771950575664954529e-03,-4.241601682486183245e-03,-3.981231495292192031e-04
1.968765615170331917e-04,-1.640261066316390593e-03,-3.167209026029381598e-03
3.379782023786248265e-04,2.486389359512689457e-03,3.795210902331346719e-04
-6.685050154275674645e-05,4.652060367459444346e-03,-2.538062488848505729e-03
2.568862622217798434e-03,1.091936700556927738e-03,-3.361529570806352958e-03
-1.687449539976830547e-03,2.383583476695493291e-03,2.882913919154606562e-03
8.190154270109657351e-04,-1.750332760825991244e-03,2.775361152148094531e-03
-4.269967925012050844e-03,-1.121792892212611446e-03,1.425807446945763675e-03
-2.123502027620872104e-06,3.125487798004365422e-03,-4.083097218925461902e-03
1.843237397989330468e-03,2.383502495705437652e-03,1.990951129485963537e-03
4.221792401458683390e-03,1.569587643976577684e-03,2.653372986363372252e-03
-2.708625320220339056e-03,-5.606810700219314438e-04,-2.571763871117839668e-03
-3.332883708268227513e-04,4.347795147416532244e-05,5.120598990966660803e-03
1.845529455010065916e-03,-1.494952457906181852e-03,-8.269891347441015437e-05
2.146315624776572693e-03,2.818494900706624683e-03,-1.579611782065309077e-03
-3.051606704788576568e-03,5.053107368216095026e-04,-3.567655432127646471e-03
-3.409946661938916945e-03,-3.750655471913067959e-03,-2.967151052097373194e-03
2.602449479715376098e-03,8.350105641281364193e-04,-2.100864954007105115e-03
1.639559833204439323e-03,2.030047306426414292e-03,-6.616363953722525755e-04
9.911420789687635808e-04,-1.600217119693637296e-03,-1.623990691417277234e-03
5.036379042495678316e-04,-3.640306753228308555e-03,5.217413824797417034e-05
3.867717770716103901e-03,-1.917761910828010864e-04,1.886369092957362013e-03
-1.017103134803162444e-03,1.250181887461446076e-03,1.934377004464610467e-03
2.218853310968791313e-03,-3.919413343619139282e-03,-8.077356453351927992e-04
-8.334196459127798159e-04,1.285044141743312560e-03,3.147601116897900085e-03
-2.302900740095870525e-04,-1.232730658531103370e-03,-3.248468446487657625e-03
2.903251882449522231e-03,2.033888843944156501e-03,-3.409396260311716928e-03
1.015010504495017811e-03,-2.489669550513644563e-03,2.162527423716846357e-04
-8.507784570792211029e-04,-3.290098568520092204e-04,-1.430129692977942209e-03
1.773865596511440624e-03,1.619925202977879220e-03,5.022396923589754090e-04
-2.145219067290602636e-03,9.047234155211523890e-04,2.103758583902611001e-03
-3.637531696557520376e-04,-3.823388684377404187e-04,-1.132201230750012845e-04
2.215365623189092517e-04,2.506863355793520747e-03,3.316929108304232914e-03
2.163389531175926965e-03,-5.644751345596699631e-03,-3.597287135907273510e-03
1.159781747152594704e-03,1.537462357362912339e-03,2.747369563853214493e-03
-3.899510028702557387e-03,-1.571868060081073283e-03,-1.059118188199243495e-04
-3.180789390121529104e-03,2.627217471286177452e-03,-1.042131162879624028e-03
-5.002497007071929694e-03,-4.179856968699340383e-03,-2.094834397680330352e-03
-2.340473957079461289e-03,-4.709120619531303770e-04,2.890372362086337469e-03
2.177454750177971934e-03,5.846205236468625215e-03,-1.623477295497481425e-03
2.963091873085383667e-03,-2.214127173161230342e-03,1.736759064506984218e-03
1.397853974962763200e-03,-2.719978034136001817e-03,1.001934686195157884e-03
-3.413497112136504872e-04,-6.262390230479133015e-04,-4.222671830625789394e-03
8.186549179906538014e-04,3.422182795265660466e-04,4.556475233489695395e-03
-1.008556290753299988e-03,3.745467322416716743e-03,-4.786057595853006937e-04
4.035442065630643477e-03,-3.300906791652071307e-03,2.869918178416758312e-03
6.820968548384991233e-04,-1.538610831304174087e-03,2.759099812927318009e-03
4.269733419282195283e-03,2.597208116977165089e-03,-2.858321905301684351e-03
-6.342837554525617523e-04,3.014101251333591459e-03,4.433010697380026371e-03
1.513007886616764405e-03,-3.265747006996546405e-03,2.863623648521563202e-04
1.337232088293222390e-03,-1.073559963995756672e-03,-4.543421457764477110e-03
-1.948743994267704369e-03,-3.725516060615274416e-03,-5.828008857953505956e-03
1.152335643029634305e-03,1.233166136625817163e-03,-2.776416803687816685e-03
2.508628221617589891e-03,-6.633562361627340018e-03,3.078239596568457803e-03
1.145368506226320752e-03,-1.000745095111514084e-03,-2.910072207358267802e-03
7.499789985475900948e-04,1.650866570851589488e-03,-1.352586112802208569e-03
-5.262690629762415383e-03,4.357029525134219206e-03,-2.666731410138932674e-03
1.405038844016146633e-03,1.057466335968829324e-03,2.613173068437094852e-03
-3.042738517562593604e-03,-1.544658286340149260e-03,-4.565894133675879422e-03
1.142202014855141787e-03,-2.575667675775550336e-03,-5.309516820833527252e-03
1.251359968376857717e-03,2.803470479489536798e-03,-3.131513951858680249e-03
-1.353582849040607878e-03,5.695774131131163022e-03,-1.246449159866975728e-03
3.216018527595359937e-03,1.060836080898613226e-03,5.272552102302354072e-05
-1.415367406047602066e-03,1.252131232891760641e-03,-6.870195125135220493e-04
3.704850731637431612e-03,6.383923296788508381e-04,2.555659107112486471e-03
4.174427226110306345e-03,-6.340178122117827051e-04,-5.016099543158071029e-03
-3.185904126778815564e-03,1.411683653733438208e-03,1.735586564607701420e-03
2.341585472506993795e-03,1.711955756710949140e-03,-1.299158021148131333e-03
-2.746269838831479505e-03,4.669757728335153547e-03,-1.283306607683505629e-03
4.289660948408283159e-03,-7.838689547289323699e-04,5.076201272072041566e-04
3.902306345110857994e-04,2.785987464775415388e-03,8.094665885959915043e-04
-9.640498533349362671e-04,6.958829230388443492e-04,1.292082471673964270e-04
1.775493354477494399e-03,2.881994344887717045e-03,-3.070685735638119512e-03
-9.856751079657720491e-04,2.549959250798265915e-03,1.815671405981487832e-03
4.043554555958090747e-03,-2.130164996676900228e-03,-1.286816236915941597e-03
-4.193437802776635477e-03,-8.203421714858227754e-04,-3.675526736397538899e-04
-2.082123386262216725e-04,-1.763431857401651396e-03,5.447278465469830057e-03
-7.042397621988970464e-04,5.299461309420010549e-04,-1.103467515149516697e-03
6.147723360605301815e-04,-2.614414610197269249e-03,-3.482889040472879252e-03
1.216335049010926206e-03,2.621362401429657655e-03,-2.755193832919018877e-03
-1.226063283138297422e-03,-6.786085230417582661e-04,-6.063606576988818083e-04
-3.569457183030352431e-03,6.936926295843288015e-05,-6.841126207287721601e-04
-6.722125241247830108e-04,-8.827831629020698118e-04,1.917598743285865866e-04
-9.728027273255894459e-04,-6.831348110703459311e-04,-7.767962769060760388e-04
-4.860646332757253760e-03,6.698958682075142055e-05,-5.236364757667795120e-03
-9.938047001162603634e-04,-2.299999547175247440e-03,1.675914666656425295e-03
-3.305944879170370949e-03,-2.446186307250346626e-03,3.586624577241901042e-03
-4.900953262853499810e-03,-2.705320610821833859e-03,-3.419183181479614007e-03
-2.023697920478617889e-03,-2.118860725745711545e-03,-2.389817136906580662e-04
3.448319556373540158e-03,2.235141542663539056e-03,2.465921503763636533e-03
2.022134277448145272e-03,-6.142893657852305147e-05,-1.247111144600255347e-03
-1.718936943794912783e-03,-4.083513430197686705e-04,-3.767915409946245506e-03
5.719612325410342203e-05,8.255369514917275083e-04,3.416980073111711147e-03
2.508924463983766007e-01,2.896851346814259265e-01,-6.942169088849634885e-03
4.734418818794799977e-01,5.707451053245259365e-01,2.792032223930628228e-03
6.781267756044176975e-01,8.562254224714507256e-01,1.597191810176867410e-04
8.545608610045101194e-01,1.145816061358329474e+00,2.007148966948270417e-03
1.021406522844128029e+00,1.431874110616631945e+00,-4.331454025406101041e-03
1.168617932437973295e+00,1.720609942843149387e+00,-1.711041283740228746e-03
1.299177962355960947e+00,2.005083444376330348e+00,-6.836217814988985488e-03
1.416954327682619752e+00,2.289361013854001037e+00,-3.307896632293554594e-03
1.519675632314463565e+00,2.557492720136856246e+00,-3.488978568125945378e-03
1.611942761206276442e+00,2.796938231357709803e+00,-9.204728658745523970e-03
1.695582824859650506e+00,3.009400508526289819e+00,-4.537266548686744345e-03
1.774545087426654844e+00,3.196572425345892920e+00,-8.083422399796815275e-03
1.839975090390745693e+00,3.368400694362145398e+00,-9.998655036611391392e-03
1.892066439535025513e+00,3.518128138641094971e+00,-8.129819397412666945e-03
1.947551682545956231e+00,3.654404131384012544e+00,-9.721691707628743115e-03
1.993800015392924951e+00,3.771873052587310760e+00,-1.198963345901028071e-02
2.035955119756438503e+00,3.871615200596885131e+00,-1.654003690449857081e-02
2.069690071599712855e+00,3.964914414253829289e+00,-1.319548964401534054e-02
2.093524944500241514e+00,4.043505165988932504e+00,-1.685353182689116117e-02
2.128246436063630842e+00,4.121805356176653667e+00,-2.341811953594511234e-02
2.146299503276991150e+00,4.180387564958824242e+00,-1.911784775980962872e-02
2.165730223970705026e+00,4.233723689332219209e+00,-2.196245956339716934e-02
2.185593671546905092e+00,4.280423450955894715e+00,-2.342374434562796703e-02
2.198022988540412115e+00,4.321901894700900471e+00,-2.581843259082819073e-02
2.213087645916831825e+00,4.353898022582659344e+00,-2.997631534454479191e-02
2.218968423541032298e+00,4.382795895919928242e+00,-3.016905503390324497e-02
2.218863030239113243e+00,4.401470789468730160e+00,-3.290507405736282226e-02
2.229403358249093081e+00,4.426092196022739955e+00,-3.215064627925446478e-02
2.234509618476515858e+00,4.434025851083113423e+00,-3.720873621210366716e-02
2.237277154456371875e+00,4.450737358457788950e+00,-3.594886895246834219e-02
2.235404492708114699e+00,4.454846952842438590e+00,-3.942072353795594147e-02
2.234839489592689965e+00,4.457480556808461891e+00,-4.418246639904557793e-02
2.228224190520982972e+00,4.461068366524149731e+00,-4.569600644474770823e-02
2.228357435812599707e+00,4.457942951619018324e+00,-4.639745815221053143e-02
2.226811013085010060e+00,4.459449667875273526e+00,-4.809787850446932411e-02
2.223007274071434392e+00,4.456081493193252641e+00,-4.225212780596526718e-02
2.215624124233957826e+00,4.451226441508469911e+00,-5.273963744979247997e-02
2.209432879392544180e+00,4.440036831893450220e+00,-5.227676050783782585e-02
2.207714791337080040e+00,4.428797492993115092e+00,-5.419282071472677348e-02
2.196690222585945040e+00,4.416571187791435094e+00,-5.604691238439113432e-02
2.194004311657094419e+00,4.402813015172913680e+00,-5.836754216187337030e-02
2.191146176159551651e+00,4.390823080801092182e+00,-6.105487745294497365e-02
2.174673503632836180e+00,4.378158113933952933e+00,-6.162500362914797442e-02
2.170164300133292645e+00,4.364829173687994945e+00,-6.120602793705900296e-02
2.164516853004533115e+00,4.353724017869458507e+00,-6.880727851928018779e-02
2.153021248338898186e+00,4.334063715992896526e+00,-6.531980872472135935e-02
2.141986573149234019e+00,4.313623456953701307e+00,-6.732744028875743691e-02
2.136353400307965611e+00,4.300564433965112343e+00,-6.282229358759124083e-02
2.124077676808528992e+00,4.283997523677887109e+00,-6.943390536258918500e-02
2.115210399426564525e+00,4.263848531370019401e+00,-6.725829724332607618e-02
2.102217296180959760e+00,4.243814884481134087e+00,-7.186596927858293626e-02
2.098913650494362848e+00,4.226489400411857389e+00,-7.106495935188979207e-02
2.089843150070959776e+00,4.206718776449375419e+00,-7.526273824146924307e-02
2.080747325877385201e+00,4.188000463736543111e+00,-7.516187312210138860e-02
2.064553760612418909e+00,4.172625228625634008e+00,-7.903145136939071502e-02
2.062024415761782858e+00,4.148021501746071316e+00,-7.924205572703732492e-02
2.048212288960622907e+00,4.130773923644656342e+00,-7.900252119001363593e-02
2.039527879644086106e+00,4.111381555541314015e+00,-8.020691576557670288e-02
2.033028580448017486e+00,4.095708117794912617e+00,-7.753413245195077408e-02
2.019969264798271880e+00,4.073216327570188255e+00,-8.271625275961998203e-02
2.006235707938635038e+00,4.051714505128908073e+00,-8.315102023871054349e-02
1.999773332421377781e+00,4.032920703255244099e+00,-8.398776192940615726e-02
1.993611945568866117e+00,4.010618090268738278e+00,-8.228584608449412974e-02
1.978379311538525753e+00,3.994280915815814570e+00,-8.503228524307353264e-02
1.968987690117978584e+00,3.970223166059035247e+00,-8.770804644040733344e-02
1.963902015306340454e+00,3.952255239628472694e+00,-9.080158528963569453e-02
1.950688032063844890e+00,3.935315065126270717e+00,-8.859705489107475018e-02
1.938390029651484436e+00,3.913611093424123499e+00,-8.898768001604645539e-02
1.928538049097533902e+00,3.894930634965303895e+00,-8.571423522229631997e-02
1.917559510574166293e+00,3.872016420972546946e+00,-9.669854395796949331e-02
1.913189722855794139e+00,3.853445816159724924e+00,-9.191791785238771773e-02
1.897905597121133603e+00,3.836521370664878194e+00,-8.786401127515323928e-02
1.890898033568686243e+00,3.813359126043077030e+00,-9.202357004919237138e-02
1.882621175803185665e+00,3.795030696923769487e+00,-9.167042627211725858e-02
1.870558084326525039e+00,3.774604613051694812e+00,-9.434457156596044725e-02
1.860880827040746643e+00,3.756581462741759303e+00,-9.187335155034691281e-02
1.848826970110846846e+00,3.740778890810199986e+00,-9.645484770065267111e-02
1.840793629986768210e+00,3.715521723963984169e+00,-9.432768269164443220e-02
1.837300296126370247e+00,3.698483549507711299e+00,-9.881169102803431803e-02
1.824613611518207890e+00,3.672783833967702360e+00,-9.839562750531333224e-02
1.812083595847289175e+00,3.655848569578763030e+00,-9.113488747755885133e-02
1.803108825835774365e+00,3.640595782940046377e+00,-1.039725574299894539e-01
1.795779276488890019e+00,3.622457052771931529e+00,-9.527212781458119228e-02
1.788435761946782110e+00,3.600231368953725752e+00,-9.963814813837547357e-02
1.774225465107564403e+00,3.579983906671422744e+00,-9.584129179098348217e-02
1.765694918969552552e+00,3.559917301001466861e+00,-1.037974170524431222e-01
1.757540897657870138e+00,3.544902068586597288e+00,-1.016204928533508134e-01
1.745547238443065474e+00,3.523866060927380861e+00,-1.028057048579320149e-01
1.737498408486392254e+00,3.508794421032918720e+00,-1.068517446143718019e-01
1.727120037499174199e+00,3.493078917622754798e+00,-1.041939423010173615e-01
1.719531580868101317e+00,3.474509850360024910e+00,-1.063421286664760490e-01
1.709711708986351608e+00,3.455785815731486021e+00,-1.038253801467126508e-01
1.700844274349240903e+00,3.430847279032785302e+00,-1.073389205550999703e-01
1.693150130363058059e+00,3.416340729554565581e+00,-1.089246720560085729e-01
1.683738118730445876e+00,3.400822347108241051e+00,-1.078489709228933890e-01
1.673678136498985225e+00,3.380124403861746174e+00,-1.080936032547346742e-01
1.666602518580420300e+00,3.363537496178313102e+00,-1.049656214233686546e-01
1.656507896175914318e+00,3.350193568447792369e+00,-1.091055369371753264e-01
1.650521418851440769e+00,3.330040337513031190e+00,-1.071240754770177855e-01
1.635149381356125309e+00,3.311977395001070690e+00,-1.072518640169426718e-01
1.635996613508130970e+00,3.291949283611022903e+00,-1.138257509462108769e-01
1.623259772176780080e+00,3.276776725019293401e+00,-1.123013381630263152e-01
1.612999172440996665e+00,3.261870053697424776e+00,-1.078848532670132476e-01
1.603076694008705338e+00,3.245584492824120204e+00,-1.109675326136379536e-01
1.598918273097326814e+00,3.225518293311340212e+00,-1.093441022389884804e-01
1.591189668945312441e+00,3.200500507770042358e+00,-1.159759074682716468e-01
1.585132306930761681e+00,3.189746467085068815e+00,-1.153821709109765642e-01
1.573384758077692069e+00,3.169960293672471785e+00,-1.109993988868525072e-01
1.562810709920257946e+00,3.157168276753955727e+00,-1.076080888603516833e-01
1.558060004499921547e+00,3.142056948455660859e+00,-1.127602039235527098e-01
1.549969812954091086e+00,3.122232942332502592e+00,-1.092968477297059371e-01
1.541552886412853152e+00,3.106447756796036686e+00,-1.106288744366780846e-01
1.534165722753576766e+00,3.090373846786149681e+00,-1.125076514349287599e-01
1.530137369134342507e+00,3.076409230255255700e+00,-1.143831148788104074e-01
1.512757481006135274e+00,3.058360633600995637e+00,-1.140088745048512819e-01
1.512831678642035937e+00,3.044537898470310200e+00,-1.079881262273752196e-01
1.497971002484919323e+00,3.026095162268311878e+00,-1.113378554318841251e-01
1.489851014933339046e+00,3.010523143504605148e+00,-1.150766338635684782e-01
1.486649864157459033e+00,2.992337553934401484e+00,-1.145168831861793773e-01
1.481887475426983070e+00,2.979541715092608012e+00,-1.115024248234559034e-01
1.473332847865404638e+00,2.962567741398354215e+00,-1.139364774732358476e-01
1.460631878721513344e+00,2.950210749154913881e+00,-1.167065557442224233e-01
1.452750693713226182e+00,2.933780494804663075e+00,-1.145465393419034111e-01
1.446964848032481266e+00,2.924729584999023135e+00,-1.154861698292023869e-01
1.438949530751661765e+00,2.901308827675172619e+00,-1.105722416574413391e-01
1.431361924438006472e+00,2.886055851385492588e+00,-1.149386916710991163e-01
1.427271776689544414e+00,2.867615128493930854e+00,-1.145844850933732395e-01
1.416114826295551854e+00,2.858805789063551650e+00,-1.144920081016220365e-01
1.404989985649578443e+00,2.845771725904318927e+00,-1.162535580821827397e-01
1.398820319853521843e+00,2.826827777613798443e+00,-1.140391160925933178e-01
1.394431569020284201e+00,2.808893306342122198e+00,-1.178440909821911603e-01
1.386169246095442453e+00,2.799831366651232667e+00,-1.137063044442884752e-01
1.382019795209330049e+00,2.778262174032137821e+00,-1.140335966060063710e-01
1.372076844616788804e+00,2.765177063012843828e+00,-1.143247906712168693e-01
1.362338758300904562e+00,2.752800568574095053e+00,-1.151525090618200908e-01
1.358808473584110610e+00,2.739494053051699574e+00,-1.149827176050712135e-01
1.354305944315096211e+00,2.723992832313211210e+00,-1.118739970542996232e-01
1.342929166666392282e+00,2.704958225220026602e+00,-1.150594610538435425e-01
1.335249434215407316e+00,2.696126082126354184e+00,-1.153219239697062942e-01
1.333015508914985103e+00,2.682736990170762947e+00,-1.164462330332451945e-01
1.324005411787552156e+00,2.670516064630323871e+00,-1.181372325786491789e-01
1.315792796501791040e+00,2.649764916470371823e+00,-1.169762843840099764e-01
1.310258981147447876e+00,2.641211948854828240e+00,-1.135905561985184192e-01
1.292636424848377041e+00,2.625861759778093774e+00,-1.151552393634841936e-01
1.299530962774980036e+00,2.613222988204252584e+00,-1.156550379122176231e-01
1.287190227509984242e+00,2.598576750272808322e+00,-1.184684261658043025e-01
1.283277904646802803e+00,2.584938077664935108e+00,-1.154685251072807423e-01
1.273243166400703119e+00,2.574004881249188248e+00,-1.199106119474415560e-01
1.269153017726038613e+00,2.555187060311193470e+00,-1.152532801541407831e-01
1.262747881611385958e+00,2.542541757773786770e+00,-1.196246550896905153e-01
1.258082592076767314e+00,2.530753764710638620e+00,-1.166791839468262482e-01
1.243688897256758574e+00,2.515299320469979172e+00,-1.145739977786921909e-01
1.239842480429227400e+00,2.503348588559351828e+00,-1.145324683088357470e-01
1.233123598463407911e+00,2.491935109060146036e+00,-1.188958336821544920e-01
1.227917815309967908e+00,2.481655535792554712e+00,-1.157555513881916437e-01
1.220605114068251451e+00,2.463618664740907516e+00,-1.185150241001454996e-01
1.215784152189784972e+00,2.451168134578952440e+00,-1.111813273572148791e-01
1.208665005242840484e+00,2.438184412027192938e+00,-1.144069558865213054e-01
1.204221237611874162e+00,2.424636130931556721e+00,-1.126534031362884380e-01
1.201963235451793732e+00,2.412249182024368999e+00,-1.138202508513262018e-01
1.184598343240262031e+00,2.398550718708067464e+00,-1.117879312649211893e-01
1.186297627557253431e+00,2.388731492402184742e+00,-1.150308428991222154e-01
1.171039772725503303e+00,2.377712782636320021e+00,-1.165294746121717240e-01
1.170895152599823907e+00,2.365296585820182429e+00,-1.130731187890213485e-01
1.165479273453448705e+00,2.351822822392650281e+00,-1.163352337086050736e-01
1.160794298225562349e+00,2.337183699565529071e+00,-1.135481653900945048e-01
1.156681090151356228e+00,2.324092985190964189e+00,-1.196625482575469634e-01
1.147574566764933746e+00,2.311821267808923608e+00,-1.150636696138721687e-01
1.141435230889812358e+00,2.300699445277129218e+00,-1.117882055300427196e-01
1.135916924512924808e+00,2.291350142731834350e+00,-1.145180090473781193e-01
1.128506831962425405e+00,2.277506547546328530e+00,-1.132438396913988399e-01
1.121497007765048792e+00,2.269890240705214612e+00,-1.139215967214148167e-01
1.117219170728608990e+00,2.252309144709874200e+00,-1.114646022944377063e-01
1.113660794567448153e+00,2.244428679135201055e+00,-1.146722462496259642e-01
1.109704225460546700e+00,2.232886471691585939e+00,-1.131889704463656665e-01
1.099063923561338862e+00,2.217023911606741837e+00,-1.085496265742088712e-01
1.092505944749706970e+00,2.209871381459186601e+00,-1.145646603655106066e-01
1.090791260881809333e+00,2.198459845505024823e+00,-1.172839677487388377e-01
1.083908447861916535e+00,2.180487523192695232e+00,-1.129663856206881006e-01
1.074271145154082729e+00,2.178499926512242002e+00,-1.161097057651652165e-01
1.069736316847347712e+00,2.161728260059735174e+00,-1.115923902280664959e-01
1.065628690766984965e+00,2.148832227385286675e+00,-1.113818999645533742e-01
1.062482823344905736e+00,2.137467929118535448e+00,-1.164151410176427204e-01
1.053181918723249622e+00,2.127089215271238398e+00,-1.089910142021598138e-01
1.046032558253184863e+00,2.113534992134177948e+00,-1.114361768738657138e-01
1.042418868485886607e+00,2.104187495176653933e+00,-1.082544474165453158e-01
1.037459981484673444e+00,2.094973609753532973e+00,-1.106271637549676168e-01
1.030235684272202468e+00,2.082460955800143676e+00,-1.077645645562906457e-01
1.029220629552151323e+00,2.068989612795503419e+00,-1.109498763970079849e-01
1.024399984953826781e+00,2.058976495841982501e+00,-1.091311085577041651e-01
1.018199581084194172e+00,2.051738996924514336e+00,-1.096334341111848826e-01
1.009671821262143165e+00,2.036798844687781163e+00,-1.117489426965805333e-01
1.005989070231701143e+00,2.031814049268613864e+00,-1.083550598409834392e-01
1.003217087553478271e+00,2.015299948784646578e+00,-1.074131289582382770e-01
9.965457926247287546e-01,2.010518714263455298e+00,-1.080905309745370663e-01
9.865246124001704198e-01,1.995125689593066243e+00,-1.067889889351400223e-01
9.838947336286159029e-01,1.989458220712527314e+00,-1.079308939582553362e-01
9.738734746841454237e-01,1.976759566596207662e+00,-1.043414698595459267e-01
9.739176746430244780e-01,1.962734337850218003e+00,-1.073743586900359898e-01
9.782454060498015913e-01,1.947600815686379550e+00,-1.087202302450515634e-01
9.650111027992421819e-01,1.944548335229436153e+00,-1.126165694044297949e-01
9.570353177772533693e-01,1.931140783623655821e+00,-1.040987612563689935e-01
9.511459286510636213e-01,1.923758763946778361e+00,-1.056914594154169523e-01
9.467041455050885235e-01,1.908541025429929316e+00,-1.064655725339809511e-01
9.434254542231459428e-01,1.904348672673131349e+00,-1.078327504357554090e-01
9.311903377052769271e-01,1.892770707281526965e+00,-1.055245945343328551e-01
9.321922129479727204e-01,1.887202072319463797e+00,-1.063120797321555344e-01
9.321782521214352357e-01,1.877250930320927935e+00,-1.083806194288027130e-01
9.218380548645143113e-01,1.867999977441054282e+00,-1.084312829760685493e-01
9.235896600928806821e-01,1.852365035709606422e+00,-1.032990433370021693e-01
9.159970276361772967e-01,1.842568199703408682e+00,-1.038937815510178886e-01
9.086019807082738042e-01,1.835435536067555828e+00,-1.072435282445679677e-01
9.053641104548149077e-01,1.825747905257017578e+00,-1.034362634747762050e-01
8.993841575658206855e-01,1.814892662442075810e+00,-1.047033893646555636e-01
8.925461144297053284e-01,1.805308049306307838e+00,-1.038543377055257538e-01
8.940105242297237131e-01,1.797635883466346840e+00,-1.021891288595829367e-01
8.840791799416372054e-01,1.787749629815741814e+00,-1.056323037861321285e-01
8.808213152004399360e-01,1.775752864435932832e+00,-1.029579505551367902e-01
8.806196884611613429e-01,1.765956808337032058e+00,-1.020087438522100515e-01
8.721389043949182573e-01,1.761707708321388344e+00,-1.001922506783753525e-01
8.677217689327879624e-01,1.751338673051414885e+00,-1.046347887390737391e-01
8.646956145775577252e-01,1.739177399604743490e+00,-1.007290750467256801e-01
8.583320418197639690e-01,1.732650995949477135e+00,-1.049350572225102585e-01
8.551823052851152962e-01,1.726184854583670436e+00,-1.053275101929131152e-01
8.524830440949365817e-01,1.712554312774989596e+00,-1.028458055804728905e-01
8.490166143104589391e-01,1.702300576018879630e+00,-9.822214168684467728e-02
8.444356764856835174e-01,1.690736294941264761e+00,-1.000758847689652981e-01
8.388866585820370370e-01,1.685312134719036958e+00,-1.008674271701406056e-01
8.350152468301083042e-01,1.676490323879763711e+00,-9.386560729407908421e-02
8.304974970175542648e-01,1.668264115004156833e+00,-1.056742865988594404e-01
8.244193413271947435e-01,1.660690526787362398e+00,-1.009169660522565570e-01
8.188657490934397876e-01,1.651087657320774005e+00,-1.006799925229820980e-01
8.173321658056745820e-01,1.638589516887935416e+00,-9.941718386269131347e-02
8.113035863243249768e-01,1.631910565971912419e+00,-9.577463961614374188e-02
8.074100255638830825e-01,1.627651884200877586e+00,-9.868224777718080654e-02
7.968314484653180596e-01,1.617519162211870087e+00,-1.013160990511587783e-01
7.981908433027601335e-01,1.608903355757311360e+00,-9.933763966452230365e-02
7.937398890082411063e-01,1.600922178335417945e+00,-9.741345123087040425e-02
7.891710304740263693e-01,1.588438069376670647e+00,-9.600347264974457007e-02
7.858642722480770892e-01,1.586007329738927885e+00,-9.666869600524802264e-02
7.816554770630952387e-01,1.574559550775355588e+00,-9.659450127237373396e-02
7.747410120839733905e-01,1.567826004715545896e+00,-9.363663212124832824e-02
7.708135675447019830e-01,1.555541602909867205e+00,-9.514362474876648934e-02
7.674740300513478442e-01,1.552714627692912464e+00,-9.484450821102725915e-02
7.666924277516067310e-01,1.534713160319563174e+00,-9.256594188569661208e-02
7.592998332199736300e-01,1.531743105023146700e+00,-9.341525034858766396e-02
7.615860294642459172e-01,1.524543775558399705e+00,-9.343048293611710964e-02
7.523115992285586140e-01,1.522220907382812571e+00,-9.322932319267956958e-02
7.473858666995776279e-01,1.510774285004970796e+00,-9.249911439021052395e-02
7.468991847057055988e-01,1.501100623236790943e+00,-9.597087317034209974e-02
7.397115890841983177e-01,1.493663477982180909e+00,-9.432656707027599341e-02
7.302556792986942824e-01,1.483984386880304651e+00,-9.623751236589141167e-02
7.366526552368732883e-01,1.477533542680449452e+00,-9.479523238962365983e-02
7.321622239831132584e-01,1.477210845962262153e+00,-9.175391053606664349e-02
7.275508473586365099e-01,1.467234389258943228e+00,-9.684629091154310643e-02
7.182353115390452958e-01,1.451676430609174950e+00,-9.499946841927499330e-02
7.230071008296077295e-01,1.444467802270556600e+00,-9.276410478608079768e-02
7.132089410473511082e-01,1.440508207733047552e+00,-9.136713383802888555e-02
7.071476319923474252e-01,1.431183585277025827e+00,-9.096316236890321372e-02
7.078539037847025872e-01,1.419729816729376370e+00,-8.843513180528000950e-02
7.082200991679686863e-01,1.419439272340659253e+00,-9.117582688886261000e-02
7.013532191405584815e-01,1.412470381253091656e+00,-9.067921116844820939e-02
6.953830791528468058e-01,1.400998724189959077e+00,-8.638926843135821820e-02
6.934845508112930101e-01,1.393038604870064257e+00,-8.599053646736792844e-02
6.902651244500280781e-01,1.386669196628789180e+00,-8.577301545337619182e-02
6.834508442867767153e-01,1.382752548821120753e+00,-8.464379898620831566e-02
6.815162902380321741e-01,1.374625205182074650e+00,-8.639930245211577264e-02
6.752834609396952681e-01,1.369194545533713114e+00,-8.927803492044529554e-02
6.756247521656713051e-01,1.359269806106633505e+00,-8.642963621827878806e-02
6.711754420460159798e-01,1.353759033493559194e+00,-8.959053391903548658e-02
6.667687165827436147e-01,1.338880576828817004e+00,-8.730704216698821629e-02
6.643774244113368477e-01,1.337568815343193052e+00,-8.738749649322426205e-02
6.582611390852569633e-01,1.328523793106131334e+00,-8.468420736998794052e-02
6.571146591803946890e-01,1.322381147792111467e+00,-8.430381637892002400e-02
6.522979135706206133e-01,1.317290933513295847e+00,-9.023529951148452632e-02
6.520633438981566776e-01,1.310676802301820043e+00,-8.588504225382916080e-02
6.433833860198940879e-01,1.300420532928952877e+00,-8.160282766181216341e-02
6.447789119191696949e-01,1.295845186832216278e+00,-7.896529052239384394e-02
6.419661515572159249e-01,1.290339203210691288e+00,-8.607555834881208678e-02
6.367728006232046267e-01,1.283665144778391776e+00,-8.838060494916240295e-02
6.322197870006417419e-01,1.275877349851177289e+00,-8.471277898738176215e-02
6.303949213462547441e-01,1.267618017540530273e+00,-8.588232852942905005e-02
6.251594616580676833e-01,1.260506262834991675e+00,-8.534449473855088009e-02
6.210833862435081176e-01,1.256248494763661183e+00,-8.439067311034574581e-02
6.211747864779572081e-01,1.249241123526751096e+00,-8.490635333542158325e-02
6.198701669885183785e-01,1.239189514087361443e+00,-8.491695234831501959e-02
6.177566354197202569e-01,1.233329277618633757e+00,-7.792377130935626561e-02
6.059414435027715706e-01,1.230229342532085823e+00,-8.794648189341772171e-02
6.050856326112312722e-01,1.223142000088940584e+00,-8.400348903564647252e-02
6.061920557160014322e-01,1.214804903175616069e+00,-7.791754873247642987e-02
5.997178780397911524e-01,1.210883102642760889e+00,-8.260877698831690930e-02
5.974617550016564360e-01,1.202639050986020752e+00,-8.260966829355850805e-02
5.942878082909424098e-01,1.197302519371570506e+00,-8.487146094100773974e-02
5.894986363144636421e-01,1.195463391129620412e+00,-8.300487112477797358e-02
5.886814736879408816e-01,1.180995338769484260e+00,-8.060948703872079790e-02
5.859720598560724802e-01,1.176921090225249156e+00,-8.003324810086041852e-02
5.836418904020141962e-01,1.175096643719946599e+00,-7.690902367483892776e-02
5.803491215497572631e-01,1.167054589891975525e+00,-8.461754143705879638e-02
5.730777470451261513e-01,1.157782834573311881e+00,-7.920572828268886145e-02
5.686294404581241357e-01,1.155553181212369829e+00,-8.364423678708163279e-02
5.665879838354179743e-01,1.144967303720112906e+00,-7.643104186005474088e-02
5.644986957140951667e-01,1.143739481038203554e+00,-7.980968642049095230e-02
5.613288912963967370e-01,1.136715397702660502e+00,-7.898698480646429432e-02
5.589477918144231117e-01,1.125106616106961388e+00,-7.919587138965647477e-02
5.609581107353798224e-01,1.125264435786207162e+00,-7.661575784100546627e-02
5.514624604016328258e-01,1.115408228820249592e+00,-7.229034438637549354e-02
5.485350516245373065e-01,1.115211805079534990e+00,-7.851318628252289267e-02
5.511492519040285254e-01,1.102365832671732049e+00,-7.626919131974752020e-02
5.492271020132154513e-01,1.099302588034382744e+00,-7.514261624035326048e-02
5.417376200142806075e-01,1.098723092264664913e+00,-7.576640376119275766e-02
5.364764252215762363e-01,1.086876836775663158e+00,-7.572620798058966873e-02
5.406864293835131896e-01,1.081494583537760068e+00,-7.726104601657672599e-02
5.368584413008099521e-01,1.074938484178349807e+00,-7.946866421417418669e-02
5.284807678346650217e-01,1.067895780934537520e+00,-7.326858820835463471e-02
5.262573957627890708e-01,1.068413692246724889e+00,-7.033756079535360972e-02
5.229142109251934123e-01,1.059449778758043692e+00,-7.294036150021115938e-02
5.267571974309980254e-01,1.055497092265318626e+00,-7.350230133407731348e-02
5.233896724413482637e-01,1.051036649735278994e+00,-7.700577661151125630e-02
5.192041395508611989e-01,1.043135075855577742e+00,-7.650621769028438657e-02
5.150968502092601042e-01,1.042746581498427361e+00,-7.326070948496603286e-02
5.088969301455589234e-01,1.031580001668780167e+00,-6.746704224132861472e-02
5.112482025041117373e-01,1.026736033161526951e+00,-7.533006555480717403e-02
5.057435887601932079e-01,1.022125787426565235e+00,-7.395376828394505109e-02
5.059840757753631957e-01,1.012790093453057816e+00,-6.893564312071931433e-02
5.031714739852855001e-01,1.013837116047313192e+00,-7.296751110124805040e-02
4.981131819693780383e-01,1.007810902877837256e+00,-7.416474172734774384e-02
5.003962959635237517e-01,1.000697106639149014e+00,-7.091445466604343051e-02
5.002422817464166060e-01,9.939451248795836413e-01,-7.238715686347588218e-02
4.915331466612684053e-01,9.882240478843142828e-01,-7.226671359461218913e-02
4.900654252936345046e-01,9.869294130476637950e-01,-7.110273454692141171e-02
4.884867072015229850e-01,9.808540358137464166e-01,-6.585586939504368964e-02
4.823444504077279982e-01,9.771588790142226033e-01,-7.070783405724176407e-02
4.898563286641516856e-01,9.713484588463110470e-01,-6.668142753104258635e-02
4.804488221306574824e-01,9.654467413864735725e-01,-7.110673919573588797e-02
4.788206963387049431e-01,9.656727903585602402e-01,-7.480417081000831359e-02
4.735904531828299957e-01,9.540575634265124894e-01,-6.503036877102071067e-02
4.697734216007261598e-01,9.465524074652168496e-01,-6.943943178576393593e-02
4.711905081085342450e-01,9.466822898501782158e-01,-6.780521741119800716e-02
4.683719012382888125e-01,9.408527996081889055e-01,-6.527930693153591313e-02
4.654871489949109487e-01,9.420055341320444642e-01,-6.604795807086021042e-02
4.619539950773650649e-01,9.257963586065454109e-01,-6.543238622865332754e-02
4.598143443197885705e-01,9.227569814609238863e-01,-6.838760981172523068e-02
4.591341378183034783e-01,9.193147465318090017e-01,-6.766560502045530778e-02
4.537038212699773809e-01,9.159531820470422359e-01,-6.476461392396085093e-02
4.527010814744479306e-01,9.131849998520017442e-01,-6.715894102452057979e-02
4.518148032739838227e-01,9.041641656707318786e-01,-6.639200317229533577e-02
4.470557344272295675e-01,9.048030619469843439e-01,-6.294625234495836164e-02
4.468994574445122603e-01,8.972533541269314128e-01,-6.770302306863064390e-02
4.432521567007011720e-01,8.899034968186017025e-01,-6.273985017489251692e-02
4.337516275193621929e-01,8.872682854021580745e-01,-6.599743860140336316e-02
4.328497522615677440e-01,8.780856506246353943e-01,-6.745406653143079523e-02
4.372919483225660708e-01,8.819635824881285613e-01,-6.348508567917489354e-02
4.344870337409706407e-01,8.721246488375674621e-01,-5.959338360493235398e-02
4.308861522687095214e-01,8.715161153862001076e-01,-6.402247315056229515e-02
4.274336145209126636e-01,8.660350355880174211e-01,-6.108037597038427219e-02
4.279272354798127620e-01,8.551580582265653208e-01,-6.298012138777096813e-02
4.241688863658839015e-01,8.550327561977807411e-01,-6.293814646216280839e-02
4.170758798562940739e-01,8.480439880159303945e-01,-5.916338004954180968e-02
4.215651659077750968e-01,8.448010696604014713e-01,-6.536514167407234122e-02
4.137706053977995291e-01,8.389571869678322802e-01,-6.285211635282189624e-02
4.147387374478458955e-01,8.402670695874656648e-01,-6.423625739507703158e-02
4.180666731517661550e-01,8.328162083626743373e-01,-5.883821152482410222e-02
4.132838561015059753e-01,8.244152798057995390e-01,-6.309052293816992674e-02
4.066431009500468541e-01,8.245964057889322296e-01,-6.064911900597032279e-02
4.013589129804716049e-01,8.152916077638828751e-01,-6.290218281933275535e-02
4.035421475901556088e-01,8.134053266896629220e-01,-6.289478529121692030e-02
3.981306910443692670e-01,8.135982562055269485e-01,-5.935795552917352141e-02
4.000929115647670065e-01,8.033903081094797560e-01,-6.113357678627982794e-02
3.969367039123029017e-01,7.992453072313014939e-01,-5.824796950638011506e-02
3.948848352259881622e-01,7.995581149362055440e-01,-5.719838144021324733e-02
3.918286462822878624e-01,7.945094757565223098e-01,-5.924941165004652538e-02
3.891714224733924810e-01,7.880992917403614184e-01,-5.965781351619321021e-02
3.926675953819275255e-01,7.843249515578496478e-01,-6.370849393682309625e-02
3.939403072184222143e-01,7.800414744359388530e-01,-6.082841769351491484e-02
3.851984187350969147e-01,7.765047001968885532e-01,-5.557672086125220456e-02
3.841691678370901530e-01,7.761946680259242948e-01,-5.731471132028648913e-02
3.818792571665649560e-01,7.726759285234784391e-01,-5.997239416487698538e-02
3.779324756876705771e-01,7.643422995789149743e-01,-5.649464905959070138e-02
3.809894514949149213e-01,7.591610784666081857e-01,-5.440956783664325364e-02
3.751565196904893540e-01,7.552391923875790836e-01,-5.261767856887531597e-02
3.779893940459951307e-01,7.541141287403136939e-01,-5.497822160900488198e-02
3.693056264731107707e-01,7.476467180994421646e-01,-5.605855630262997213e-02
3.761894328025190415e-01,7.479012089542006470e-01,-5.328258931199306853e-02
3.700543237112442485e-01,7.392197624326740657e-01,-5.290368078188852768e-02
3.645321850553885357e-01,7.378525866813037126e-01,-5.459887025130819721e-02
3.628474607159736798e-01,7.322543796141675054e-01,-5.728753042743466029e-02
3.650703720754494008e-01,7.358934948090799510e-01,-5.959527239478215610e-02
3.638549533510102574e-01,7.286554399443713192e-01,-5.948056019059456967e-02
3.541615187641823925e-01,7.222384690870882196e-01,-5.865686536079915692e-02
3.580295321227786043e-01,7.178581040335213492e-01,-5.124364612953690584e-02
3.566012812737712756e-01,7.151882326498992803e-01,-5.777974089951450759e-02
3.548951219938478174e-01,7.117514563439206743e-01,-5.254689530529181585e-02
3.457823027118039350e-01,7.058614706977549558e-01,-5.392203101529335213e-02
3.503877097970728993e-01,7.022657081767273990e-01,-5.143647900750322050e-02
3.499271753812991381e-01,6.994394194242572471e-01,-5.238466310046670238e-02
3.423333154164059922e-01,6.928752817835349687e-01,-5.171698242130281370e-02
3.458052354639133963e-01,6.950819256701059601e-01,-5.554867622445274628e-02
3.452156221621544008e-01,6.847059682280254300e-01,-4.817413247609800969e-02
3.435976649955426732e-01,6.805426756481005590e-01,-5.040614597344639236e-02
3.338406421557740256e-01,6.851898053344905870e-01,-4.857582540844813251e-02
3.361992244359030546e-01,6.799696410521796075e-01,-4.774605466190243175e-02
3.376898165445428313e-01,6.728614888095175717e-01,-4.520056863698390659e-02
3.357330105336227555e-01,6.667046754116132679e-01,-5.227987194038390822e-02
3.317872280399952190e-01,6.667417211231200236e-01,-5.144416602121049120e-02
3.250108033695358056e-01,6.611254261370445029e-01,-5.532302058014824941e-02
3.242155193858130002e-01,6.585842967711619256e-01,-5.192974984041738573e-02
3.278625666587837162e-01,6.567338726556836148e-01,-4.983411805154715213e-02
3.217951334035144551e-01,6.556587692791588928e-01,-5.379614668728495419e-02
3.228864734757764809e-01,6.500335563532982919e-01,-5.255826722614454632e-02
3.218999169343637057e-01,6.475712629750650651e-01,-4.920137849921392414e-02
3.211642069317100501e-01,6.389835560163347195e-01,-4.608082107393596250e-02
3.167536586071613147e-01,6.330025383955576457e-01,-4.699091490073518257e-02
3.150498193863964236e-01,6.377936673461893635e-01,-4.620111258626638517e-02
3.119940970188360141e-01,6.345289076038134191e-01,-5.010637868556738067e-02
3.149462530888942347e-01,6.287104983076514664e-01,-4.486624816897749612e-02
3.142568118911481800e-01,6.245305269445234897e-01,-4.748821369418513433e-02
3.082824559454576119e-01,6.200059369608800219e-01,-4.806735461216018329e-02
3.060880509476562317e-01,6.181922579487423297e-01,-4.829703575163747653e-02
3.001794564305275137e-01,6.149363206665952042e-01,-4.520497189192730636e-02
3.012933430398365697e-01,6.127238417529821124e-01,-4.825806823634479908e-02
3.005924144262698827e-01,6.101146175510545611e-01,-4.997959640215474120e-02
3.020968128643654604e-01,6.065502766662339562e-01,-4.776187186042328559e-02
3.019661273958060832e-01,6.061157652702081622e-01,-4.997058198275115132e-02
3.014181387296375192e-01,6.012448267935386337e-01,-4.252794135239729156e-02
2.968944524481802461e-01,5.998596728880510875e-01,-4.718369786825808709e-02
2.970557456786441231e-01,5.972159375060613895e-01,-4.430832192581454082e-02
2.940096160908303724e-01,5.920648775819241649e-01,-4.934113312766358339e-02
2.957299913114158074e-01,5.879445017223571268e-01,-4.760760144939737981e-02
2.898425206303466006e-01,5.867598112186290793e-01,-4.457015966292329073e-02
2.875135339219947461e-01,5.842527042157957817e-01,-4.447978915783087211e-02
2.844332930369062318e-01,5.772997499828513845e-01,-4.419919253794501318e-02
2.855995170331291910e-01,5.811567002789396197e-01,-4.434904690226889462e-02
2.815448458880586702e-01,5.732153574845828548e-01,-4.526697126723058795e-02
2.784236175457392437e-01,5.694774697266798968e-01,-4.587197612551786180e-02
2.742072419830287600e-01,5.652019514670000300e-01,-4.478445235209342623e-02
2.803211807786865628e-01,5.641593077492254027e-01,-4.043212470767840183e-02
2.824318407978292367e-01,5.624942973403471713e-01,-4.580958293015807703e-02
2.747063936151475372e-01,5.565007607476316620e-01,-4.278705326115733731e-02
2.697490591609706390e-01,5.572440253308572622e-01,-4.336832837553973585e-02
2.731560287826633182e-01,5.454441079116565394e-01,-4.488100598134303620e-02
2.784319439423009745e-01,5.454461836965919241e-01,-4.457296568509322432e-02
2.697274113112523297e-01,5.485121195013887840e-01,-4.158505941163421343e-02
2.707626697922123626e-01,5.403045780560951084e-01,-4.587618672165360428e-02
2.627061507154055953e-01,5.389990105245121566e-01,-3.929369691179909058e-02
2.668531005248501176e-01,5.402444042430208926e-01,-4.230383619153464669e-02
2.682318893029045359e-01,5.353285058806775965e-01,-4.111450774719310058e-02
2.633945802408250714e-01,5.339442477580321755e-01,-4.125196565416205247e-02
2.666700482382186044e-01,5.280907165235466660e-01,-4.046154458449360836e-02
2.613976304015901420e-01,5.277180184475007696e-01,-4.403294896726732410e-02
2.564847976130131824e-01,5.238941107674864872e-01,-3.989306716633465866e-02
2.582558965902103099e-01,5.240065635760171592e-01,-4.040050467452457189e-02
2.591897825028145474e-01,5.167502067123447285e-01,-4.225157423495938536e-02
2.561076788210833732e-01,5.114196988731074534e-01,-3.758508199894773638e-02
2.550060549503439522e-01,5.146829814964140049e-01,-3.677311412834151361e-02
2.520928860739694022e-01,5.114851544171387099e-01,-3.732257356292257439e-02
2.547984829596193213e-01,5.045777293711573019e-01,-3.808126488068985793e-02
2.506536303604141591e-01,5.056003933968348241e-01,-4.290390299005893832e-02
2.477354178643755844e-01,5.015918098380746093e-01,-3.896696367034643838e-02
2.530628130502550199e-01,4.977312084909103485e-01,-4.338832839582170559e-02
2.456080944876570249e-01,4.986534494436281051e-01,-3.850817382992599569e-02
2.433349977637181694e-01,4.918889368704894571e-01,-3.985901679658092334e-02
2.423863020407447388e-01,4.892334806360731925e-01,-4.243067882326435891e-02
2.431750359255246408e-01,4.902597494773498488e-01,-3.822172563503698633e-02
2.394608785613767110e-01,4.877011802608214319e-01,-3.949300481578155858e-02
2.443186801225761262e-01,4.864744098944792094e-01,-3.757847991622637746e-02
2.420438667950824130e-01,4.740115404224153339e-01,-3.814062452683767562e-02
2.368435996428148727e-01,4.796113483586356696e-01,-3.961788629559583746e-02
2.442616877610826742e-01,4.806195438324361024e-01,-3.492412405410191129e-02
2.321238493605980724e-01,4.674802863909915396e-01,-3.531337154604099332e-02
2.358838339914673399e-01,4.691369773184517755e-01,-3.633108570602937987e-02
2.289800945883095629e-01,4.701758763751588965e-01,-3.492060676858329410e-02
2.309928536918934849e-01,4.657804833949357182e-01,-4.277100219784116947e-02
2.324479219345801095e-01,4.662579673347935216e-01,-3.740907158080394174e-02
2.271217433771309524e-01,4.636755014062005631e-01,-3.624593375532043221e-02
2.285419654592191208e-01,4.597643721497123859e-01,-3.334218535972510028e-02
2.276629294370965950e-01,4.614040899256750539e-01,-3.656594074851454712e-02
2.292458028794784886e-01,4.557325955963436037e-01,-4.070862495965796302e-02
2.255685856304174008e-01,4.548141963531314169e-01,-3.167096230204068108e-02
2.212416171827150113e-01,4.466346194528755253e-01,-3.991013208867652540e-02
2.238247553766983811e-01,4.487973159828664294e-01,-3.851266340199414190e-02
2.187483137924237930e-01,4.456378200941880086e-01,-3.584847804275635708e-02
2.196264173584397128e-01,4.437545735771131761e-01,-3.491473293229037378e-02
2.202548092250494749e-01,4.408617788465518106e-01,-3.597630411876426293e-02
2.186223188611411128e-01,4.334951727711093272e-01,-3.692167800783335146e-02
2.165263880468446256e-01,4.328558765426437915e-01,-3.683716781114194927e-02
2.167217024164217742e-01,4.302197139128295933e-01,-4.000907121937644778e-02
2.179189289031398247e-01,4.309526504102956790e-01,-3.255723401616898022e-02
2.052660826980720055e-01,4.291149449858734366e-01,-3.297129524538149059e-02
2.125341352119770599e-01,4.308856139259433782e-01,-3.173961319378935247e-02
2.124768737655882977e-01,4.238877078082334271e-01,-3.061145949705727093e-02
2.089687972858156328e-01,4.245345479445564174e-01,-3.866825885967075521e-02
2.091993221275481596e-01,4.195355144494865574e-01,-3.213282254218172845e-02
2.074430501719336795e-01,4.146821394871707533e-01,-3.200492838051754302e-02
2.061643464703213358e-01,4.130208076259482830e-01,-2.787642482248297096e-02
2.069373160664950417e-01,4.075061769876303086e-01,-2.985907067582552546e-02
2.044431338389410546e-01,4.121728749850726015e-01,-3.343218247513550512e-02
2.053088537940591929e-01,4.122808146483998848e-01,-3.420410677870656252e-02
2.027532024948936473e-01,4.075740490974945063e-01,-3.050854394838007147e-02
2.030237345130153914e-01,4.011075270105645130e-01,-2.937529442725368700e-02
1.945172560586963528e-01,3.970272623241580812e-01,-3.022937974197346944e-02
1.957536713269653061e-01,4.003182020755634007e-01,-3.420771881364870204e-02
1.961239221970105806e-01,3.991031560701527314e-01,-3.612875017665956312e-02
1.965240195297933701e-01,3.986101081330082896e-01,-3.429767495323950144e-02
1.979936452674327385e-01,3.935324558755127211e-01,-2.967046003833837681e-02
1.899859090764433878e-01,3.889138345809962649e-01,-3.307426978686785896e-02
1.913408589641938662e-01,3.871901002526050850e-01,-3.268665389350486339e-02
1.940052770957972628e-01,3.894270929647231094e-01,-2.969206886412237983e-02
1.897936744184550439e-01,3.870180143041698773e-01,-3.036214512037366253e-02
1.923825955045867231e-01,3.850326468253942869e-01,-3.300740748743637154e-02
1.860050310091765635e-01,3.849698183400888096e-01,-3.150465232607201072e-02
1.913276890048703216e-01,3.791384612189209746e-01,-2.978167036401184464e-02
1.868860087297229411e-01,3.768273940814941825e-01,-3.470067892561431305e-02
1.877272332368094820e-01,3.753321262414009429e-01,-3.514448907271759681e-02
1.872641441388839811e-01,3.701972923180164576e-01,-2.887926243416828742e-02
1.836372109301628863e-01,3.706457520582257525e-01,-3.129040148077993216e-02
1.819684688179748211e-01,3.708468270191581651e-01,-3.266992999398744130e-02
1.797757391566894847e-01,3.683015874604669837e-01,-3.199645113590835616e-02
1.834808058202155034e-01,3.640295448388634614e-01,-2.911263855757216870e-02
1.834761670070911288e-01,3.632293747838753473e-01,-3.393776708391674918e-02
1.800000140049504704e-01,3.626689913412170507e-01,-3.088350970322841296e-02
1.773894035580272921e-01,3.577134038150485695e-01,-3.393050590809108813e-02
1.806012357026335335e-01,3.590398629499867988e-01,-3.078739682506964268e-02
1.805490998347651921e-01,3.596792357218588365e-01,-2.304367635627541447e-02
1.763974698181146328e-01,3.535439229612248324e-01,-2.666550979496425458e-02
1.732786438154089725e-01,3.511055790792574904e-01,-2.704776460422354117e-02
1.762770740893235266e-01,3.497656694420623880e-01,-2.825914728883554411e-02
1.728738109587407978e-01,3.456361213515688480e-01,-2.892371552931560438e-02
1.728671138021833364e-01,3.497136498367822699e-01,-3.002010842260782048e-02
1.680510900679748065e-01,3.448587715766093242e-01,-2.705001493299029683e-02
1.678241802439185137e-01,3.442747468797703325e-01,-2.599504284044576452e-02
1.698432225655480687e-01,3.399400028557129638e-01,-3.161449305770913654e-02
1.664531062530033023e-01,3.392878663371973191e-01,-3.020631915155412225e-02
1.639065721539305076e-01,3.384754592297752329e-01,-2.852748800862446588e-02
1.678974143985224043e-01,3.332836657081393872e-01,-2.629213043638122665e-02
1.627449323764335598e-01,3.376791640124679472e-01,-2.708570355592292839e-02
1.620738545397998331e-01,3.300767499582715203e-01,-2.491016119444358634e-02
1.668803588861683118e-01,3.361068404022013456e-01,-3.121731067590112138e-02
1.635256940508989232e-01,3.313991477558167476e-01,-2.916216574062020436e-02
1.590343172193302013e-01,3.273633458880131353e-01,-3.008089594334929784e-02
1.620462279709803666e-01,3.267304472373822599e-01,-2.764628421532165301e-02
1.611344706090480361e-01,3.231338583791806274e-01,-3.044999017988213666e-02
1.587576487124328639e-01,3.218070909004480118e-01,-2.477644699724141156e-02
1.575294526441602116e-01,3.215101219300702806e-01,-2.606357997948282462e-02
1.617351415502381873e-01,3.170136712784526467e-01,-2.599026130581263971e-02
1.545698967742000773e-01,3.134717842337415572e-01,-2.713242728758321134e-02
1.579891172175045821e-01,3.185803580975815064e-01,-2.628547357349771130e-02
1.553292458520535713e-01,3.154893367200427012e-01,-2.787049761783995383e-02
1.578018738474974425e-01,3.117839856658200515e-01,-2.662976551751509643e-02
1.537413742361982694e-01,3.115408704851483357e-01,-2.628927138919927298e-02
1.528740833630815033e-01,3.103290336519540782e-01,-2.802822095594561039e-02
1.546923122064961242e-01,3.130955367115889065e-01,-2.281669793704948004e-02
1.532833614061822058e-01,3.047161837784597704e-01,-2.617899365142016543e-02
1.504006584801324820e-01,3.048704425629233383e-01,-2.859074000232086563e-02
1.451353038522218974e-01,3.020098477493859401e-01,-2.722828746011059231e-02
1.482210342347554388e-01,2.959352270615931979e-01,-2.773723036263398695e-02
1.488968613021463272e-01,2.985545951875044346e-01,-2.556370634580133402e-02
1.511221754668848893e-01,2.955545451552782921e-01,-2.681117515775723742e-02
1.464517359152559817e-01,2.942612789617566893e-01,-2.372485990385449217e-02
1.496474587913721732e-01,2.931412324961221727e-01,-2.284787497304478429e-02
1.479531446863394939e-01,2.896505072915705470e-01,-2.544147220728939021e-02
1.456972693475160896e-01,2.912312285284945901e-01,-2.614353306309520272e-02
1.478832206583723663e-01,2.891921458339850037e-01,-2.103816836920906555e-02
1.451692798870894419e-01,2.898590214779442342e-01,-2.337989168578793325e-02
1.394577001801978189e-01,2.847667142369260107e-01,-2.285617936983149259e-02
1.412410037117503014e-01,2.858241357599354271e-01,-2.435243279200175956e-02
1.429274534485840964e-01,2.861914971140086528e-01,-2.321379269436626633e-02
1.382305587644060973e-01,2.824864784001349660e-01,-1.997657707072708969e-02
1.361102978391073581e-01,2.821597844908608765e-01,-2.792675465980116664e-02
1.365666701943477335e-01,2.793577365385659927e-01,-2.270206930681568924e-02
1.395894905818975129e-01,2.789367152473112843e-01,-2.485343817857689139e-02
1.373687041697894129e-01,2.780934957146818376e-01,-2.729913664030534856e-02
1.332292590467494819e-01,2.791982262296418549e-01,-2.766272302675878286e-02
1.384649364287582340e-01,2.739526402979746700e-01,-2.306271992919471658e-02
1.359067908370021893e-01,2.761833502944098795e-01,-1.944825029003947880e-02
1.330530083280267728e-01,2.733056620993959962e-01,-2.059629805805727326e-02
1.321475245663441822e-01,2.667496586420770033e-01,-2.293453146882123289e-02
1.344121735149046426e-01,2.650040019784043466e-01,-1.912632125302052982e-02
1.320909391532509303e-01,2.662830185552780282e-01,-2.177312735706440905e-02
1.346144649172941188e-01,2.648122185382283944e-01,-2.426623414863628495e-02
1.273845990365030933e-01,2.613439146075967612e-01,-2.557266825908922556e-02
1.275556943312766423e-01,2.606657635304827081e-01,-1.720647410899202659e-02
1.309242208364216342e-01,2.580765528357196192e-01,-1.686416608153266244e-02
1.286373346767902826e-01,2.588443670376103789e-01,-1.999785287743726173e-02
1.269575624945275816e-01,2.617793929846119472e-01,-2.744494955431679012e-02
1.243761094055293587e-01,2.600445859161618634e-01,-1.721074827133643736e-02
1.286785783739150535e-01,2.570571365350667881e-01,-2.169073327133457657e-02
1.308416729004120982e-01,2.557664431596096133e-01,-2.131645909541752398e-02
1.266326777115257818e-01,2.524014203963322323e-01,-1.755417903503211918e-02
1.253630119087477957e-01,2.502853544108233907e-01,-2.291834641442449388e-02
1.250948408712641291e-01,2.534536729098545438e-01,-1.798985045254008000e-02
1.265934079541135293e-01,2.524211092605253559e-01,-2.299929867444986190e-02
1.224868586912520874e-01,2.464258860287949493e-01,-2.058793875980772722e-02
1.213866743549886079e-01,2.458166388494178456e-01,-2.301989773934429162e-02
1.226272287056048432e-01,2.429331792009776503e-01,-2.080497229803868545e-02
1.220403746883704788e-01,2.440677325940562026e-01,-2.291050390168671708e-02
1.216280770687312857e-01,2.440226965803456993e-01,-1.535398135991134817e-02
1.172837369814810349e-01,2.423443495007636117e-01,-2.137076446400594174e-02
1.191232899982224425e-01,2.450762130797255189e-01,-1.939388778367671234e-02
1.169648648577047007e-01,2.392972660655124650e-01,-2.409371152120237322e-02
1.145977663204307134e-01,2.373906329954301453e-01,-1.799834293539040800e-02
1.184453481670418723e-01,2.351992311606445618e-01,-2.174589087517316693e-02
1.166897653586367045e-01,2.339600632339363384e-01,-2.419972118392133692e-02
1.118115497309240397e-01,2.370572686299082243e-01,-2.123506511419937307e-02
1.164607381672195102e-01,2.359258485722576237e-01,-2.294124091273087168e-02
1.107307590430018085e-01,2.322635782554217099e-01,-1.891948174870948171e-02
1.132446096694632309e-01,2.326497419239896003e-01,-2.004452450132705732e-02
1.127132294407914986e-01,2.291331917196605117e-01,-1.865358122564927945e-02
1.160039280765316760e-01,2.229645577610373797e-01,-2.027406887927194618e-02
1.097338648599721495e-01,2.244618786420972123e-01,-1.304234710003349118e-02
1.126836773828763794e-01,2.221166223598053657e-01,-1.660301734891894351e-02
1.092764110248149179e-01,2.281928607080704330e-01,-1.960733314386943135e-02
1.100071702695849807e-01,2.249104441345799454e-01,-1.593594582491879297e-02
1.094687057946156089e-01,2.187125879041369458e-01,-2.066993423161603630e-02
1.053331068256034286e-01,2.221865682425570032e-01,-2.237558507588797985e-02
1.116551749917998326e-01,2.188609046559561733e-01,-1.688071745101471163e-02
1.063251170567252324e-01,2.212499443142547373e-01,-1.553372669256699277e-02
1.087392834667603170e-01,2.152453698542115546e-01,-1.910214995359252321e-02
1.098456349243537578e-01,2.181066646575753887e-01,-1.715119420165144015e-02
9.946279954034599469e-02,2.088214538781103524e-01,-1.940205012643479027e-02
1.043425704741389876e-01,2.094220344916272458e-01,-1.982555415810474675e-02
1.021193549845375304e-01,2.145365738847482828e-01,-1.692180559295660899e-02
1.051407196745270112e-01,2.136616403401869480e-01,-1.714896464507971452e-02
1.069744960589515542e-01,2.061458070954956812e-01,-1.565974440407609872e-02
1.031386804850487754e-01,2.139582042316468535e-01,-1.827008483651386753e-02
1.027373477061223062e-01,2.089757150521160955e-01,-1.699855240437956119e-02
1.009569774741886361e-01,2.106254540845831913e-01,-1.789177730140649111e-02
1.033313485888927852e-01,2.062318159399986472e-01,-1.895521585983347274e-02
1.009347056510034174e-01,2.024644242617272827e-01,-1.811890720463478141e-02
9.927411201401165064e-02,2.049613346610005271e-01,-1.552427609372862387e-02
1.002939923499426428e-01,2.006886081586705395e-01,-1.823630599129676469e-02
9.814763234135602532e-02,2.033087307521479203e-01,-1.550384369898008020e-02
1.025874513235686958e-01,1.981517976347313970e-01,-1.696962475953815372e-02
9.866933813631388606e-02,1.988011540322840998e-01,-1.390214879192149325e-02
1.040654729926579758e-01,1.962402442769944633e-01,-1.279486823440362242e-02
9.822682460234698210e-02,1.947259635620881835e-01,-1.799042460098223759e-02
9.474943191089091332e-02,1.977428808909365288e-01,-1.932020058512572483e-02
9.490667798628073248e-02,1.960148434970700737e-01,-1.919970396024245698e-02
9.667731463461103070e-02,1.932986217656064987e-01,-1.557163261876620859e-02
9.732050534350437931e-02,1.939571762223825935e-01,-1.637150238092534640e-02
9.754764667972440351e-02,1.913839751725323890e-01,-1.931099160753238161e-02
9.005619668324928162e-02,1.928642133862346342e-01,-1.885831758686302290e-02
9.361702140217773027e-02,1.934507069095205145e-01,-1.369581722058512384e-02
9.396856298090998372e-02,1.875697576546214163e-01,-1.415915520601050172e-02
9.748135371254654236e-02,1.913802932310903482e-01,-1.635117368073631117e-02
8.904595417225558140e-02,1.864199875877377843e-01,-1.312920064960073144e-02
9.788225865313150698e-02,1.800285086038633242e-01,-1.495152174783874986e-02
8.921399182166153685e-02,1.836722402874068627e-01,-1.314253060882816446e-02
9.309961476230325939e-02,1.848477917702069928e-01,-1.724559053802145192e-02
8.866771927477148929e-02,1.780287941826941001e-01,-1.687128253669747946e-02
8.990638821077584497e-02,1.779607560607390782e-01,-1.463843923999352467e-02
8.800818257147473289e-02,1.866264961757781726e-01,-1.450274895557288231e-02
8.923007167493267333e-02,1.805897979380590157e-01,-2.045521008840048977e-02
9.144021419547000706e-02,1.781641316632836813e-01,-1.205445821992169944e-02
8.955513544617804689e-02,1.784611982720243628e-01,-1.353779716330684099e-02
8.606685449794060361e-02,1.801139718201461293e-01,-1.427816086119452696e-02
8.582551351709485910e-02,1.775079623882270530e-01,-1.807242964301613436e-02
8.589327108998054405e-02,1.780290251296601511e-01,-1.191908802389970469e-02
8.416745387758431396e-02,1.775792287495914223e-01,-1.516508144271534048e-02
8.654750766056676370e-02,1.730658501024602558e-01,-1.183112088490231341e-02
7.959071598750518117e-02,1.706091283554870275e-01,-1.223370235494056386e-02
8.685908766910298284e-02,1.772429070634486403e-01,-1.082484203423827139e-02
8.131542430258997811e-02,1.732805817153437455e-01,-1.276607989198185952e-02
8.740865654001407636e-02,1.675430123154628137e-01,-2.021604451457245655e-02
8.831559748165819512e-02,1.753016183702955089e-01,-1.507204413399017458e-02
8.190608396342355380e-02,1.691933626182411943e-01,-1.943403612613313347e-02
8.192184502691562953e-02,1.672688253082851850e-01,-1.229464170704024605e-02
7.866026691778633950e-02,1.647444800193792469e-01,-1.357040517517999964e-02
8.676598947259855921e-02,1.645080411261806985e-01,-1.264525972569132198e-02
8.097937841572752649e-02,1.693714954352764646e-01,-1.400113633218177771e-02
8.419363643313336476e-02,1.653272345746782390e-01,-1.738536325586524309e-02
8.159577763010066043e-02,1.563821474622763275e-01,-1.183502667503176682e-02
7.771731222763444968e-02,1.620675922286048676e-01,-1.256152747246867644e-02
8.197417685384845998e-02,1.631306004335201509e-01,-8.147549200044538684e-03
8.134721270470085530e-02,1.587579455998735511e-01,-1.479169078644021473e-02
8.042382597511099629e-02,1.584594239822358641e-01,-1.706828694336955804e-02
8.003108149860935217e-02,1.606381332144289908e-01,-1.487963912326794452e-02
8.301753572832615280e-02,1.560927632288757472e-01,-1.084894666263771026e-02
7.990603994447917358e-02,1.584670553042242802e-01,-1.320595567513715464e-02
7.172493016129127819e-02,1.567847902337672628e-01,-1.618851124063680133e-02
7.742402358821602604e-02,1.517335994434021451e-01,-8.777363882049150565e-03
7.358952625088764632e-02,1.520649934223750610e-01,-1.544410729434206840e-02
7.439269335939348304e-02,1.583793398228425242e-01,-1.173427338060876145e-02
7.913207048075318606e-02,1.590198669826650979e-01,-1.444619773550084862e-02
7.388577616141708826e-02,1.522346179336873384e-01,-1.557756564022571427e-02
8.172374213199772031e-02,1.507789258744113015e-01,-1.268218461380975909e-02
7.231102137121191153e-02,1.544165375658447525e-01,-1.149541759284027076e-02
7.189304237893401339e-02,1.496779759870943138e-01,-1.472317053143973493e-02
7.559121996291637280e-02,1.462098490112610505e-01,-1.658302620214439915e-02
7.423397060297171057e-02,1.471005601767435556e-01,-9.551773484809693640e-03
7.270323349783480715e-02,1.458956275646694778e-01,-1.079230396808311329e-02
7.364794193458988614e-02,1.444380944428279301e-01,-1.434882075471200120e-02
6.960571009273619492e-02,1.491708932385743813e-01,-1.450190829334700032e-02
7.100796148430575661e-02,1.479994633508882607e-01,-5.749580421249717195e-03
7.172324755796111173e-02,1.475925278582622402e-01,-1.144429031696110599e-02
7.468708036347136703e-02,1.416833386896808877e-01,-7.246796571943866193e-03
7.045513156976578040e-02,1.427877154465527765e-01,-8.249878018563531340e-03
7.515058456143719479e-02,1.425291214007313179e-01,-1.092492835753300882e-02
6.501788923445643575e-02,1.467966359590124614e-01,-1.040389661832882666e-02
6.543869136472298120e-02,1.435532698162882148e-01,-1.519407391379553295e-02
6.819615473996144817e-02,1.427145719398937029e-01,-1.242339922855596052e-02
7.227667649491148483e-02,1.438776942302337492e-01,-8.810877989632532117e-03
7.394297165942949335e-02,1.387947839175950049e-01,-9.569683436569673476e-03
6.854441324085663867e-02,1.386393220898177181e-01,-1.452363630241854803e-02
6.742139870305538518e-02,1.415227224827193819e-01,-1.394115812493502797e-02
6.431786610484324651e-02,1.386522542671675962e-01,-1.201523008322936091e-02
6.628944998604174854e-02,1.328995297589476987e-01,-1.093169608821363895e-02
6.725217548800042910e-02,1.345347825460448399e-01,-1.401520442906710635e-02
6.717098049909693558e-02,1.334710776886958994e-01,-1.049201739548774603e-02
6.384056614346873826e-02,1.329589581161608469e-01,-1.501288725524811511e-02
6.156372087880616906e-02,1.359080909966789985e-01,-9.364308709390476923e-03
6.624750870340065378e-02,1.288630461465050392e-01,-1.392431870333822250e-02
6.777155055480564572e-02,1.299482285538493265e-01,-1.160656494562913553e-02
6.228868270352133640e-02,1.316403669719772573e-01,-1.450802007474656131e-02
6.494934763359279384e-02,1.313572778266656471e-01,-9.892789672276521701e-03
6.106794933972152506e-02,1.290972187399711812e-01,-1.216394093508445760e-02
6.307776122598456048e-02,1.253516314933089126e-01,-1.214097297828352698e-02
6.573208047361195350e-02,1.308193008450323769e-01,-1.362929668800681379e-02
6.173417769311047298e-02,1.277045267652663074e-01,-1.459029806266770764e-02
6.174405737240225289e-02,1.271954617633508922e-01,-1.428851889977327157e-02
6.007870693976784943e-02,1.256691641245184232e-01,-7.095859048399003055e-03
6.468175939803617880e-02,1.236031309557869828e-01,-1.193183216962933647e-02
6.410341481803180641e-02,1.203750153397468714e-01,-9.758662902427727576e-03
6.364154671039860822e-02,1.250415081915662585e-01,-1.173511252727797195e-02
6.242480138762256103e-02,1.201486466603174236e-01,-7.931797356210032804e-03
6.220706946907775259e-02,1.237372617464711777e-01,-1.331211758768991241e-02
6.086916711966206678e-02,1.210745406433806626e-01,-1.176729217045946810e-02
6.296355265428270342e-02,1.217504316244065465e-01,-9.479699978154487380e-03
5.754886881977862995e-02,1.214553434356048789e-01,-1.233111949743900468e-02
5.965497249014055370e-02,1.238907763729405198e-01,-9.503741989715451532e-03
5.861049234728287621e-02,1.197352404852678603e-01,-1.147234914362338723e-02
5.627748000161027220e-02,1.166713605792090019e-01,-3.031627787302964856e-03
6.179602992238165948e-02,1.207157167288166327e-01,-1.310845458277094810e-02
5.817694487035296458e-02,1.200768170285547304e-01,-8.496862624558135235e-03
5.679615764143085971e-02,1.187754714156609853e-01,-1.595182274332318864e-02
5.829501441332127915e-02,1.151373604636971304e-01,-9.025971460141279934e-03
5.911967724512100231e-02,1.127269298770852829e-01,-8.168687172208664860e-03
6.026423414487165620e-02,1.172751773385691532e-01,-7.727401531855816394e-03
5.863252335191305314e-02,1.146308345121719169e-01,-3.443382422036590177e-03
5.539667641981042834e-02,1.134977926821673228e-01,-1.119847398320170280e-02
5.429137151081305651e-02,1.167552672445571899e-01,-7.669270290253256926e-03
5.636672855205238780e-02,1.093626141329822193e-01,-1.091531574787332239e-02
5.649841472304701490e-02,1.066047097092928525e-01,-1.073163565353043095e-02
5.404933573181648632e-02,1.112929502261155584e-01,-1.368689877299599650e-02
5.721681819061227858e-02,1.155792755483656953e-01,-7.526836712647427471e-03
5.571279170567389888e-02,1.138250638973880430e-01,-8.597037223612361348e-03
5.551479039155737816e-02,1.088443392391585801e-01,-7.821581800274817961e-03
5.576728123400420678e-02,1.086879450732052138e-01,-7.996498457694975123e-03
5.386111249767596559e-02,1.079008041135724877e-01,-1.218725645734053051e-02
5.320737753679426196e-02,1.074508630499448891e-01,-8.103220117246201851e-03
5.460392483369218980e-02,1.075424456631647874e-01,-7.829208736837461532e-03
5.735438063451268192e-02,1.088439174616006033e-01,-1.112053167946463333e-02
5.102608873012608875e-02,1.076227600320963096e-01,-7.550390712750250019e-03
5.446277398336415304e-02,1.062154924001816464e-01,-5.927403870145278239e-03
5.371067997264341448e-02,1.058917328736535546e-01,-1.135220016622640916e-02
5.100912539036698418e-02,1.022120723750873789e-01,-1.201956780837188342e-02
5.356010437155581810e-02,1.047244215967581826e-01,-6.478965335095078146e-03
5.116462348756513345e-02,1.039338122781093970e-01,-4.888190716287196813e-03
5.513543444292522827e-02,1.039030939919634716e-01,-1.118403853696326930e-02
5.157046287707005988e-02,1.011210677969398980e-01,-9.574619853454598151e-03
4.995169189402458992e-02,9.985361599871232785e-02,-8.320979225339633287e-03
4.619042565407775053e-02,1.014853888368045104e-01,-2.191629613943397049e-03
4.800865716984445419e-02,1.008182012137452122e-01,-7.871937595143685060e-03
5.106486992585381607e-02,9.793622891185985169e-02,-6.231555005136393648e-03
4.936385796738993609e-02,9.754891201217417984e-02,-4.317814056698823268e-03
4.430337141985343091e-02,9.867954036936513185e-02,-1.134148105650369803e-02
5.143143000821394362e-02,1.009520574468739385e-01,-9.233142571326898723e-03
5.448761717149358530e-02,1.033667341947334672e-01,-8.458127064270659287e-03
4.890443589319103113e-02,1.003607399478790435e-01,-6.966534289340522816e-03
4.303784570755370825e-02,9.332093602082840167e-02,-8.440700940041640649e-03
4.297532323019838396e-02,9.662032683094978758e-02,-7.563625088943596447e-03
4.763422260495499272e-02,9.708080584702208360e-02,-1.042250350908083788e-02
4.592859081704710189e-02,9.375423060994569902e-02,-5.724555336796439790e-03
5.279796015660748187e-02,9.443900974962453343e-02,-3.601383190532451029e-03
4.535626699418022351e-02,9.534118995720267109e-02,-9.305579265361959423e-03
5.214142069252773737e-02,9.170428656269591361e-02,-7.754746720534344724e-03
4.696237400999583866e-02,9.405309486114687978e-02,-8.276491654713035925e-03
4.635322955679362783e-02,9.141888184476094914e-02,-1.425811448469052438e-02
4.153658472370376498e-02,9.159252924720642786e-02,-5.230607915422218895e-03
4.332005357147977742e-02,9.340443300357900713e-02,-5.147222882523102248e-03
4.537942735287590207e-02,9.152555340621615354e-02,-6.321636105358464409e-03
4.135499788475700822e-02,9.532073701112965536e-02,-1.150175184346472791e-02
4.728773830175933557e-02,8.983997908586613401e-02,-1.171869378989514980e-02
4.166323423601839271e-02,8.717875938030049399e-02,-9.591205637624779581e-03
4.109020883346468228e-02,9.260679609396244016e-02,-1.015000398098374855e-02
4.621332145873809083e-02,9.066451225539168268e-02,-5.876790279823099379e-03
4.275225892805818717e-02,8.682343592984882730e-02,-6.408486232852929343e-03
4.255445540496884810e-02,8.386537776541712341e-02,-2.661651020384779055e-03
4.387731499882422531e-02,8.474477570599764364e-02,-9.904094765112711474e-03
4.439271233703955682e-02,8.887337001277274828e-02,-9.164949571153647306e-03
4.317525590371556338e-02,8.621668756602529626e-02,-1.166785071786651147e-02
4.150255846553598665e-02,8.675381514611778255e-02,-1.058553690209763400e-02
4.186796452646595473e-02,8.809893592700883402e-02,-4.497833275365925934e-03
4.577360302562813454e-02,8.685308318593827626e-02,-5.864799513929720362e-03
4.041722433215150234e-02,8.907214625884915526e-02,-4.671387372584732967e-03
3.868596415759658486e-02,8.497220900463327287e-02,-8.593935336649122236e-03
4.602769896662735338e-02,8.517058984103563490e-02,-3.331150252298176444e-03
4.506358902010484252e-02,8.467077940340722586e-02,-6.447318931081479770e-03
3.786318824138645150e-02,8.009299534350960981e-02,-7.283305652613207733e-03
3.892344559180506425e-02,8.191129284836581870e-02,-4.887683242178061764e-03
4.065806870058787797e-02,8.386656967441497024e-02,-4.612007927279322336e-03
-2.939443288065321513e-01,3.517294575177934979e-01,2.537722593310245411e-01
-6.297848716003997538e-01,6.075343352369184657e-01,5.136514919653824007e-01
-9.653201458143558789e-01,8.322885890571134482e-01,7.770837801466566885e-01
-1.302941911326779945e+00,1.032926961214031047e+00,1.042580317470094498e+00
-1.635229426132891017e+00,1.220746722431816034e+00,1.309753170137404554e+00
-1.974485700984262904e+00,1.381601506755733233e+00,1.581050144894023957e+00
-2.306027705419870344e+00,1.542921519118021001e+00,1.851884296470629021e+00
-2.640598878290285167e+00,1.682576263918641457e+00,2.126352408837865582e+00
-2.981090284148320446e+00,1.809702261009473068e+00,2.389701270246456843e+00
-3.316842756568692874e+00,1.921874232687420525e+00,2.666440637361917609e+00
-3.654702290672854126e+00,2.027764389227773023e+00,2.950572362659108716e+00
-3.992659694170570983e+00,2.123369318233721881e+00,3.219296740701560910e+00
-4.332211421777642180e+00,2.209002068531277452e+00,3.504183325397145055e+00
-4.673618100741737891e+00,2.287840365052885350e+00,3.777042524252407496e+00
-5.000290443077641811e+00,2.361023502782322758e+00,4.056003193346019664e+00
-5.342260201893644478e+00,2.425650052605111462e+00,4.337342570278404530e+00
-5.667506351652626506e+00,2.488829784534531964e+00,4.611486957934087805e+00
-5.961685989107852635e+00,2.529920008014232113e+00,4.896513434752517213e+00
-6.228376430596652469e+00,2.584657204436203060e+00,5.174019077770943831e+00
-6.471564441127025447e+00,2.626751374734405786e+00,5.453404050820508608e+00
-6.695063132762095748e+00,2.665746360530875769e+00,5.737327384635346306e+00
-6.906388872436848736e+00,2.697436422337252449e+00,6.018238826424474830e+00
-7.086697060236417656e+00,2.722286145178823613e+00,6.297276260189882180e+00
-7.253304059437206242e+00,2.750109975046864275e+00,6.585488115651771501e+00
-7.410648843417512843e+00,2.778136180786386245e+00,6.863609220542117306e+00
-7.553592295490278552e+00,2.803155732431558356e+00,7.153041416151796561e+00
-7.682524440228140072e+00,2.819354460465998358e+00,7.438089988593198143e+00
-7.803203441944013719e+00,2.833889111182632092e+00,7.714409088113272084e+00
-7.916432343356356149e+00,2.848619376275130843e+00,7.998470328025641507e+00
-8.012910383114624224e+00,2.859536250855607253e+00,8.285163353053935253e+00
-8.104501003941772197e+00,2.865055441406903824e+00,8.569905039467384356e+00
-8.192661628577747379e+00,2.876665626049298208e+00,8.848066895186153857e+00
-8.278668615443919521e+00,2.883032297623124851e+00,9.134245705544769223e+00
-8.349538970009691141e+00,2.881480710692390090e+00,9.417744769531671167e+00
-8.424168856641902181e+00,2.889362133874533445e+00,9.705118202374436009e+00
-8.488454875480956119e+00,2.890135574979095789e+00,9.992048167037106410e+00
-8.552360083677486458e+00,2.882656519222574154e+00,1.027425288286768712e+01
-8.609904467425611330e+00,2.887870383424364640e+00,1.055161957368262904e+01
-8.666336821900937792e+00,2.879149450738589522e+00,1.083569760935155202e+01
-8.714567032143676784e+00,2.879887367981086133e+00,1.111992622519989027e+01
-8.763274163600980771e+00,2.873101725789517502e+00,1.140687907744873897e+01
-8.809366112041381314e+00,2.871085092479611411e+00,1.169115015671706814e+01
-8.851470839838773585e+00,2.857882157781427512e+00,1.197508170588956311e+01
-8.896025118803070342e+00,2.854705774286163233e+00,1.225947336583227809e+01
-8.943023666048855347e+00,2.845566762049701381e+00,1.254186635551774387e+01
-8.977902675300381219e+00,2.835327161492994907e+00,1.283009331706160339e+01
-9.014952081056810229e+00,2.822543230599272590e+00,1.310673334663455236e+01
-9.056199409025678548e+00,2.812722264253281867e+00,1.339495072807112130e+01
-9.095647227157471093e+00,2.798229641596235773e+00,1.367654732240981197e+01
-9.130401770344500179e+00,2.783187578856384903e+00,1.396366464635790372e+01
-9.169567010875447011e+00,2.773400083826624396e+00,1.424457171251846965e+01
-9.200111934924123602e+00,2.754421550331526358e+00,1.453091982677260496e+01
-9.232871583821470551e+00,2.742862191193278676e+00,1.481431953000708468e+01
-9.264967424680531138e+00,2.727211372695609537e+00,1.510226732188031384e+01
-9.300602413421358960e+00,2.708376914297321747e+00,1.537721327719633102e+01
-9.330101361587372466e+00,2.698692407234527746e+00,1.566502194010974591e+01
-9.363979539686310360e+00,2.675635853503657291e+00,1.594673548030779209e+01
-9.401237136174904307e+00,2.659917933432019765e+00,1.622772789779413216e+01
-9.432974281273022399e+00,2.637523492701223660e+00,1.651186537210677585e+01
-9.461670346880129756e+00,2.618924526837524080e+00,1.679987503918413339e+01
-9.494474687472269636e+00,2.604091625274552513e+00,1.706432572364766997e+01
-9.520073011627207649e+00,2.578907200598680394e+00,1.729235147342247458e+01
-9.532487883727725375e+00,2.554175893850648027e+00,1.749746827929672222e+01
-9.540197657942195875e+00,2.526810352496878576e+00,1.765776280338159765e+01
-9.546450069295444152e+00,2.509858709260412990e+00,1.780444945268508761e+01
-9.548318038722444001e+00,2.481195882154000554e+00,1.792455346588434040e+01
-9.542688829995872979e+00,2.456573015140374849e+00,1.802849625259553434e+01
-9.537905453201027228e+00,2.421720312490642346e+00,1.811165230746352961e+01
-9.520732803835297631e+00,2.398856782766966234e+00,1.817301729192615056e+01
-9.508622071157343925e+00,2.367733156103696945e+00,1.822673294664009092e+01
-9.493398299850847266e+00,2.340239633983776990e+00,1.825731998721568061e+01
-9.475338107306916058e+00,2.314529422647038093e+00,1.828006084041342660e+01
-9.458239623943352825e+00,2.287979890957563267e+00,1.829364500554982698e+01
-9.433009219823558666e+00,2.257282806809230546e+00,1.829044997234913694e+01
-9.406412721427894752e+00,2.224849094627020740e+00,1.827983213231392057e+01
-9.375292457137609503e+00,2.196457262209755790e+00,1.826354622756667467e+01
-9.350395572543156675e+00,2.170570571862936671e+00,1.824419207270756615e+01
-9.322539378583110548e+00,2.147032505939145963e+00,1.821322473181791324e+01
-9.292187984086950792e+00,2.112521112273168633e+00,1.817660989827724549e+01
-9.260383756093281349e+00,2.085676691491332502e+00,1.813073333017059952e+01
-9.228686129473734567e+00,2.062340888841025066e+00,1.808513037075814367e+01
-9.195267253707282151e+00,2.027611297675369073e+00,1.803670389356200943e+01
-9.163894151399716748e+00,2.002750803352764564e+00,1.798108847387094755e+01
-9.125024111013930295e+00,1.975048227211650076e+00,1.792079917798090349e+01
-9.087872073790213889e+00,1.944730040464764942e+00,1.785713961039294162e+01
-9.053539798556084151e+00,1.918509199120946862e+00,1.779852705211180819e+01
-9.014465779599554196e+00,1.895292958853007637e+00,1.772709760380696764e+01
-8.978491348910482728e+00,1.868012415531883130e+00,1.766103560849740717e+01
-8.944324182156687897e+00,1.843255407659658562e+00,1.758836033701003032e+01
-8.907156168747702552e+00,1.817247397083893157e+00,1.752186344390661787e+01
-8.865711041028838224e+00,1.794589550818746382e+00,1.744530379652050200e+01
-8.829061594001979429e+00,1.766104799256320579e+00,1.737000011115771869e+01
-8.793535822275812208e+00,1.742022172560502069e+00,1.729235704597881806e+01
-8.753450026171547549e+00,1.715141057983040174e+00,1.721565583483334549e+01
-8.719217394796189069e+00,1.689607296764766842e+00,1.713792262616133044e+01
-8.678970275083404573e+00,1.667024334655387463e+00,1.706022697792900189e+01
-8.640982058193188209e+00,1.643421098268808667e+00,1.698293570913570250e+01
-8.599303702821393003e+00,1.616620622384410622e+00,1.690241540205625270e+01
-8.565760986166109703e+00,1.595138931260211779e+00,1.682022232211081558e+01
-8.524055150901943989e+00,1.571039351690773911e+00,1.674050609061671580e+01
-8.485699929370536410e+00,1.546696365952980656e+00,1.665297011583081144e+01
-8.448551629082157177e+00,1.523918683811739339e+00,1.657635124142868577e+01
-8.409105418793521025e+00,1.506643986385860945e+00,1.649648686493054228e+01
-8.372119523039092570e+00,1.480092826849533694e+00,1.641177829118910481e+01
-8.334449136276504078e+00,1.455660879798725604e+00,1.632996909621641635e+01
-8.295618404315131755e+00,1.436018659613445880e+00,1.624767493629459025e+01
-8.258388410451285466e+00,1.419469256283624414e+00,1.617508522046599495e+01
-8.212889645534703575e+00,1.394132439877880492e+00,1.608877976834020274e+01
-8.179993642938571341e+00,1.376147009209281347e+00,1.600661618610500980e+01
-8.141815921216311480e+00,1.357113828998283367e+00,1.591874888207670580e+01
-8.103184730035325245e+00,1.334335548594347332e+00,1.584609553595743670e+01
-8.067242846407072676e+00,1.312487703672504891e+00,1.575568407271658344e+01
-8.028879286146221261e+00,1.294072613517814663e+00,1.568246726269284252e+01
-7.989275290184713718e+00,1.277783937974237505e+00,1.559785189777066350e+01
-7.954814607334803611e+00,1.255124818124478070e+00,1.552203202431179285e+01
-7.919007217818312405e+00,1.239340850935310323e+00,1.544615504679067897e+01
-7.879450812085668332e+00,1.213499121640885026e+00,1.535735675222833585e+01
-7.840676389996202644e+00,1.197645571445063784e+00,1.528233875779815243e+01
-7.805503462432223927e+00,1.179048613868070250e+00,1.520221296342252693e+01
-7.765932390063941426e+00,1.158920201810800021e+00,1.512508839477150246e+01
-7.729691890253153730e+00,1.143873929922858190e+00,1.504672742015934439e+01
-7.691900893761411950e+00,1.126806882882489091e+00,1.497492253422562136e+01
-7.659429427454908179e+00,1.105803459002625999e+00,1.489101770206792708e+01
-7.619758991433179141e+00,1.091399156206035004e+00,1.481163007337044313e+01
-7.591435527224127178e+00,1.077139283998064911e+00,1.473136410268599050e+01
-7.550919843066780324e+00,1.056097366023900586e+00,1.465705013976800508e+01
-7.516023133404758916e+00,1.044879974705149150e+00,1.458081255056568537e+01
-7.483553351176278845e+00,1.024010662561140705e+00,1.450485883579247570e+01
-7.445070228435699988e+00,1.007218549158070520e+00,1.442811315797566962e+01
-7.411522834410894767e+00,9.919551178586786255e-01,1.435440824718631170e+01
-7.372810153136690303e+00,9.728825362741704286e-01,1.428237352285418460e+01
-7.340730939280514455e+00,9.574223404371268176e-01,1.420581201941827487e+01
-7.308672670669447591e+00,9.432042919657894764e-01,1.413379743917577258e+01
-7.265020795364260486e+00,9.291189436448296091e-01,1.405504663550084032e+01
-7.236829845708429687e+00,9.128992822608554825e-01,1.398404155924661474e+01
-7.199105260220522773e+00,8.967933420931741839e-01,1.391176019781556938e+01
-7.167973576105968192e+00,8.894791263399786096e-01,1.383537874446973426e+01
-7.128521444674852603e+00,8.706234466595852428e-01,1.376821957687441156e+01
-7.097258406436109723e+00,8.553779223678702470e-01,1.369298338138867166e+01
-7.061174874979863958e+00,8.387758673723976210e-01,1.361774267917809667e+01
-7.030606361074602795e+00,8.290061688601498835e-01,1.354599534613156919e+01
-6.994499157496679054e+00,8.105199346193078247e-01,1.347673864099699514e+01
-6.967979420075868902e+00,8.016707901264389369e-01,1.340585777287674141e+01
-6.928391695278190987e+00,7.885327687101439942e-01,1.333886237207073933e+01
-6.894972082378040490e+00,7.698619582372603354e-01,1.326430201655455932e+01
-6.863735683707052004e+00,7.580642068496221686e-01,1.319522417561970329e+01
-6.830023381708732799e+00,7.482097737866484355e-01,1.313126780091861079e+01
-6.794786198593865123e+00,7.370930781626716666e-01,1.305797258692477136e+01
-6.764704097879877587e+00,7.186363000023687775e-01,1.298518614189489995e+01
-6.732367293278360698e+00,7.101761505541326347e-01,1.292329880529835151e+01
-6.703064481009481490e+00,6.947561175648698795e-01,1.284982116302335875e+01
-6.665742678326905590e+00,6.830581473739700815e-01,1.278489639090908270e+01
-6.631942481896230923e+00,6.686844981467590099e-01,1.272109745434921813e+01
-6.605276953053189182e+00,6.585675524644404311e-01,1.265013491924980471e+01
-6.571637500002606380e+00,6.463464441872398547e-01,1.258740802551839977e+01
-6.543710482972041831e+00,6.335814213345885015e-01,1.252490017191370697e+01
-6.506381675120788799e+00,6.264669600426985285e-01,1.245245480090630430e+01
-6.478392706984031690e+00,6.116789695546673844e-01,1.238680660595161775e+01
-6.440437535956593074e+00,6.048015809911179153e-01,1.232072964263541337e+01
-6.415623721701771309e+00,5.897562094405167654e-01,1.225516051164076714e+01
-6.378593851092937861e+00,5.800952702541306572e-01,1.219658982322391871e+01
-6.354519545385244328e+00,5.716084296955539212e-01,1.212925094156386940e+01
-6.322757454998445326e+00,5.598802690031658980e-01,1.206541917972714728e+01
-6.287387980931526066e+00,5.449213370453147576e-01,1.199950664214542329e+01
-6.260427104610696070e+00,5.394117445947675948e-01,1.194105627636075084e+01
-6.229004898369064236e+00,5.270734584368356179e-01,1.187344225451636959e+01
-6.201181720888288673e+00,5.163305555448579609e-01,1.181730982723996348e+01
-6.169542852588580928e+00,5.091582603185959011e-01,1.175297107451163470e+01
-6.140747222908748526e+00,4.975189670306054968e-01,1.168366186519315164e+01
-6.114389632707318611e+00,4.867879173698743123e-01,1.162324819257584707e+01
-6.076472616592146103e+00,4.854412429473219937e-01,1.156425637545915208e+01
-6.054008076204266509e+00,4.703054357086400294e-01,1.149989985742598897e+01
-6.020134734209597660e+00,4.609901660158393089e-01,1.144496099324366511e+01
-5.986608107380660293e+00,4.475644106287260948e-01,1.138405981867535388e+01
-5.963537570663831389e+00,4.462120019683459282e-01,1.132508923199034001e+01
-5.932647844611057764e+00,4.359510601865585477e-01,1.126027289504239093e+01
-5.906835169971034638e+00,4.249320250814913047e-01,1.120210472764129861e+01
-5.880550311111885975e+00,4.144720963130949509e-01,1.114856922386530336e+01
-5.849867669537447412e+00,4.074374801289266657e-01,1.108558342686846920e+01
-5.816363980149239943e+00,3.968418368507587446e-01,1.102835841018880636e+01
-5.783930107360164108e+00,3.887024352639961156e-01,1.097086877769091728e+01
-5.761744953797657942e+00,3.827842079953728827e-01,1.091468078840692435e+01
-5.733179380576482131e+00,3.697397712474173037e-01,1.085549164578440973e+01
-5.708554580704549686e+00,3.652796488264407615e-01,1.079368778662957418e+01
-5.677279859161806996e+00,3.597348180456136912e-01,1.074026890622056207e+01
-5.648266377638982760e+00,3.520594659968281359e-01,1.068047126561019411e+01
-5.622276990823037224e+00,3.390048011668378436e-01,1.062573665930140798e+01
-5.597578244237576328e+00,3.369415685299008145e-01,1.056938360605501792e+01
-5.570110774642819784e+00,3.284830204330550507e-01,1.051491108601583058e+01
-5.534360983898198860e+00,3.200935948973254175e-01,1.045847266587620261e+01
-5.513133615232028717e+00,3.119125084799421188e-01,1.040528587208603462e+01
-5.482662079423970880e+00,3.061565379440616130e-01,1.034895336831240442e+01
-5.457502612651760288e+00,3.007125653891835615e-01,1.029437695732150004e+01
-5.431063555865279113e+00,2.930416541146200760e-01,1.024200348964508400e+01
-5.404803718552756209e+00,2.844952214281977754e-01,1.018554374972308274e+01
-5.379987855065171409e+00,2.824067765674572184e-01,1.013601143251092296e+01
-5.352006737055188701e+00,2.709898548149424213e-01,1.008006872024162526e+01
-5.321667132053485183e+00,2.606621981035001645e-01,1.002913577942915246e+01
-5.302877932015592322e+00,2.561678272469594675e-01,9.974676991277103610e+00
-5.276792692908658822e+00,2.502074080140426759e-01,9.919746684074798537e+00
-5.245229768876153109e+00,2.453694625212825553e-01,9.869669134546880329e+00
-5.223344302176224474e+00,2.357635217291662588e-01,9.815170727170039910e+00
-5.195063370604870556e+00,2.310863089682449467e-01,9.765644886175863348e+00
-5.170275874962394269e+00,2.237578372594109244e-01,9.712831179999197317e+00
-5.144163752426313962e+00,2.194500057932893267e-01,9.657457700074559170e+00
-5.119285853216372750e+00,2.104169046475471705e-01,9.613224168084267163e+00
-5.094584750603776691e+00,2.067563118919016341e-01,9.560923237846337130e+00
-5.070528092676516607e+00,2.029844239343649437e-01,9.511212178814101748e+00
-5.042767824437881075e+00,1.993746991665064083e-01,9.464264946031354597e+00
-5.022782732345730139e+00,1.956473571324930938e-01,9.411255028387255805e+00
-4.991754573579099130e+00,1.797176563331101540e-01,9.366440748592443910e+00
-4.969254431598545629e+00,1.832533447425610806e-01,9.315379315505609270e+00
-4.940477363712049375e+00,1.711829219548800796e-01,9.260041227931068875e+00
-4.919435375766000540e+00,1.679751480149266896e-01,9.212474273813731074e+00
-4.896302948543619138e+00,1.694325130464039153e-01,9.162638000430133545e+00
-4.876597402512678592e+00,1.587019415294196600e-01,9.115485887345393223e+00
-4.846077918143387286e+00,1.480724856289588054e-01,9.068514299694610870e+00
-4.823169620574408789e+00,1.479037282888117921e-01,9.021104651281143916e+00
-4.799147291952206018e+00,1.416498927418698983e-01,8.970572680056655201e+00
-4.776270034520350372e+00,1.363119433016051207e-01,8.924507154153475952e+00
-4.752823787388044785e+00,1.335389148971779516e-01,8.875012996957265088e+00
-4.729026925824168615e+00,1.246746557714116521e-01,8.832820873000123640e+00
-4.705112938743932993e+00,1.201373421409915460e-01,8.782059970792976955e+00
-4.682046680586513965e+00,1.171642694583669014e-01,8.740982268379088538e+00
-4.659053599849594995e+00,1.138292855652701940e-01,8.696077438452459063e+00
-4.634085624540267290e+00,1.117135997922468899e-01,8.645010635400431909e+00
-4.611043638325887706e+00,1.037072044125173370e-01,8.596643859571518220e+00
-4.585036508714340542e+00,9.880298722184638338e-02,8.554827387335082634e+00
-4.568668940742257156e+00,9.831015037018628333e-02,8.506301110812678701e+00
-4.540895393473910246e+00,9.172390958496279278e-02,8.467977823064126497e+00
-4.520364300053751450e+00,8.866793530793655453e-02,8.416981630180380591e+00
-4.499623598473248443e+00,8.628030628301294747e-02,8.378269182799062520e+00
-4.476610329688130108e+00,8.257394147905128268e-02,8.330225854140239861e+00
-4.453125331671727416e+00,7.447433683936634241e-02,8.286342058238874486e+00
-4.435434214704526923e+00,6.864046065379658668e-02,8.243225837530923528e+00
-4.410921092658409925e+00,7.131674121077126449e-02,8.199121533958436459e+00
-4.384068744290482655e+00,6.386585486299237169e-02,8.157085822558068244e+00
-4.367699748570810669e+00,6.028391098753754090e-02,8.115134955804748529e+00
-4.347126165640091244e+00,5.073778160396273662e-02,8.063858034877451786e+00
-4.324329521181232039e+00,5.040002600888553175e-02,8.029248716810572617e+00
-4.304205658661818035e+00,4.901777864253309414e-02,7.987937123999905076e+00
-4.280242943494927843e+00,4.666569358735520728e-02,7.941405722056694039e+00
-4.252970013733373023e+00,4.325136192186290057e-02,7.905630608696535333e+00
-4.232879304062223014e+00,3.574269959311628109e-02,7.856849940584065273e+00
-4.214386525520861682e+00,3.423637237579245374e-02,7.822504289788212439e+00
-4.194226149354665090e+00,3.094290243179024374e-02,7.777855344415296912e+00
-4.173982740221306997e+00,2.683224046146218816e-02,7.732025023096893435e+00
-4.155024748673823431e+00,2.437459779012516453e-02,7.692482928238380424e+00
-4.126853851167740395e+00,2.128087782845395834e-02,7.655032095669209724e+00
-4.113039742791182007e+00,1.759905818690724044e-02,7.615659770547681617e+00
-4.092619098078313478e+00,1.812470582471165798e-02,7.571496030516296827e+00
-4.071632322833085738e+00,1.326369546211893236e-02,7.534534694404485755e+00
-4.047737839317988140e+00,6.374865518633829851e-03,7.492383018309014098e+00
-4.032711141138176636e+00,7.696778179778010660e-03,7.455755711937504415e+00
-4.007160169400048488e+00,7.396188797374788314e-03,7.418029718585366084e+00
-3.984964530106607228e+00,7.793382862657989053e-04,7.377332115634201770e+00
-3.963651008277266019e+00,1.832047456751976144e-03,7.338217042269243429e+00
-3.951889711707900599e+00,-2.878492943919523130e-03,7.299035367724601819e+00
-3.926520909753552058e+00,-2.320517302284648507e-03,7.263733302514251200e+00
-3.913386619862859295e+00,-9.106407031803020677e-03,7.220031000826850232e+00
-3.891115561953686353e+00,-1.110856673643236849e-02,7.181436145654879866e+00
-3.870050782949936430e+00,-1.086405405175408165e-02,7.147401989951338130e+00
-3.855797288666846789e+00,-1.995197770711250665e-02,7.112055144107153559e+00
-3.830777231355923629e+00,-2.076419919298484740e-02,7.069928121364916329e+00
-3.817276238431865920e+00,-2.462022278873631648e-02,7.033075824632161854e+00
-3.794787030167394271e+00,-2.444775598089827390e-02,6.997233140942064722e+00
-3.775753700312874717e+00,-2.868839106935548722e-02,6.960161325596064152e+00
-3.757122286747756945e+00,-2.867220681867535537e-02,6.922351315807785177e+00
-3.736072569042280467e+00,-3.583114149196663101e-02,6.886657087118720710e+00
-3.712696209362409405e+00,-3.312106302314813538e-02,6.850192738858689623e+00
-3.694555284935487904e+00,-4.056166254440449898e-02,6.810395781232913670e+00
-3.681632067223289617e+00,-3.682920915710180543e-02,6.778067219018804046e+00
-3.664315821433896669e+00,-3.735769421219529984e-02,6.743285957266271780e+00
-3.639570537664225114e+00,-4.306392728693692051e-02,6.706900419416984782e+00
