accel_x (m/s^2),accel_y (m/s^2),accel_z (m/s^2)
-1.466345409755814106e-03,9.313892924800851181e-03,-9.798691966766833517e+00
-7.921706198791443956e-03,1.266261978628574090e-03,-9.810291121656320001e+00
4.954154684528095341e-03,3.762388428330259906e-03,-9.807264411229722256e+00
-2.445588407803080859e-04,1.110928499664628425e-03,-9.801852444089824701e+00
-9.774910005694123494e-03,-1.385880808897264308e-04,-9.792304117218131765e+00
-1.984544974712976109e-03,1.557009069128909018e-02,-9.813299936814043889e+00
-3.686676113097764069e-03,-3.778218474178199164e-03,-9.800145750105334841e+00
-1.764974021542847684e-04,-2.749208733223785454e-03,-9.790665738872862178e+00
1.500957159159632768e-03,3.429314671399872911e-03,-9.807068183394735073e+00
8.847522802508287713e-04,-3.550136258289973788e-03,-9.797781211017090541e+00
1.392948479743554534e-02,-2.117613253068685326e-03,-9.795728697229710846e+00
-1.019373680191645609e-05,-4.812243109020490454e-03,-9.786654448983886923e+00
7.266588981306739033e-03,6.438904739736191207e-03,-9.787067387931955409e+00
3.978664817487265193e-03,-3.668230831622418687e-03,-9.798060168031806683e+00
-4.691799786818337883e-03,-2.049214237673405419e-03,-9.801684285738852864e+00
3.471445591956283556e-03,-3.336199987990492565e-03,-9.790319209115638799e+00
7.898258188906499833e-03,-2.278089097724519951e-03,-9.801660222791193533e+00
-4.443109764647765018e-03,-5.145088136755750739e-03,-9.806420419839870561e+00
-8.647659436590611134e-03,1.333375885118370287e-04,-9.815153462575041843e+00
4.246741788875301078e-03,-5.063909856022548971e-03,-9.815301792769885125e+00
1.742929186815803545e-03,4.937349773903915509e-03,-9.801820320838492862e+00
9.718150207913902076e-04,2.221810118087192172e-05,-9.793013757492518678e+00
4.988675802353857540e-03,3.550238711994945905e-03,-9.795022270635030281e+00
7.706482601835179524e-03,3.825100287109837755e-03,-9.787851728328146095e+00
3.021507878941733730e-03,-5.171719905961773452e-03,-9.793197216543752859e+00
-2.563949166809699129e-03,9.794556521237642293e-04,-9.798056364321967138e+00
2.273763561928284979e-03,6.245780132055876906e-03,-9.806593861538154044e+00
-9.237702848936343728e-04,-3.247702568139810252e-03,-9.794009088907934313e+00
-6.133096898392299129e-03,-4.904524637517356997e-03,-9.802570433493631441e+00
-6.680834502429177334e-03,3.077779144635399249e-03,-9.786036503445087575e+00
-7.788237008017862353e-03,9.595661266527912708e-03,-9.811534077837034573e+00
-2.614028807472006371e-03,-3.266531237807641127e-04,-9.794864673477519545e+00
-4.535122269476462784e-03,4.552426991160547776e-03,-9.811777670022555853e+00
8.930986303576958843e-03,-2.396184558834558477e-03,-9.798118013334566001e+00
-4.065916455150882410e-03,1.340836818024204562e-02,-9.811372009234556657e+00
-1.770487721927305105e-03,-2.713578100195289042e-03,-9.807559705184681675e+00
9.897205203655713018e-03,-4.337894178019816027e-03,-9.794272300903358541e+00
-3.766949782682541947e-03,8.237786930762233109e-04,-9.787884068362762591e+00
6.858806284863675461e-03,-1.327178452908011263e-03,-9.812138472117124977e+00
1.681550112057530761e-03,5.575722011040969324e-03,-9.803005984263789330e+00
2.892711450771183902e-03,2.491616383951080881e-03,-9.800896258265655803e+00
2.188537559085813888e-04,-1.134988321695906211e-03,-9.808961273067561493e+00
-1.784618502706500310e-03,-3.724388511432246730e-03,-9.793491256022171854e+00
-1.197017287206550776e-02,-8.881823575453277539e-03,-9.805056550516493274e+00
6.490906849578212748e-03,2.556185752574650048e-03,-9.809069394208378867e+00
3.346763912447202425e-03,-7.786825770423840866e-04,-9.802451721104540994e+00
-1.838976037168510652e-03,9.997164920078906516e-03,-9.797034175158682245e+00
-5.316011312182848843e-03,9.763611529556731963e-03,-9.806813900074301316e+00
-6.645002237305879271e-04,-3.283512666211294614e-03,-9.812127863799814165e+00
-5.329320857814023177e-03,-1.127036607249021346e-03,-9.802779642029797458e+00
7.276277632489782168e-03,1.452679394218983101e-03,-9.811499122276716278e+00
4.422857086147318861e-04,7.398053542389827417e-03,-9.804005049424285190e+00
-9.294529281447029903e-03,-1.162681811578014299e-02,-9.812963449687867268e+00
-2.764077660937082175e-03,1.457885026544923981e-02,-9.800508087199862217e+00
1.577699084507710840e-03,-6.120111649396533203e-03,-9.774801322888695410e+00
-4.489558273776582398e-03,5.730119513047059144e-04,-9.776761834174662269e+00
5.275960311624441207e-03,-1.054451852499263889e-02,-9.803909091870353976e+00
-4.917934578652982842e-03,1.799136375495240811e-03,-9.800240714459587110e+00
-3.002414011038548021e-04,-2.656995088971689928e-03,-9.793809148059985148e+00
3.946396921638072736e-03,-2.211455489224783705e-03,-9.795542700498515387e+00
6.047633291327045996e-03,-7.698659772823429441e-03,-9.800168649394748854e+00
8.705562846773770265e-04,1.382385585282492040e-03,-9.798969182893650043e+00
-5.281635214479729785e-03,4.370143562069169906e-04,-9.801200788088594962e+00
-5.501981392491188394e-03,-5.371961625160994770e-03,-9.796816788705561052e+00
-1.584878227810082064e-03,2.609071793295038842e-04,-9.803257473606679540e+00
9.879912787312185307e-03,5.011872780987556425e-03,-9.808381861632074816e+00
5.912052774483811390e-03,7.456259069729497153e-03,-9.807649852320789563e+00
4.173116371544588650e-03,-1.381352552707722009e-03,-9.792171683852416209e+00
-6.351120023479987081e-03,-4.656054136405959193e-03,-9.799732270805165513e+00
1.714357388108243363e-03,8.719833543183024352e-03,-9.807899356894452580e+00
5.280357840464787456e-03,7.323829283344194044e-03,-9.804281066296960390e+00
-7.063971330510835332e-03,1.506205269111419824e-03,-9.802715423421554775e+00
-2.161502621014624748e-03,-6.338206973504464849e-04,-9.798884290205910119e+00
-4.818964639810416686e-03,3.051682081541801528e-03,-9.799940706297906701e+00
-1.077617552871994828e-03,-5.613835024948489417e-04,-9.801604721345276161e+00
-3.487024638957445574e-03,3.474036293306009913e-03,-9.808257554716107052e+00
4.118804704052825803e-03,6.313212441033188389e-04,-9.795342017241646104e+00
1.363787918217497508e-02,-6.209983164248722995e-04,-9.797429719284890481e+00
9.646559425202330023e-04,-1.555249871504855996e-03,-9.815735640873304746e+00
1.054074783500053578e-03,3.340792017645142706e-03,-9.811603869585521664e+00
-2.964087888042225925e-03,-4.405787587665268429e-03,-9.805085631150793901e+00
-9.264895424718377209e-03,-2.235045582837129428e-03,-9.807595547351363408e+00
2.674802738650976317e-03,4.710749143154866945e-04,-9.797198600956349424e+00
-5.742828937773475362e-03,4.795520663378007205e-03,-9.798001381924249742e+00
-3.708856167128836770e-03,-3.016578740440711576e-03,-9.809382516479317360e+00
-4.923397282272113165e-03,-6.767434460583957815e-04,-9.805598011255147739e+00
4.419692304299603983e-03,4.716960847662795935e-03,-9.820096863729089520e+00
7.997021495536833779e-03,3.192513750787502602e-03,-9.804944873782135417e+00
4.561109960214413013e-03,2.576060917028493748e-04,-9.803703012381555837e+00
-2.539206811243584910e-03,-1.305644315724254585e-03,-9.808986722613086684e+00
-2.892307645064347201e-03,4.499407465803320801e-03,-9.794612074167851290e+00
-1.854933553371426605e-03,8.783800322574761635e-03,-9.815232316633204945e+00
1.525520105885962694e-04,-2.411046515518982560e-03,-9.805652673673870723e+00
-3.236263300353285285e-04,-4.155846141385619724e-03,-9.802435303488273632e+00
6.417762924416044179e-03,2.408382852519164782e-03,-9.808762236910006038e+00
-9.398392021285897294e-04,1.465647815660211075e-03,-9.803892771650611238e+00
-5.803676349786186794e-03,3.220090314947853059e-03,-9.795696279045968069e+00
-3.027573882915501869e-04,5.668230747037575692e-03,-9.792978798528665152e+00
-4.040614116778599475e-03,-3.794987178180234556e-03,-9.803915077637912034e+00
-5.087654488797317340e-03,-5.158539654495710412e-03,-9.779117224474372705e+00
-1.932933486279004654e-03,6.610537605502708400e-03,-9.802366166991060226e+00
2.176289477681355063e-03,8.156219811578041892e-03,-9.809276359445997073e+00
-3.311283040784297749e-03,-4.081060242277813332e-03,-9.798372146395887938e+00
-3.301061778962850052e-03,4.003658170700866853e-03,-9.795046474208898957e+00
1.462070558608196151e-03,-9.737214657496075926e-03,-9.789297951566632960e+00
1.108488270118618583e-03,-3.956546286873602152e-03,-9.798772569423469747e+00
1.425341030748547046e-03,7.697451131822873049e-03,-9.799697247086699647e+00
-1.246762098780766336e-03,-3.948596536808923231e-03,-9.795383156320923490e+00
-4.096881753452892225e-03,9.149117335976834908e-03,-9.797606298084049925e+00
-2.407304048813836087e-03,-6.094198485345560072e-03,-9.803430891653139412e+00
-1.601026439384570579e-03,5.564158443787430887e-03,-9.800626875934041138e+00
2.299412658690547662e-03,4.418673704443099037e-03,-9.793389638662597818e+00
-6.506277722130448735e-03,-9.182881769952262047e-03,-9.800925466099329242e+00
1.363637485623731514e-02,1.776072421422135970e-03,-9.793705890889460974e+00
3.363631847279417372e-03,-2.404081767058614729e-03,-9.810580642549314945e+00
7.013547011886094723e-03,-8.470321253550582713e-03,-9.794302164900191343e+00
1.546736273329005640e-03,-2.620712893206277039e-03,-9.801260923729723018e+00
3.841734817210807999e-03,7.336719239244188055e-03,-9.808326689247357066e+00
2.450282597695053848e-03,1.049715763933765748e-02,-9.795167988810284498e+00
-3.073330826831646972e-03,8.089324022094530799e-04,-9.787976360810867860e+00
2.172897643921922316e-03,-5.099511714681935308e-03,-9.798587646005534779e+00
1.922658695564964833e-03,-9.421768171183984159e-04,-9.809732000237675109e+00
-2.904553339195051209e-03,-4.310445012228564070e-03,-9.789823329108642724e+00
3.182065501780782270e-03,3.032382623603994964e-03,-9.794849866157001372e+00
-1.282868793602857851e-03,-2.360758951482036083e-03,-9.806711272454046835e+00
-1.255149642936105071e-03,1.670187476077594074e-03,-9.795381712690614862e+00
2.482591702070629201e-03,-5.333684186465840809e-04,-9.793343964878845398e+00
-5.612442469372806719e-03,-1.191627220797996213e-03,-9.811887649687506041e+00
3.492860486154197169e-03,1.432487686710853412e-03,-9.800075135406384419e+00
-1.139170064968585394e-04,4.008849545670949491e-03,-9.804950764487337267e+00
1.192197084379381178e-03,-3.286499472653282850e-03,-9.802610074075507995e+00
5.801577989639924238e-06,9.996619215364691349e-03,-9.794823483645730633e+00
5.251636081459658961e-03,8.962917785882864793e-03,-9.794746285227018845e+00
6.893776571926833047e-03,-5.134840759879351173e-03,-9.797030510295609673e+00
-2.509565303805876783e-03,-1.129792907967906018e-02,-9.806267192600259364e+00
7.018077654016876524e-05,-3.669496735701336613e-03,-9.810339062760656148e+00
-5.380989948856572391e-03,2.717386166497851984e-03,-9.821902731789162289e+00
1.260311825752288882e-03,1.518250187463223832e-03,-9.795789425365752479e+00
-6.352156368224510206e-03,-8.095966354579217997e-03,-9.804952485517208771e+00
5.407752782317318610e-03,-4.130150394873090790e-03,-9.821994494207332949e+00
-6.344865650652956740e-03,-5.376407848467375933e-03,-9.808007787824678303e+00
4.817699948544093905e-03,4.938644560033199566e-04,-9.808774787501601367e+00
1.197203781808084183e-03,7.726636298811428614e-05,-9.805457424140895384e+00
2.991462110383797876e-03,-6.705384971322981462e-04,-9.803941316924369431e+00
-2.713830064867276456e-03,8.726321505956046581e-03,-9.790993892773126817e+00
4.561678981856768199e-03,-1.253828960627194344e-03,-9.805067643273332578e+00
2.471492679388025918e-03,2.402330357586782063e-03,-9.803260287501560200e+00
2.694922365484570329e-03,3.093108523336521917e-03,-9.807018793434309600e+00
-8.342052850245529772e-04,-1.365930591547889934e-02,-9.807069949126411501e+00
2.734475827086007421e-03,-3.841889249074680393e-03,-9.792179080993143714e+00
-3.004292082502267158e-03,4.236424748720008654e-03,-9.794969983956724136e+00
5.773191371578193995e-03,7.446017667022641201e-03,-9.799957162661637966e+00
8.250439852684888012e-03,-2.137434230325261589e-03,-9.801573529176412336e+00
-7.186449258664774631e-03,-5.222762336194418376e-03,-9.808805571419391356e+00
3.710494335756686721e-04,6.339044544405138433e-03,-9.810950180801594200e+00
2.972622048292052933e-03,-3.397211645426994209e-03,-9.800707727282400583e+00
-2.992812674051461858e-03,-1.024402310624974478e-02,-9.806406431341542884e+00
5.954844576484461666e-03,-1.048054428745353976e-02,-9.810833832987437830e+00
4.128168746326927978e-03,-5.460277173720552409e-04,-9.789187895220619495e+00
-2.726594419713188402e-03,-4.913684906866033417e-03,-9.789893321950357219e+00
4.118560632984958128e-03,6.091886618000476664e-03,-9.791316147688869265e+00
2.091829347114822907e-03,-4.428357128246833245e-03,-9.797526040527774427e+00
-1.423856546921639654e-02,3.607842135980180234e-03,-9.798945599810860330e+00
-1.009165513865222311e-02,9.608312918968485872e-04,-9.804631963845949372e+00
3.885882515336577130e-04,-3.405399490158856788e-04,-9.796485786867950907e+00
-1.018242857342083543e-03,-7.975981524078431736e-03,-9.789735628554129931e+00
-7.203596546582304635e-04,1.266820884167408658e-03,-9.817931632651495377e+00
-5.376268584256184251e-03,2.499529705316956649e-03,-9.811987525913616892e+00
-3.422749458994049469e-03,5.091017607747775481e-03,-9.787656428068560288e+00
1.325623353465501121e-04,8.417370331600572061e-03,-9.801795322663563681e+00
1.813171426101018325e-03,1.157591985915312933e-02,-9.794593438617694048e+00
5.037992872396600957e-03,-2.492326568839417413e-03,-9.801472148919987859e+00
9.319757505791318244e-03,8.603375586524828617e-03,-9.805936686527576995e+00
-5.334802292749531681e-03,-9.300454867827202127e-03,-9.801964179687805867e+00
9.367549231436678820e-04,-8.626496611904469576e-04,-9.812126055958731996e+00
-1.270616391585873903e-02,5.268791697992611725e-03,-9.801824403167627153e+00
6.324166813592779291e-04,-5.805867070314599775e-03,-9.788326007400687701e+00
3.049854793113638955e-04,4.928270397401294384e-03,-9.810409568192163476e+00
-3.048386205636354016e-03,1.990530399543205715e-03,-9.790346675756858019e+00
-8.574366154401928675e-03,1.369766569187162155e-03,-9.816289406924541439e+00
-2.169067241393742886e-03,2.071901582958931252e-03,-9.821563254823677980e+00
1.883822168900999364e-03,1.180669423166813732e-03,-9.798385041400326401e+00
7.002122071592146654e-03,-8.980160771634998354e-04,-9.798453696821574965e+00
5.688793693484718583e-03,-2.271364241920532760e-03,-9.796208348833763679e+00
3.105327333558791005e-03,-1.860478670889245461e-03,-9.809604337704735499e+00
-2.024456352666996299e-03,9.676417581106291649e-04,-9.800457976758814027e+00
1.740832539724957101e-03,1.072107299882225483e-03,-9.798955958486777362e+00
1.539828457034818224e-03,3.603552407098750861e-03,-9.802890002009236881e+00
1.798270390384082082e-03,-4.765630735478098429e-03,-9.823295270769193621e+00
-5.459258087414961373e-03,1.050053178016327818e-03,-9.791065617480231964e+00
9.327274144214022650e-03,2.593951463540202906e-03,-9.793434624930997145e+00
-2.436010424537861201e-03,4.490942586363459894e-03,-9.798614929594027245e+00
-6.915502145365583740e-03,6.993449466804484062e-04,-9.808172903907614426e+00
1.303765316969404090e-04,-1.121048482285209305e-03,-9.818362908021104118e+00
-2.631368064046523975e-03,1.210142960527350875e-02,-9.804674694220850029e+00
-2.284570613154355938e-03,4.228247217776193861e-03,-9.796332877577215825e+00
1.083652489740897547e-04,-5.290890604468574286e-04,-9.822318987343500396e+00
-3.261916804461137583e-03,-1.103918198640234903e-02,-9.800028037079588472e+00
5.875202937187232709e-03,7.246960230326757874e-03,-9.804938711919382044e+00
8.986920695072904419e-03,3.950985645209885259e-03,-9.798403291854413055e+00
-8.021842141880484306e-03,1.042444825366403184e-02,-9.812409401458417335e+00
2.577000921076247255e-03,-4.374003041708476956e-04,-9.816110957397629733e+00
1.797107111974280804e-03,4.557500884916914838e-03,-9.806767718469698636e+00
-1.132482300877025311e-03,9.811285874232876947e-04,-9.789997342262585889e+00
2.867218380388053024e-03,-5.637875451413228503e-03,-9.811463808755707561e+00
2.511995954993161313e-03,5.702137841345113721e-03,-9.807989170234749920e+00
-4.729443857274704191e-03,-2.064370048995993294e-03,-9.792994501400439589e+00
-1.690873563342934656e-03,-3.126253482707229935e-03,-9.814778843065948166e+00
-9.770171958984712191e-03,-6.400993671578638841e-03,-9.799333408146978286e+00
7.998325973993851423e-03,1.682114973210133537e-03,-9.790125689387036090e+00
-1.042748566303992701e-02,8.457039924784914842e-03,-9.807585472129357385e+00
1.659175282850074238e-03,-5.589389368398392467e-04,-9.809360443369595117e+00
9.689589952193076311e-03,-3.525574043488092103e-03,-9.793000377665984857e+00
1.500132538153602134e-03,-4.081613780240817696e-03,-9.801467760044767275e+00
-3.786285671813654531e-03,-9.574919142314518121e-04,-9.799462827954808830e+00
-3.710026391047604403e-03,-6.159211742597195047e-03,-9.806379665150730673e+00
1.480708229243717393e-03,7.072098395630100481e-03,-9.800351248983988128e+00
-6.499417734748383184e-03,6.757405718866268778e-03,-9.803977624134931901e+00
-6.646988862170867193e-03,8.513193620781173490e-03,-9.808986968035613430e+00
6.299585495128167539e-03,-3.181645570873867582e-03,-9.799800259892780474e+00
-5.638546382911132845e-03,-1.000166599348069037e-03,-9.796302035196479352e+00
2.743277357620634190e-03,1.662651870105999853e-03,-9.806878660849799090e+00
2.958265901102226868e-04,-7.487339669979079133e-03,-9.814936392807979360e+00
2.171781200532706992e-03,5.433773457470138625e-04,-9.802975031514495896e+00
-6.180475944543615575e-03,-2.374211098653744665e-03,-9.795015247973292816e+00
-2.688013593482804515e-03,7.689686751925939312e-03,-9.809404658979751446e+00
3.962862051167328234e-04,2.303962726425430770e-03,-9.808186399966199787e+00
-5.172017826244037705e-03,-1.231269857383713402e-03,-9.803901509452023433e+00
5.675587533861457812e-03,3.849918595696454320e-03,-9.808336991863511045e+00
4.045107996167364786e-03,-3.339428005651266969e-03,-9.812609918402840137e+00
1.633124531840834297e-03,3.673660479591888805e-03,-9.804549664509076834e+00
-2.033905695035167788e-03,4.617017745239857841e-03,-9.801908824011245969e+00
2.056230014918639711e-03,8.528349387318849908e-03,-9.819589816871832966e+00
2.829224022884152014e-03,6.135095197625061846e-04,-9.801996020924256925e+00
2.708248504486023174e-03,2.549005329492960389e-04,-9.807261836961778556e+00
-8.702123296377985932e-04,-4.691869106559528116e-03,-9.791931579187053813e+00
-4.033553754287723912e-03,-1.221605507719025633e-03,-9.799413445170253922e+00
1.416008854141049622e-03,-5.647399657239329795e-03,-9.804689966712581750e+00
2.409200104476028428e-04,1.341286700775815759e-03,-9.804235697521818338e+00
-1.636922134036646872e-03,-1.530495252139003892e-03,-9.802348196910701361e+00
1.990658550193931831e-03,1.437098226245866334e-02,-9.813644640993276269e+00
-9.130281231889005684e-04,3.464947664102128230e-03,-9.809191135647346016e+00
-5.547960946940562639e-03,5.689373558022179853e-03,-9.812207130273870703e+00
2.860355629348063002e-03,8.338478580072373678e-03,-9.812763472675719356e+00
3.980946476526968890e-03,1.128591469008623357e-03,-9.808124970738081316e+00
5.022045337196418105e-05,2.049224219609883327e-03,-9.804663351170173513e+00
3.317047649283804724e-03,-5.455084616280654781e-03,-9.810787096136643015e+00
-7.665732861474960566e-03,-5.999658014822885702e-03,-9.789807153324925793e+00
-8.955656689529057322e-04,4.156204806018313439e-04,-9.784574888835159356e+00
-1.079722339575024670e-02,-6.522306064225640281e-04,-9.811596224886420359e+00
-2.060099260871664680e-03,2.272895051946552565e-03,-9.804206085589656894e+00
5.117884722779180535e-04,-8.017977543096967488e-03,-9.810003406954459493e+00
2.835040029320137940e-03,9.435476678033389783e-03,-9.799172017650009892e+00
-4.864507733091206348e-03,5.331692762276349536e-03,-9.807420729722045039e+00
-6.871802842488950553e-04,-4.934104842629718525e-03,-9.797117923150141294e+00
-1.299656595813924488e-02,5.414444238287930214e-03,-9.805488715206001515e+00
-8.050831125630376157e-04,2.204452444771602768e-03,-9.794370304010245221e+00
-5.598286987725830874e-03,6.969083029545225690e-03,-9.794391504488471512e+00
-4.102821470368968153e-03,1.050507407908299849e-02,-9.788037255795899227e+00
1.263900745619036007e-03,-4.608439587044611471e-03,-9.800282866237738588e+00
4.271282859029468595e-03,3.878128552827740834e-03,-9.788452419079321842e+00
-6.145658570062690652e-03,1.599019518450958514e-04,-9.806828952491587259e+00
-8.872770116724659761e-03,2.017890095918115512e-03,-9.798306973003558795e+00
3.918464410371217885e-03,-3.546774969844833716e-03,-9.776803626666433544e+00
-5.026651045692107252e-03,5.303949549665027546e-03,-9.801537043568460561e+00
-4.235301381621143016e-03,-7.828626539802067616e-03,-9.792875598302787310e+00
-3.541340966350353930e-03,2.247047134461064959e-03,-9.803861397027038294e+00
1.568434861760855878e-03,3.049609892792211688e-03,-9.807118504413015359e+00
-1.037654003269613363e-03,2.321411877879744814e-03,-9.811924059256172725e+00
1.078871112492777416e-02,6.206041826182701060e-03,-9.788521687306291241e+00
3.607165125629436826e-03,5.834819709216946225e-03,-9.806422112108908351e+00
-2.670963895874540941e-03,4.912239860024439353e-03,-9.807419715138678384e+00
-2.766045972255936746e-03,-3.510351683519700138e-03,-9.795195466033206344e+00
-4.416827501145544239e-03,5.700469781982183543e-03,-9.802014263393651561e+00
4.436487038511340193e-03,-7.130435799560770962e-03,-9.808146197046520243e+00
2.526729343601842852e-04,1.049142360253028233e-02,-9.805131876927964285e+00
-1.037887150732761049e-03,2.567426478444206819e-03,-9.793916009030166236e+00
-5.765496688384541372e-03,-2.825315889066871457e-03,-9.808132887080116546e+00
-6.800582223908508382e-03,-3.013391674642247262e-03,-9.798920907977203498e+00
1.278210148928882574e-03,-6.133586104822708572e-03,-9.787540198915801071e+00
2.510776063107425689e-03,-4.694758322956574075e-03,-9.800164631476400601e+00
6.794242260836884026e-03,6.344354422290914876e-03,-9.817590704351964348e+00
7.078731863417406581e-03,2.001052967714612833e-04,-9.806552556907748297e+00
-2.921966498519978136e-03,3.059451421052701309e-03,-9.792929671903340960e+00
8.290006507633118638e-03,5.836322401129653489e-03,-9.790431084191864031e+00
-5.933281582518162281e-04,4.549924113511702971e-03,-9.803022954294444702e+00
-4.625456353966069141e-03,-2.841762412331676462e-03,-9.811892912503580533e+00
7.410828061505315978e-03,-3.963051629966798765e-03,-9.805462103010293973e+00
-1.610372956497269949e-03,-1.493784485157985354e-03,-9.806552950252244827e+00
3.979269673523515294e-03,-7.787534355329789500e-03,-9.812101813178724541e+00
1.478407427838706809e-02,9.017494328349045032e-03,-9.797677671271227240e+00
-1.938502051810384041e-03,-7.388528082502843208e-03,-9.799413992930423589e+00
2.061472668669802645e-03,2.930317088643974530e-03,-9.796060370668961070e+00
-3.786788924478359233e-04,2.467457832702871657e-03,-9.809474248891762116e+00
-7.894386535613827360e-03,-1.332813504925977298e-03,-9.812636791076293719e+00
1.666834359368579450e-03,-1.501473508816608769e-03,-9.808006198872973869e+00
-2.105310726644228289e-03,6.091541791871594134e-03,-9.801385377996272297e+00
5.037633961382790345e-04,-2.799383302580804502e-03,-9.791242777261933483e+00
3.371703991994316318e-03,4.821675270242650399e-03,-9.789343864972762432e+00
-5.525182821640253240e-04,1.357546139738778168e-04,-9.792041537653529915e+00
-7.700870179100968715e-03,-1.177285755250514392e-03,-9.799824480993731157e+00
-1.590197993337984358e-03,-1.491699066927427986e-04,-9.790165352771269980e+00
-1.039560190468519912e-02,-4.365635394220605467e-03,-9.810513022945032802e+00
-2.899066498796688471e-03,-1.237189222117732494e-03,-9.799194253080594663e+00
-1.079430515682172241e-03,-7.052681884595179106e-03,-9.809758953684161398e+00
7.763679447928565659e-03,-2.315664981296924625e-03,-9.813804530529491643e+00
8.101150153306240637e-03,2.913225975422841538e-04,-9.802737771915051468e+00
6.740234369471247980e-04,-2.859449451755774734e-03,-9.795536922102490607e+00
-8.458671944369234143e-04,-6.773912368838806708e-03,-9.794872809701942629e+00
-3.237519195892463175e-03,8.639559730189743845e-05,-9.799010213454828033e+00
-4.712642776149770715e-03,5.390062506346424143e-03,-9.802400545481203764e+00
-3.049528429725710445e-03,2.708168720250448639e-03,-9.793142728663370988e+00
-1.558908822572375357e-03,-1.075924957393279476e-03,-9.785756243518020980e+00
-9.398194262361729903e-03,-6.055198704803342992e-04,-9.803350168945248910e+00
6.987561323650410064e-03,1.816741151946647077e-03,-9.804704478484042696e+00
2.258058518851443000e-03,2.324598737464554036e-03,-9.792558221435031740e+00
1.104139892650285362e-03,-5.929606291353255350e-03,-9.795625320158748650e+00
5.212235834058843650e-03,-9.838302973096131609e-03,-9.809821152286941626e+00
9.744347455181014833e-03,5.190476391863220115e-03,-9.810562419036109816e+00
6.444010651835348734e-03,7.557362795686926480e-04,-9.800215591636545653e+00
-4.508792474320120688e-03,-1.100486640932393009e-03,-9.789906026553023111e+00
2.878522943649289897e-03,6.216589607457601377e-03,-9.784202122498259158e+00
-1.098606407460285094e-04,-5.051669611864608410e-03,-9.806775100897663577e+00
6.871330855836766836e-04,-3.593714806331277378e-04,-9.813671654978806558e+00
6.721448461142577775e-03,5.699306050062444111e-03,-9.800682331311584505e+00
6.392877958388991366e-03,-1.348798117629326104e-04,-9.793629081844668960e+00
-3.031535729175094569e-03,6.500624865061089587e-03,-9.792630332832267470e+00
-2.861073694373255077e-03,1.674570100579497864e-03,-9.809046284301389917e+00
-1.040635013265177409e-03,7.381126973792730486e-03,-9.807863441619797840e+00
-5.963457056804842213e-03,-7.488543483788675202e-03,-9.817861201960470297e+00
-5.000440587412390307e-04,1.537186577147347610e-04,-9.808096710085871806e+00
-3.140345885304727646e-04,1.146937486828765798e-02,-9.790610242728408963e+00
4.914688192212057424e-03,8.820203502976338081e-03,-9.793574672407407533e+00
4.885882791437105334e-03,4.054768434826360075e-03,-9.802488719772451731e+00
-4.709728200909319394e-03,-1.491274609870715025e-03,-9.803650090492867619e+00
-6.906071098808159092e-04,-1.688905477705083483e-03,-9.814101227286368356e+00
2.488734058943416907e-05,3.096018404433574164e-03,-9.803804699993575511e+00
2.284855098627016409e-03,-1.050036876158606455e-02,-9.788637154643968330e+00
-6.132422909379247472e-03,-1.038298282902580354e-02,-9.797806446502425715e+00
-4.408651632458456676e-03,-3.863969862199647266e-03,-9.807388429870412594e+00
6.450811217104280605e-03,4.769463156145783739e-04,-9.800036658055036654e+00
6.490748752511963510e-03,2.175017686027812909e-04,-9.800356891946963245e+00
-2.865047890668942152e-03,-3.911610722962098434e-03,-9.787506564164637268e+00
2.396387293522522571e-04,7.031180985814271950e-03,-9.798579626445098611e+00
-5.519502917714561160e-04,-8.982602597113557288e-04,-9.795383601370380333e+00
-5.713029062726145135e-03,4.604684079642044209e-03,-9.803747528230680075e+00
3.480864966887634807e-03,1.084346892544099883e-04,-9.798742403647699106e+00
-1.815221638807717770e-03,-2.415837012380470453e-03,-9.799580529869277967e+00
5.259856245731654029e-03,3.900526296192842468e-03,-9.798197025513243119e+00
3.839189544062064294e-03,9.345692422910219926e-03,-9.807629700481170332e+00
-6.257659314330700192e-04,2.773194800528436168e-03,-9.806789329764548313e+00
4.776195406982448400e-04,3.023052093201165580e-05,-9.811330366036848716e+00
7.322650126335260821e-03,-2.421881382141414726e-03,-9.800901348105078625e+00
4.160184601450034672e-03,-3.098199131410994331e-03,-9.803395761524226870e+00
-4.068918072413510445e-03,-4.317408567459559386e-03,-9.806847121682830348e+00
1.199593688043876965e-03,3.482002867511076096e-03,-9.795342759242563702e+00
1.864660213347602794e-03,-4.540490023242018010e-03,-9.782358345831148938e+00
-5.557209611199711387e-05,2.027714454809453459e-03,-9.814698700101873285e+00
-1.122955079658492393e-03,-1.442827269740710495e-03,-9.798900145351430169e+00
4.444090431658943006e-04,-4.767100974958659622e-03,-9.793012756824937881e+00
2.412351041938420697e-03,-2.871434086377606856e-04,-9.805671820213216705e+00
7.019843611925256563e-03,1.684862275969266831e-03,-9.792502230153489862e+00
5.951025280139336619e-03,2.820462177774442879e-03,-9.789586195026858562e+00
2.571427292044195512e-03,-3.816498592499230434e-03,-9.801336548336278653e+00
-3.074447367377686983e-03,7.884544287407035945e-03,-9.807667813310628091e+00
1.057030934531284598e-02,-2.234354006498980689e-04,-9.813217777082712701e+00
7.802478282509438430e-03,-6.395048646843043069e-03,-9.803477827952841395e+00
-2.918389876130213050e-03,-4.485185283478163726e-03,-9.808595376291089352e+00
-8.862400516168838019e-03,2.062930435007916119e-03,-9.797028058336794132e+00
2.067072326443854247e-03,2.061863163394683351e-03,-9.802598338533933031e+00
-5.526168418797672462e-03,4.920960228967201366e-03,-9.794124391323414613e+00
9.377472968276340378e-05,3.862440875279572641e-04,-9.810360712159480912e+00
-4.557042581652266146e-03,3.008626234674082606e-03,-9.812951629416396315e+00
6.057815392100566023e-04,7.696709267151558183e-03,-9.807708245285573057e+00
6.798427273524643155e-03,4.168253263375874297e-03,-9.810982404469498874e+00
5.304858770417958565e-03,-1.441932710324363327e-02,-9.805798394525009343e+00
5.983669068308264914e-03,5.552639183820764872e-03,-9.808357525019607337e+00
-4.397946275767933462e-03,-2.063283240445577035e-03,-9.813094172832830253e+00
4.108387001901996592e-03,1.622268191575064250e-03,-9.812592573526414341e+00
-3.391855028832054409e-03,-3.032158184775294533e-03,-9.813775938935927812e+00
1.314324542878460408e-04,-4.939047032516335339e-03,-9.803993309289261049e+00
1.205292472972166809e-03,2.448782749919375338e-03,-9.795381416003289488e+00
-2.369575184129502510e-03,3.179376337253031742e-03,-9.809463896010470307e+00
6.440798206235053523e-03,-2.961117843689768745e-03,-9.785572877527165758e+00
9.362144587269555229e-03,-6.298046588629873863e-03,-9.810613171670002686e+00
-3.591976670258221083e-03,-3.816595058968789370e-03,-9.790092813765564728e+00
-2.826220453366398190e-03,-5.098943857809955758e-03,-9.818973154796474034e+00
-3.868274517256329020e-03,2.783451065112495411e-03,-9.793433057629540528e+00
3.078700108210217883e-03,-1.692016059010015587e-03,-9.799006723629204885e+00
-2.757491769234553594e-03,-1.257208589367490685e-02,-9.786120837699501251e+00
5.848322009870491993e-03,-3.576960486558538373e-03,-9.795143488565754453e+00
-5.957536215484320746e-03,4.604338662308748130e-03,-9.807773765080703754e+00
-5.340432386631829842e-03,6.615731435549747005e-03,-9.805847835482230934e+00
4.531781672015543390e-03,-2.440093638017669896e-03,-9.800894638837402084e+00
-5.234328818970338491e-03,6.425468932138421289e-03,-9.809193793336531186e+00
-4.553607427618423624e-03,-4.199855726924980014e-03,-9.806667893646482170e+00
6.582884030960010598e-04,3.340726972818131631e-03,-9.798884115981914888e+00
8.310576577598266219e-05,-5.629318018985712650e-03,-9.790495962555585407e+00
-6.357022668922127258e-03,1.523431364722845245e-03,-9.795644773836045260e+00
2.386549447950976188e-03,-3.995186098767363608e-03,-9.814726893938560792e+00
1.059565761391902594e-03,4.807682276092043079e-03,-9.812282286343764426e+00
1.263015137789090612e-03,-7.585287441157851154e-03,-9.806312894869558150e+00
-3.666092313288082678e-03,-2.995731175889207887e-03,-9.793402667130294503e+00
4.714205556369674248e-03,7.390909939736174487e-03,-9.790471393703910508e+00
-6.070294363555913189e-03,5.712048102840206788e-03,-9.812103352690915159e+00
1.008036440724327390e-03,3.237664896729771074e-03,-9.791567557948543055e+00
-1.351457717720161000e-03,2.755395453848804785e-03,-9.816577270709888836e+00
-1.998607550881814350e-04,-1.298445007207911419e-03,-9.803002871980673660e+00
4.054290851362632843e-04,-2.428922860827017766e-03,-9.798149172858401812e+00
-4.329374528800083131e-03,2.190462199565581299e-03,-9.808902879498440086e+00
-1.181984180461100736e-02,7.515627480658053708e-04,-9.803930390404660855e+00
-2.492462769153094815e-04,-5.912232445276819660e-03,-9.788462953994736537e+00
5.578965383039826385e-03,-2.522905862371945755e-03,-9.809765649253090913e+00
3.664481108300577956e-03,-6.836862335451696776e-03,-9.811472832887854878e+00
-1.176583951479811966e-03,4.039367827532855046e-03,-9.801372656151347229e+00
2.746981054502991865e-03,-8.427643290009794244e-03,-9.802994984569945558e+00
4.600607228335030184e-03,1.100508257748837940e-03,-9.797880966032019856e+00
1.808934232395584870e-03,5.705766857269842056e-03,-9.800267852779457556e+00
-5.653392084562815223e-03,-1.225963577554778795e-03,-9.800446004648661003e+00
4.008423504121974741e-03,2.649595394355229276e-03,-9.802246272975537522e+00
-5.242503078139148500e-04,6.337227198660470850e-03,-9.817154503895659801e+00
-2.638750710539012213e-03,-4.141329149970353861e-03,-9.804134293748559159e+00
-3.923636657008902455e-03,-3.896956124382249757e-03,-9.794221228978116756e+00
1.241860264182059487e-03,-3.514505631938662656e-03,-9.793033995218371146e+00
1.954078345144481723e-03,-1.339460963809097039e-04,-9.800289813577141018e+00
1.641146619664036891e-03,-2.962551209801918793e-03,-9.791881920623687563e+00
2.246498366572992431e-03,-1.043509096528845263e-02,-9.798247866796975458e+00
-1.367152524616050855e-03,-8.253275076688762132e-03,-9.807106476814093199e+00
-5.993061247043214058e-03,-2.070045504484102888e-03,-9.802613200554526784e+00
-6.137539440869466817e-03,-7.892610365227717417e-03,-9.789056562168838127e+00
3.527407052380784804e-03,-5.699191125230402589e-04,-9.804398324130410458e+00
1.691591797627137834e-03,-3.080270661241749693e-03,-9.803015011297100401e+00
-7.424880846759011888e-03,-1.560757381544487484e-03,-9.795694553398501370e+00
7.658948945928103482e-04,2.178208991159271465e-03,-9.786052461039126626e+00
-3.015563079137624156e-03,-2.466419374695404121e-03,-9.794464317211955873e+00
8.821875082457335954e-03,2.316241533190914297e-03,-9.807168873602147841e+00
2.620514044261431329e-03,1.590348259300991595e-03,-9.801900257928432225e+00
-5.299897063231070148e-05,1.424180403747105127e-03,-9.812550898492791163e+00
4.879050492317945319e-03,-2.279516219674269429e-04,-9.796925114795540068e+00
-1.211480695991780723e-03,1.044208990460494195e-04,-9.807198070407563861e+00
7.947091464491474674e-03,3.031796510795658605e-03,-9.808291463681918287e+00
-8.065563206571772911e-04,-6.192674814309435645e-04,-9.797060015042111658e+00
-3.053073319230121402e-03,1.002032981852637311e-02,-9.806050412297626195e+00
7.149258639959276893e-03,3.026766800201940479e-03,-9.785984965122136003e+00
-1.137158661586276133e-02,2.743508645965777801e-03,-9.799040345368871030e+00
1.706473331358936618e-03,-2.523771148816493590e-04,-9.797893856609649177e+00
-7.280732664476719570e-04,2.988587813428966993e-03,-9.803009374815001564e+00
1.429579232662939094e-03,1.664754425416928741e-04,-9.797736318215608975e+00
-2.761454497463975821e-03,-2.969451615830780589e-03,-9.803565745662631059e+00
-3.746133209940855947e-03,-4.251419090981748382e-03,-9.814540927472330978e+00
-6.271431040842248908e-04,-3.371394626415868609e-03,-9.812341635730088996e+00
-2.870105772074366211e-03,-1.524053208398359427e-04,-9.783876860610630999e+00
-3.044636178911845278e-03,-5.935604696156179284e-03,-9.818957257585109843e+00
8.077398223061250200e-04,-1.364089236848446858e-03,-9.805089325178458992e+00
2.135632971130740215e-03,-1.455187579212486931e-03,-9.801830673887033996e+00
9.998187130793049961e-04,2.946148924158229539e-03,-9.808832218616485576e+00
2.670608812767130713e-04,5.559503758568034269e-03,-9.792017222112637143e+00
3.729118246190399246e-03,3.157519185839726111e-03,-9.801153311093040443e+00
7.719167137647328300e-03,-5.159965651099098329e-04,-9.793788197821930552e+00
-4.245842992133420229e-03,1.204614476319359855e-02,-9.816420401604093016e+00
7.839089411002081800e-03,6.453108547541431400e-03,-9.793452947275493869e+00
3.406311757709209586e-03,2.432643653397466299e-03,-9.800678939774831733e+00
-5.552997171747104874e-03,-3.748050339307267345e-03,-9.809404756977864182e+00
7.790387005971259040e-04,9.979403384164784591e-03,-9.788698592515968855e+00
-6.743213155878194105e-04,7.987675542136210560e-03,-9.783656021381647250e+00
5.460139190451078657e-03,2.814610409689756454e-03,-9.804598473856039220e+00
4.668278185235505418e-03,1.813922411337469225e-03,-9.805275669510590930e+00
-3.519766767941201642e-03,2.918561064102328118e-03,-9.813033071192798218e+00
5.711721351294847711e-03,-3.109257358013301983e-03,-9.803451955058944733e+00
9.356786333189398347e-04,-1.245313785864433269e-03,-9.802420942685827754e+00
-5.842477807994891914e-03,2.143538968247336862e-03,-9.802158110545811098e+00
-4.613981253093480707e-03,5.146123642568828718e-03,-9.803070339552688139e+00
6.517558155833123867e-03,-1.744181653588479809e-03,-9.806359624169797229e+00
-5.192972591232163614e-03,1.007809672529615575e-04,-9.817446047023699052e+00
6.133504003217597755e-03,-5.928708602205999892e-03,-9.794340506566880933e+00
3.196237751407853250e-03,2.273067546371904026e-03,-9.802396267755044690e+00
5.136822884935976150e-03,9.069713765964064825e-03,-9.798465365705192553e+00
-8.150748961228096879e-04,-2.522069711809354561e-03,-9.807313487068599400e+00
6.054894188417808167e-03,1.515903467998984053e-03,-9.803405568915326995e+00
3.436643840935371761e-03,1.062921583517850883e-02,-9.787074148364217407e+00
-3.301856516036259879e-03,-6.327033987774464789e-03,-9.787602859630361252e+00
1.676505197020758658e-03,-2.569742986618062282e-03,-9.802684992532016750e+00
-3.833576673793751693e-03,-3.882092600268498717e-03,-9.823706291114810085e+00
1.012956683900259310e-03,-1.115512867856323625e-03,-9.796837414828262425e+00
-4.162625446099030638e-03,-1.173141640662719865e-03,-9.802495988460078635e+00
5.204780158639322162e-03,-4.445927960214931564e-03,-9.799835591843082838e+00
1.006612733176323257e-02,4.940873197050076916e-03,-9.802591379388401194e+00
-1.207550542335352785e-03,3.231080644120073574e-03,-9.803976000964471638e+00
-2.689642423488963416e-03,5.525695848370090930e-03,-9.792866349711735197e+00
-8.226664430733117645e-04,2.800605512159244984e-03,-9.806464965596919825e+00
-1.541353844476603526e-03,-5.484266434534077785e-03,-9.822432336352720839e+00
-4.795896271075146176e-04,3.779956518282641636e-04,-9.802558642938564049e+00
-6.048925227771489305e-04,-1.158819262174800918e-03,-9.800080068045380344e+00
2.289332548006393561e-03,-8.093360526922869017e-03,-9.803004098110946529e+00
-7.621102633122177122e-04,1.229128382126052927e-03,-9.795350184443492481e+00
-2.775070302115210594e-03,-2.407678018377270527e-03,-9.808658627679585962e+00
1.229710590709275780e-04,6.935563304792065125e-04,-9.803086128756325124e+00
7.704033467509507557e-03,4.700019864422551492e-03,-9.813869312289194013e+00
3.398304213922731954e-03,4.467723898946960974e-03,-9.805004455883874925e+00
9.018235509747505804e-03,2.167803044761607879e-03,-9.792646681391785179e+00
5.447075238705375785e-03,-2.438233110475047829e-04,-9.802633859881346723e+00
1.795848149057824739e-03,1.927343439424502409e-03,-9.808739186758669959e+00
3.728867679584144026e-03,-3.632019266142037447e-03,-9.794177956413742336e+00
-5.304483758926449924e-03,-1.911950521351844226e-03,-9.801682579767636128e+00
-8.892061178786673549e-04,-4.522079356745352906e-03,-9.815224643885729350e+00
-1.159021346088857235e-02,4.896338570055892327e-03,-9.799713922080371731e+00
-9.515706482867834120e-04,2.913049128579613123e-03,-9.796443881538548837e+00
-3.213186496961945807e-03,-4.156847872133199832e-03,-9.795656540783328481e+00
-2.218169938713154821e-03,-6.810725533924249543e-03,-9.815306227758817670e+00
-5.806994638717056460e-04,9.331250417687154963e-03,-9.803292955272498332e+00
5.502148203440645514e-03,4.869291791458118211e-03,-9.792280053794627293e+00
8.008151106223264371e-03,-1.255136144306618099e-03,-9.792281712592894038e+00
-6.628321521610549411e-03,-1.125390294058216129e-03,-9.812881338990774083e+00
-5.979788854299024521e-03,7.208753288608159109e-03,-9.796523319281009279e+00
3.239782121605727736e-03,-4.984345752131306290e-03,-9.795113710023423792e+00
1.290669509446675965e-03,5.313748841748329975e-04,-9.795884728961166132e+00
7.416121653728985352e-03,6.412296582391286727e-03,-9.793629861121482705e+00
1.278175669711684691e-02,3.100273765112218118e-03,-9.823165498558076081e+00
-2.669383727879214799e-03,-3.373824105146700034e-03,-9.805670625108396266e+00
1.106826736119607968e-03,6.809849409565728318e-03,-9.792786333653392461e+00
1.076294011735188030e-02,3.628414076158056369e-03,-9.814767632242075379e+00
4.757381671924312827e-03,1.081683460860793922e-03,-9.798263893977395611e+00
1.126738115117725993e-04,7.551016952011158079e-03,-9.804683812799956044e+00
4.753787154906481509e-03,-8.456393272664083569e-03,-9.808824224008372283e+00
6.047890792221549856e-03,-2.297365694236106967e-03,-9.790960664894395649e+00
4.551444115448766842e-03,-1.234798933930165684e-03,-9.801335968594576897e+00
-6.151940776256651245e-04,8.071151120430388251e-03,-9.806967665927381006e+00
-3.943940117914247214e-04,1.321871305932703720e-03,-9.815803715208151203e+00
-2.235850072548620053e-03,-1.998586443414590748e-03,-9.797967266497435546e+00
1.247451514135440934e-03,1.935277962859482037e-03,-9.801378854011808528e+00
1.630862870588622743e-03,1.524670816386510582e-03,-9.805567019056510958e+00
8.989386036940720320e-05,-8.460249370701105427e-04,-9.802111200193293072e+00
1.314361645889195601e-02,-3.376940733131833603e-03,-9.786743694251853753e+00
-5.152625638533388577e-04,5.113570854129014485e-03,-9.792122144452712007e+00
-1.034262854678099502e-02,4.092775364361419393e-03,-9.801551252498141409e+00
4.776689780294818104e-03,-4.528006383160098486e-03,-9.814817023638035209e+00
-2.399972572805739689e-03,2.051729039187930211e-03,-9.798981630794855846e+00
-2.675841292355174341e-04,-1.259475268145414731e-02,-9.818309988291600732e+00
2.729984070081066787e-03,-4.215752460915276126e-03,-9.789429325089804124e+00
-4.853450317032073809e-03,-6.231205488384431064e-03,-9.788970651881381713e+00
-3.503568173240697702e-03,4.066601533603200237e-03,-9.802467048189679844e+00
6.159039321961683709e-03,5.732245537652280731e-03,-9.807989270727746955e+00
-7.138824488651386059e-03,-7.195323417935228956e-03,-9.800398596814448027e+00
-3.260754716852975240e-03,-6.867120481412337940e-03,-9.800472901869577314e+00
1.655883231439444353e-03,3.898578012360698602e-03,-9.809337784700064233e+00
-3.358268387842651957e-04,5.327095805134776998e-04,-9.817370164629211970e+00
3.525809505775480499e-03,1.053668997380096360e-02,-9.816342729305322479e+00
-9.111706800170774057e-03,-2.220071103979449401e-04,-9.788209309210635922e+00
3.601346204555456836e-04,1.483706119880478808e-03,-9.801763276512536649e+00
2.699593466786204005e-03,-1.068156170083807768e-02,-9.794485989190430786e+00
-1.266004466367506073e-03,4.391676645337712695e-03,-9.806238571075731159e+00
-3.489551240285436971e-03,3.168658843692466129e-03,-9.814088345708841032e+00
6.166425514703555502e-03,-5.402968700876999847e-03,-9.801199915804231111e+00
3.989682589750910904e-03,4.535264710048550994e-03,-9.794923696120019230e+00
5.377140248390586616e-03,-3.001454968579226126e-03,-9.802895318558736193e+00
-5.520919662259523263e-03,8.750353530304526631e-03,-9.815270559223606028e+00
-3.179687832473362431e-03,-1.489175581773726767e-03,-9.818422790941019329e+00
5.827333864342555507e-03,-6.640957137811734530e-03,-9.789823450239252267e+00
-3.071545346340221437e-03,4.316862986533370923e-03,-9.805417499807246529e+00
-3.607662557478349269e-03,1.550150428587566617e-03,-9.798856227639507921e+00
2.029627897418657609e-03,3.806096773389475423e-03,-9.802947986129229463e+00
-3.401080146104492989e-03,-2.966047073727532193e-03,-9.807936219545624112e+00
-2.369353190954312949e-03,9.322792045263417898e-03,-9.792849657547453290e+00
6.179786923741192525e-03,-2.010394773148484453e-03,-9.814491349247527197e+00
-8.449342496602852901e-03,-1.390742445183795739e-04,-9.803074547898191327e+00
4.804400272174881928e-03,3.437081661508295440e-03,-9.789990572535655744e+00
2.228522142591154737e-03,8.357178354369210888e-03,-9.813230850464771393e+00
5.952341192407967913e-03,4.907889591781643135e-03,-9.812372207869749730e+00
2.855790269491129043e-03,-2.581625426491088691e-03,-9.803459915152163973e+00
4.544242810513182164e-04,-2.315592082702337597e-03,-9.789632980894019454e+00
-1.003837949558729868e-02,3.739866433088799309e-03,-9.809500823590614260e+00
-4.421881318516891583e-03,3.131778149479146067e-03,-9.789646641543356509e+00
1.171078121339415648e-02,-4.483482096096226902e-03,-9.796945907135299336e+00
4.172141683906980397e-03,2.188117382406670405e-03,-9.820443743350876886e+00
-6.918867935899341735e-04,-7.282811229995193175e-03,-9.810603106019076591e+00
-4.953715502069404308e-04,-1.803807170561282699e-03,-9.799549248014852054e+00
4.585438083034999723e-03,-9.606394751130127585e-03,-9.790605235895643688e+00
9.142413608997190355e-05,-6.263120250085273295e-03,-9.809133642968539846e+00
-5.655796819710454289e-03,-5.608310036229391914e-03,-9.793844496261510102e+00
-4.158001204760931012e-03,4.435084076718656329e-03,-9.792478891233910687e+00
8.905182431172925473e-04,2.022961549905433025e-03,-9.802518673311460873e+00
-3.057804233434405390e-03,-3.687835268867258737e-03,-9.806667364533174336e+00
-3.510618514252478346e-03,2.638889851883857024e-03,-9.803151273608985861e+00
2.849638922201459118e-03,-2.380548262160832665e-03,-9.817032837620327967e+00
2.431197980028173590e-03,5.736454766443246098e-04,-9.807129829135183385e+00
3.307921117429350223e-03,8.013078020498141246e-03,-9.792510475469232034e+00
8.290943148411421444e-04,-1.330394727033961722e-04,-9.819524566553033296e+00
-5.179719680071641092e-04,1.139403035987958043e-02,-9.798000025859355588e+00
-8.174489227776969222e-03,2.214945285070293608e-03,-9.803876102808708026e+00
-3.255351624186728424e-03,-3.731287030330438046e-03,-9.790136573745400028e+00
-8.928669507313087561e-04,-5.025378652967490457e-03,-9.802032184028314887e+00
3.217224381975258580e-03,-1.013341783264817136e-02,-9.802131279606394187e+00
6.862682430607417935e-03,2.688465579686785678e-03,-9.808986170379526470e+00
5.407999254483274870e-03,1.007667634161734348e-02,-9.805509150332337498e+00
3.709479127958823994e-03,-1.861154716822118870e-03,-9.791521570425629761e+00
7.657933419878046842e-03,1.282333841129273304e-03,-9.786563671593357938e+00
2.022677117700145705e-03,1.493427789554488492e-03,-9.804696629266006269e+00
-2.416877282560989364e-03,-7.224857434215035783e-03,-9.799005796242054700e+00
-1.433393141225155739e-04,-8.277470465808062575e-03,-9.791759187399401654e+00
1.784885678192834843e-04,-1.604933952373173824e-03,-9.801609245111428947e+00
-1.848506036145248230e-03,-6.202447485961120992e-03,-9.793676129729117719e+00
3.426772812641139514e-03,5.064758264546028246e-03,-9.789092463065360405e+00
-5.750696620749334333e-03,8.849780032614834461e-04,-9.805005152029204751e+00
5.580868650456515152e-03,-1.114498841157160643e-02,-9.798385028358604032e+00
-1.439509045903040541e-03,2.699042216124128164e-03,-9.792957774115301106e+00
4.461793887371029443e-03,1.216256973719581505e-03,-9.804367378982272285e+00
-8.144872438675490947e-03,-2.496685573218337603e-03,-9.813483525854843847e+00
4.105867443293508695e-03,7.907942654787141444e-04,-9.810481132162957252e+00
1.986817663902057992e-03,-8.218957096881774780e-04,-9.790566708813267738e+00
6.048586804312134149e-03,1.254780421162261144e-03,-9.796692033271861888e+00
-4.273688803674406851e-03,1.005335544420193558e-02,-9.824928694183139299e+00
-5.760874716037076666e-04,3.759603672119458430e-03,-9.798538238385937404e+00
4.612641746967365898e-04,-3.987305373951820914e-03,-9.809468440506201148e+00
5.660713642090530210e-04,-4.966229157898456419e-03,-9.804815166082740063e+00
9.947742052518273887e-04,1.678907318483757911e-03,-9.802925270158700854e+00
2.758954154406007605e-03,-8.049420633913912087e-04,-9.810222093564467727e+00
4.003409713435712725e-03,2.546425955811907650e-03,-9.797117486184388824e+00
-5.484279390153245755e-04,-1.849334686053231156e-03,-9.784578312326605243e+00
-1.903214617950630414e-03,-1.304192039805653590e-03,-9.808649477904269887e+00
1.519807795415686847e-03,-1.033429031878914731e-02,-9.793297460629460716e+00
-1.296336196417322657e-03,1.685302300496492774e-03,-9.797885581137302680e+00
7.939759247377787968e-04,-7.706067123827305652e-04,-9.801653709290793159e+00
7.235395913383451923e-04,4.325167845244468588e-03,-9.806138647538480413e+00
-1.130755694597390237e-03,1.013709107972682235e-03,-9.797758263913168619e+00
-1.263111045980283955e-03,-5.073986499946343820e-03,-9.800254954410627661e+00
1.228111163468119556e-02,2.137203331252664901e-03,-9.797396183817438597e+00
2.770067674707429439e-03,-7.199083088780230998e-04,-9.819558917401744580e+00
9.935069204891190317e-03,-1.198497649746353049e-03,-9.795551559356642457e+00
6.109769582806015174e-04,-1.273372060284221779e-04,-9.802823628033218384e+00
-4.772372991642613062e-03,1.397611971867793483e-03,-9.792809178453570240e+00
-8.532048692060711231e-03,-8.461682777567811238e-04,-9.810564949013116376e+00
-1.095531838731019815e-03,-3.585615986124059910e-03,-9.797089208509666136e+00
-1.234857881321849496e-03,2.519112974064985355e-03,-9.799594126549555639e+00
-1.095099010264905665e-03,-1.375577177872490181e-03,-9.799523689617011257e+00
5.947883592252145926e-03,-3.922628037645104100e-03,-9.804745228674674351e+00
-1.751218443009760085e-03,-3.064882341310413202e-03,-9.792351587286539427e+00
2.906847412553877508e-03,2.426237766909446029e-03,-9.813503490769388549e+00
-1.772959764652896507e-03,-8.801355547407756566e-03,-9.800060127999563164e+00
-4.668678653808143583e-04,-9.865660228864754026e-04,-9.798936907637628480e+00
-2.623407173031895145e-03,-3.944841869561638986e-03,-9.794150087514015723e+00
-1.855813724996198052e-03,8.979566175163520431e-03,-9.801078568124420798e+00
-9.313524628415621731e-03,-7.086183964345755398e-03,-9.793511511400696534e+00
-1.737182977965985847e-03,6.675732109614639607e-03,-9.812028947211821617e+00
2.845616450376020363e-03,-1.127103151713878453e-04,-9.808185098425752813e+00
2.058696774836567787e-03,-2.576139766027862529e-03,-9.794524616360618552e+00
8.850124437129404734e-03,9.868472200127121566e-04,-9.790563282129665978e+00
-6.138398153443611754e-03,-6.888598243341604796e-03,-9.809832627841071684e+00
5.666111727282509107e-03,-1.883184406176032681e-03,-9.794168725610454374e+00
-1.226445925100938831e-03,-3.462347645475341747e-03,-9.789863404918936141e+00
4.201116559309116781e-03,9.892725616530376881e-03,-9.794713836860047707e+00
5.285258502429239849e-04,4.105753907258894060e-03,-9.812317884175994820e+00
2.827805110877317386e-03,5.954267703937676445e-03,-9.808408659693402143e+00
-1.347929840584809538e-03,-7.449963679901779393e-03,-9.789671121179710056e+00
1.118969582319080149e-03,-1.000546239580483651e-03,-9.800712477481994256e+00
-3.819682479892435602e-04,2.227072458507354993e-03,-9.796558331684245502e+00
4.147943113303613309e-03,-7.464712542642641191e-04,-9.805347716161174176e+00
2.199631893538599517e-03,-2.588111099881848596e-03,-9.785963000504443343e+00
5.249530666651318865e-03,-1.117208193552743888e-03,-9.796468767198817318e+00
-5.781424928225495884e-03,3.578942055524118177e-03,-9.802121996656444125e+00
1.724745880722471049e-03,5.914273388581836252e-03,-9.808274905229765750e+00
-5.129978740407328645e-03,-5.231235337070628232e-03,-9.807753689920245321e+00
2.961626067322288558e-03,5.929134349527705357e-03,-9.795439053962651244e+00
3.713458983520526082e-03,2.992423946812199087e-03,-9.790713715062732803e+00
-2.661422790407023020e-04,6.319724291125448055e-03,-9.793393349300021811e+00
1.264753883224266524e-02,-1.081456404352269286e-02,-9.802475521214674359e+00
7.267059440900468237e-04,-4.711565554070702537e-03,-9.814205092236161221e+00
-1.567804146404796822e-03,-5.132667079809167567e-03,-9.795409552500380812e+00
-4.878765602540250193e-04,-1.020092543880016418e-02,-9.787909653539442090e+00
-2.072046579520602210e-03,7.984322370097921354e-03,-9.802283863899805993e+00
-7.921266114877902054e-03,-9.734483204579329543e-03,-9.799311354443290156e+00
-4.537970163216902345e-03,2.839831218632328513e-03,-9.797192648026017636e+00
-9.779450607132565004e-04,3.588586161377619547e-03,-9.803358951418061906e+00
3.386145169195880090e-03,1.262164302991498671e-04,-9.806549180909476249e+00
4.610260917258029653e-03,-4.413984000951295603e-03,-9.808467936960109768e+00
2.112828127935098901e-03,4.665184944955574030e-03,-9.792444604293477184e+00
6.424637239689903745e-03,2.574370398782449207e-03,-9.823401918932393784e+00
8.660572829414259557e-03,-1.668698124966289413e-03,-9.799133063906298347e+00
-3.790657504541177728e-03,6.123824516587828871e-03,-9.811470047845697096e+00
-1.928666196099149393e-03,-3.066546475672929286e-03,-9.794944843130426904e+00
-2.628544165121152448e-03,-7.432607559487868941e-04,-9.808649959829121912e+00
-6.888087462959591005e-03,3.391251022761487756e-04,-9.789122838213614841e+00
1.927601112241115197e-03,2.229716736793824379e-03,-9.801679871022935586e+00
3.678288176880996439e-03,-5.881308277046669482e-03,-9.800923050794196456e+00
-6.514038031451769347e-04,1.091384863344365601e-04,-9.802353882997801193e+00
-2.609718642222007366e-03,5.475997149233301307e-04,-9.797743298503707621e+00
6.252650074486112812e-03,-2.606315396788735656e-03,-9.807604880129995095e+00
2.517045455819173728e-04,6.963543772249920251e-03,-9.804325273080445768e+00
2.626052235918934375e-03,7.234484317781901715e-03,-9.788710990650473676e+00
2.619827498414285458e-03,-7.749842132638131223e-03,-9.806830873235938384e+00
-5.161544773692019854e-03,-1.681052163636961340e-03,-9.804833284187761677e+00
-1.563191302094950634e-03,1.445110718305100614e-03,-9.806825412332674574e+00
-9.584551892271829521e-03,2.735435186509466762e-03,-9.808127176757054144e+00
3.378181853142734909e-03,-7.048374295487384172e-03,-9.792243957929240850e+00
-1.730077568103467918e-03,2.061556246350271324e-03,-9.808274883778983266e+00
5.136732386149471530e-03,5.181524902100607607e-03,-9.790533210349794402e+00
5.557662043570967686e-03,-6.811477453710181214e-03,-9.794771167900675479e+00
-4.356756096883511453e-03,-3.097572894752614707e-03,-9.809063919635308437e+00
-5.341243406372085147e-03,-1.578079991955989435e-04,-9.795324098028672211e+00
-1.401486479424805375e-03,2.583488363605299727e-04,-9.795189984665015004e+00
2.097261991767263370e-03,-1.928929574878463155e-04,-9.801615689896712169e+00
1.620355323914957803e-05,4.849497752755707082e-03,-9.791775184538954235e+00
-3.110792362898375223e-03,9.360244348082094601e-03,-9.808545953221978309e+00
-3.264874161765635250e-03,3.934633779610330166e-03,-9.792343253952264348e+00
-6.579785892424782831e-03,1.667851083497296025e-03,-9.807450098130864546e+00
-2.188559401009828719e-03,5.219188746601917915e-03,-9.807714210930262411e+00
-3.168203099763188240e-03,-2.163953740697801848e-03,-9.789365924438964583e+00
-5.604496753517890922e-03,2.596068760765415928e-03,-9.781453300986433064e+00
1.954460679310621955e-04,-1.763514758001250840e-03,-9.784174219586159182e+00
-9.769137125882130027e-03,-8.948348612095832419e-03,-9.811921913677490892e+00
3.373286274927415982e-03,-2.567771043284300891e-04,-9.809089878599463574e+00
4.433179027447496298e-03,-6.066086362683277555e-03,-9.797426463720535494e+00
5.246917748295223775e-03,5.283727251921345111e-03,-9.805116365719706906e+00
-6.675954419308010842e-04,9.462994386844625089e-04,-9.802166539994878747e+00
-7.605394865156020739e-04,7.576006041117108562e-03,-9.804605384490917785e+00
-6.565548856901020670e-03,4.649173639164909735e-03,-9.816329212287097761e+00
-5.984317485306944219e-04,3.427440615563852409e-03,-9.791801969556670926e+00
1.615216224117451858e-03,-5.716886856090059969e-03,-9.796495434915055256e+00
-2.299675467892493136e-03,-3.210652309011719462e-03,-9.818906093450387118e+00
-5.326087015579241205e-03,-3.968995237990310954e-03,-9.804651029259867201e+00
-1.096303420162932085e-03,6.250327943765999344e-03,-9.805622335979737869e+00
3.423954691147713166e-03,-6.798667046591452476e-03,-9.810354429172717161e+00
-2.208720625786184978e-04,-1.848300794029955488e-04,-9.804186400735037665e+00
5.543364839408706883e-03,1.104560382878688263e-03,-9.798250058208012092e+00
-4.614731015621622440e-03,-3.349931854503383852e-03,-9.810996009009016916e+00
-7.870787890431539882e-03,-6.843072187099306924e-03,-9.812932183692067767e+00
-2.539587269516592472e-03,-4.796678712934053339e-03,-9.814987032655116295e+00
1.019701459193963480e-03,-4.230761311377193761e-04,-9.809904243978627036e+00
1.220143457783362626e-05,4.542856728480214150e-03,-9.804209797833966178e+00
-4.453145373328011233e-03,-2.526254733175954757e-03,-9.818067780212816231e+00
-3.187084718731200174e-03,-5.056787455797425931e-03,-9.794876216962952853e+00
6.878611938691004887e-03,-4.023744612601493943e-03,-9.789668827716326405e+00
-6.991950080942572338e-03,1.764038888993085417e-03,-9.797234836680567938e+00
-1.581668455073014477e-03,-2.438669989076313552e-03,-9.809371193003507017e+00
4.691245515985497522e-03,-2.898619133215873511e-03,-9.797693867816940738e+00
-1.036371781843290754e-03,6.143218024938628188e-03,-9.793770548446554258e+00
-6.816637433429237336e-03,1.766463204197338526e-03,-9.802931475926463634e+00
3.715824213390937249e-03,6.482335794986843376e-03,-9.806740985756045248e+00
-3.465331873477722757e-03,9.898829372410988380e-04,-9.793853805233450061e+00
-7.163541040216589439e-03,7.292992399686210221e-03,-9.801611239399690589e+00
-8.034695816827516768e-03,5.514671377103787285e-04,-9.801603456726356356e+00
6.631103819840271363e-03,4.578714074562169160e-03,-9.793432807831292664e+00
3.316646495316143486e-03,-1.232682533283075560e-02,-9.805552917690755876e+00
-8.906262513580809684e-03,-2.881435853719691628e-03,-9.804254735288981948e+00
-9.546423425939627597e-04,4.054123367920109931e-03,-9.805807086023595076e+00
3.956973573229973927e-04,1.904351856172578888e-03,-9.785862843819423063e+00
1.308679664613502693e-02,-5.435090864477312711e-03,-9.806845716622978770e+00
4.509802746800808081e-03,-5.217146763014765716e-03,-9.827262742990683364e+00
-6.890575481471551342e-04,1.206292055987789793e-03,-9.797070580687449848e+00
-5.472340173569152123e-03,6.783102319749815222e-03,-9.795585409694995249e+00
-2.031135682446021454e-03,-9.573961926686877164e-03,-9.804651406678161152e+00
-3.310730545581620689e-03,2.065126332470875511e-03,-9.798216157595463827e+00
-1.322931437740472622e-03,-3.516075297429229699e-03,-9.803969885284461228e+00
1.113102135812055107e-03,-7.804424343932640958e-03,-9.811079783129059706e+00
-3.553803794144815790e-03,-8.852367760810050251e-03,-9.800166151626681810e+00
-2.719839169748004219e-03,2.972022473582335510e-04,-9.794857031946767378e+00
-1.741809060258372056e-03,-2.354188000194304756e-03,-9.799102503599083747e+00
-8.867576947889074801e-03,-9.157801964214297083e-03,-9.800112012358367153e+00
-6.928588712185335292e-03,-5.532602660649952458e-03,-9.808588152155094164e+00
-7.467898422020819273e-04,3.446332738302176207e-03,-9.798402946572483785e+00
2.452004270937601163e-03,2.905206344698877969e-03,-9.802554491897533140e+00
-1.807265982075837276e-03,3.400200882154085814e-03,-9.807325803176620838e+00
-1.884722275809895455e-03,-1.675698560539784065e-03,-9.796049834510716536e+00
1.232162911498731065e-03,6.282405903379181811e-03,-9.788839303206778197e+00
-4.038544213220340504e-03,-3.057965114919188043e-03,-9.806486988426215134e+00
7.898248551213779556e-03,6.069632342091036857e-04,-9.806523035853659920e+00
-8.834866145995795561e-03,-9.405753583977100388e-03,-9.803304943955339468e+00
7.627103533274900461e-03,-6.020075363727189592e-03,-9.795110732080093641e+00
-3.885467666819745342e-03,-9.559774293496114614e-03,-9.803679328013144456e+00
4.379579165960584448e-03,-3.773561700027054048e-03,-9.793454479569133397e+00
-8.657529609449619856e-03,2.591313021855708686e-03,-9.791457214599150305e+00
-3.510369721639182601e-03,-5.654486494455670219e-03,-9.794020675497966621e+00
2.307609475070215767e-03,-3.758708031598926962e-03,-9.813308311522492389e+00
4.900788346518772549e-03,-6.249764258216076659e-03,-9.796661462416496491e+00
-2.912457198279679808e-03,6.924919052850686367e-03,-9.797739064599316094e+00
5.295128810063646878e-03,8.983121964893862887e-03,-9.807542820972049213e+00
-2.050756431560935358e-03,8.415548404723607184e-03,-9.795140496750743608e+00
3.918779528233877485e-03,-5.614116718294002127e-04,-9.799968187670161868e+00
1.148874712455369082e-02,2.366520337233988993e-03,-9.810037039982816509e+00
-1.422883335752015820e-03,4.493692580654623102e-04,-9.803146657771522499e+00
4.146677663875014512e-03,4.271314600282947495e-03,-9.822134655300303052e+00
-2.753191445700024949e-03,2.020202802558620711e-03,-9.794139256403957106e+00
1.645249393173590794e-03,6.395903155752009038e-03,-9.803379030737133348e+00
7.141362767411530863e-05,-3.218516387178678700e-03,-9.787809348098607032e+00
-2.763289160172707499e-03,3.671032915597027737e-03,-9.797354754766468332e+00
1.585178710784783482e-03,-2.162647420586680681e-03,-9.799798304358780854e+00
6.744512607588358348e-03,-5.091197192526705079e-03,-9.808850972232589172e+00
7.159400998364618199e-03,-1.457451975370452346e-02,-9.812518766193838005e+00
-2.294521973772373007e-04,-6.182129062544152766e-03,-9.803660738467863567e+00
1.177573981175537637e-03,5.794165384363327183e-03,-9.798411054938412690e+00
-2.277694466493465197e-03,-3.719612405335627654e-03,-9.811131778804604409e+00
7.074292271151048916e-03,1.120313685635085008e-04,-9.798950849044430811e+00
6.333635745210134706e-03,-6.414578826526662857e-03,-9.804826785455345473e+00
-8.387283765726485625e-04,-2.979392061367542102e-03,-9.803710835161666637e+00
-1.837562812238368410e-03,4.336708794659019026e-03,-9.797506201081590760e+00
2.431277751769637778e-03,2.570822813174999943e-03,-9.791371982869664592e+00
1.064702542575880897e-04,9.140939196247433720e-04,-9.815193786216019234e+00
5.728279535187164734e-03,8.363075793891413742e-03,-9.811754307551010967e+00
1.165598861409706394e-02,1.484029704678929348e-03,-9.806330092694174994e+00
8.947724223852288050e-03,-3.842375037713150832e-04,-9.796164486298465590e+00
-2.811419937650973364e-04,-1.407322298132936654e-03,-9.787880670335480815e+00
2.059491598782151999e-03,-1.247713720523080903e-02,-9.810329335903270831e+00
-8.691661306662037609e-03,3.897750727035680530e-03,-9.805281694990174657e+00
-8.114184343036167160e-03,-4.791660832461114468e-03,-9.799302599568589400e+00
-5.677382162027302080e-03,5.078727529531879177e-03,-9.814060492899187693e+00
5.968607840870487078e-04,-7.521958542740544811e-04,-9.797734865923324321e+00
5.133771140262857399e-03,-1.258704868545016363e-02,-9.794788260487651499e+00
5.525848985337276920e-03,-1.930975942303638252e-03,-9.798697989825598142e+00
6.768220132832772698e-03,-7.460392858071810372e-03,-9.801779332392108302e+00
-5.628581501018679357e-03,8.423443533936837528e-04,-9.802322903177783431e+00
2.088495290626383365e-04,-8.753601689310160615e-05,-9.799885886857220285e+00
-4.785630095908004222e-04,1.662222878405080970e-03,-9.799355972419238725e+00
-8.728249661582164476e-03,-2.436941090074410364e-03,-9.808842266676055743e+00
-4.903436660700086387e-03,-1.768886307026744419e-03,-9.791729927088983487e+00
-1.860449614103028976e-03,2.865987335545771685e-03,-9.807973911323408345e+00
-2.846700930068116024e-03,-2.024224105154427949e-03,-9.804631359724440998e+00
-2.693594808303766044e-03,2.590390529242227440e-03,-9.805362670299647476e+00
-5.462131875335573400e-03,-7.693273490184905292e-03,-9.809573213280321724e+00
-1.146051842799074814e-03,3.112191909453618580e-03,-9.805065114110950830e+00
-4.350937477447414103e-03,-1.072046089042658990e-03,-9.797725744317487440e+00
9.418964244223650140e-03,-2.246300291618889746e-03,-9.816880283644470850e+00
-5.748719536035349145e-03,-6.132260210158421536e-03,-9.799898162197571594e+00
-3.586935912536079549e-03,8.073015044786562922e-04,-9.796397791473179240e+00
-5.362185096516921406e-04,4.139339398908004411e-03,-9.798560475074955534e+00
-4.818083538209355469e-03,-3.858773929179106291e-03,-9.813649709285892087e+00
1.412497505076336412e-03,-7.010173092234611193e-03,-9.811912304964774734e+00
1.772149538425017668e-03,5.807909550300922007e-03,-9.800865633597112492e+00
-4.271565478032477922e-03,1.135933584977083695e-03,-9.810335501037272365e+00
-1.304627130154031043e-03,2.931882987569949667e-03,-9.800853208200383193e+00
4.274830517477248848e-03,-2.953626299454411349e-03,-9.795699573758668066e+00
1.413183264934188017e-03,3.550829432947771955e-03,-9.808699011202280715e+00
-3.284016003494327502e-03,-2.756980769113770088e-03,-9.802995894350615913e+00
-3.393865382477337378e-03,6.028438301076769097e-03,-9.814947487742855969e+00
6.268170635906360113e-04,-5.221760228909688717e-03,-9.794994123970383271e+00
-1.469115137610427892e-05,2.842460950273346335e-03,-9.798997660557427380e+00
2.409823995341780090e-03,-4.946658387519325267e-03,-9.814122368355679527e+00
-1.020384281667555994e-02,1.984371188466954627e-04,-9.798606395769505539e+00
-3.415409326084991801e-03,-1.575425917328875276e-03,-9.805593789798759730e+00
-4.716834078860184486e-03,2.088054326819627562e-03,-9.804343984674279255e+00
-1.212222610184639747e-02,-8.312513283504654321e-03,-9.802556751087498910e+00
-1.471892288558605648e-03,2.947909744561281412e-03,-9.811856367851939709e+00
2.591117334742058711e-03,-2.251351185822746473e-03,-9.803511170784934947e+00
1.435830051969069808e-03,5.450611108939944043e-03,-9.801745332093366514e+00
5.832747193940518264e-03,1.197313914293390846e-02,-9.802415035540736454e+00
7.449224555178545447e-03,-2.254531834522696763e-03,-9.804859194238433773e+00
-8.391345007274711790e-03,-7.808514528846627854e-03,-9.797851798736385120e+00
-1.100619471919111851e-02,1.675110161433266765e-03,-9.804104817845367137e+00
-6.692858275056430420e-04,-3.787590363812887769e-03,-9.791063963307681917e+00
-4.476654717484008020e-03,2.343524221192331853e-03,-9.801512989545685173e+00
-4.136518847813088449e-03,-1.047042306509790750e-02,-9.789739165662274090e+00
-5.263160049641651267e-03,1.071794265881047085e-02,-9.793439336304299303e+00
3.280301548895919826e-03,2.035850098713029577e-03,-9.799778010374954107e+00
2.742382731026835226e-03,8.244882495454553288e-04,-9.796803873265618634e+00
-6.163211489304547437e-03,-6.034521863779186354e-03,-9.798055760020265126e+00
-3.405236503212086437e-03,-5.943440237554912728e-03,-9.790639375437347525e+00
8.503951552013958894e-04,-3.544126047429940925e-03,-9.821377414206041934e+00
-4.118990985095417998e-04,-1.083646805669876388e-02,-9.794016812770498959e+00
1.411680788627959170e-03,3.310157506720522841e-04,-9.801213209985753849e+00
4.961024005304221982e-03,-5.054829145821638885e-03,-9.817381367767140432e+00
-4.664247810454501958e-03,1.635357124807891062e-03,-9.802531141621049215e+00
-5.488643951738923429e-03,1.465225346366328101e-03,-9.803219161790988068e+00
-1.284630833627306654e-03,2.701332073143376637e-04,-9.796629595548779434e+00
1.931561267873567120e-03,-3.486906294077914917e-03,-9.810222620730121079e+00
7.717938763449939260e-03,-7.290927586088251713e-03,-9.800574405214470985e+00
-1.732069709108228226e-03,1.760637574796738644e-03,-9.803970032304549775e+00
-2.766294869261052333e-03,-5.084998774724574719e-03,-9.806956048648421742e+00
-4.885879922549892472e-03,-6.878837702358717686e-03,-9.800364983079441927e+00
1.215775772845987569e-02,1.491864691846423114e-03,-9.812753703384826665e+00
2.421223036562528737e-03,9.177230928080910496e-03,-9.790792168605994661e+00
8.349170419115502229e-03,-1.801687862543581865e-03,-9.819006755883247450e+00
4.492498763782624971e-03,-1.663384675472341645e-03,-9.805249028053887983e+00
-7.687981643016672875e-03,7.043451734573928646e-03,-9.801625669102199012e+00
-1.652472170474379720e-03,5.865088896671705708e-03,-9.795265240916981142e+00
3.297638836446792777e-03,-1.622052315639211945e-03,-9.790229941630720134e+00
9.593827797095425339e-04,-8.154976884592735412e-03,-9.800935680305196129e+00
3.413919074981985966e-03,-3.781877352298354446e-03,-9.804085785128506814e+00
-3.374135718497234260e-03,-2.700394029777943624e-03,-9.799573977874494801e+00
-4.710853895848194327e-03,5.643661147555639919e-03,-9.797237375394210801e+00
-1.551037953838189107e-03,1.550962481295365238e-03,-9.807413015464426564e+00
2.552540549172806466e-03,9.424036557942396279e-04,-9.814589364177836117e+00
-2.836363930679735267e-03,5.207239898303647405e-03,-9.810472248296859377e+00
-1.147351425128468987e-02,9.872318085867661658e-03,-9.800404088635193744e+00
1.053591411178746509e-02,-7.673398754971711561e-03,-9.795952797018625091e+00
7.335724287940024319e-03,3.091522463193933055e-03,-9.792901702039578993e+00
-2.775778806509174995e-03,-2.945630367382064737e-03,-9.806804169040136188e+00
-5.072165121005750565e-04,-1.653345297048529729e-03,-9.805837430284853440e+00
9.513720265380922782e-04,1.564305375648597941e-03,-9.819535567636984652e+00
5.193542990779031511e-03,2.005935698238881567e-03,-9.800727345668974522e+00
-3.596101574328592048e-03,3.221880622030458708e-03,-9.809870851926884683e+00
-8.753377373930540731e-03,-4.749067972561186145e-03,-9.805365061481756683e+00
1.784021678658191928e-03,1.814990088375691797e-03,-9.822095448147541319e+00
-6.263615200896191330e-03,2.027295013478304549e-03,-9.805927216648287370e+00
-2.177060208994906643e-03,-4.121828665525762011e-04,-9.798059116720367001e+00
-3.588827792820212855e-03,-9.137229543463461483e-04,-9.795181078611705061e+00
2.070742582754877756e-03,-7.695626711304493286e-03,-9.797673485959007778e+00
3.458392513177365856e-03,3.998784044093443867e-04,-9.812203213499680388e+00
2.368389715839208914e-03,-7.624355876088677059e-04,-9.790319689833866690e+00
-5.498863155685477198e-03,-1.154784699157307198e-03,-9.811526260610834882e+00
1.720684602966071706e-03,6.700974303710780650e-03,-9.802525044821917888e+00
9.590505888695737696e-03,-2.945785155864349015e-03,-9.813026274162096385e+00
8.477252022309388286e-04,-6.893067112581112953e-03,-9.794762719250902805e+00
4.922286729305897467e-03,3.424913370559350481e-03,-9.796964421435037096e+00
-1.102252321657610449e-03,-6.572546474035339051e-04,-9.801574209345595534e+00
3.596665110450141629e-04,-5.161483394485469160e-03,-9.805653587644757252e+00
9.291888230951055039e-03,-8.783013215415488503e-03,-9.803938767505000484e+00
4.647749726759330298e-03,-2.076458965702507754e-03,-9.804521902423587676e+00
7.531044117395855329e-05,-5.455759716735047527e-04,-9.796448381310479903e+00
-3.161531206451518618e-04,4.442054457154316106e-03,-9.794544018525462192e+00
-1.737511639671724404e-03,-1.597420617073555451e-03,-9.798265235002901363e+00
-1.105199422137767909e-02,3.388156036432509594e-03,-9.812582676019907524e+00
-7.773285652405983407e-04,-9.295075895781071363e-04,-9.801295004946831924e+00
7.296347673605441293e-03,-8.171085765873780868e-03,-9.794467615990203768e+00
-6.439035635972774514e-03,-5.540358775426223667e-03,-9.799269999611489368e+00
6.756172237823691688e-03,4.801708971358903920e-03,-9.812956249269420894e+00
-8.194980958242534946e-03,7.545086083691436921e-03,-9.802379273985721397e+00
6.354061131885464613e-03,-3.066148212423808780e-04,-9.798218756683684916e+00
-1.684933933667027593e-03,4.207279701665357294e-03,-9.802199476375603737e+00
5.922830530537623837e-03,1.025400104063048774e-04,-9.797091356909408688e+00
4.564752730350720052e-03,5.792068592474870287e-05,-9.814417763625980839e+00
-7.940295940786521595e-03,-8.195144763743738951e-04,-9.807167759702888787e+00
7.187121611454492381e-04,-5.068399342797222373e-03,-9.793358959736076841e+00
-3.667672597265206769e-03,6.231393369269686011e-03,-9.798906560884223182e+00
-1.250782767911700569e-03,1.006605734850554539e-02,-9.797339677922822787e+00
-5.903264160939467563e-03,1.087694078353422002e-02,-9.791894159665059050e+00
5.276635158162898583e-03,8.330240656104834565e-03,-9.800929707117353118e+00
-7.923758218671595084e-04,-4.370035397737621029e-03,-9.811535215906099339e+00
1.520804399192493680e-03,-4.072447290372410884e-03,-9.803540504891984142e+00
7.328535466314360777e-04,5.399387357164412912e-03,-9.806867624473269984e+00
2.713827238575865046e-03,5.094415177838510118e-03,-9.786777726113754738e+00
-5.022846971028424416e-03,3.885509972017117935e-03,-9.814992766709933036e+00
4.135466900515269743e-04,-3.549327274193796698e-03,-9.790264310514572799e+00
-5.700627384987105341e-03,1.688708514963840369e-03,-9.811868253972965803e+00
-3.035905288072529139e-03,-2.096090416344803357e-03,-9.802627979013417203e+00
4.846624952425288707e-03,-3.462928942968144207e-03,-9.797482799457945646e+00
1.440783851653944800e-03,2.798896116700771378e-03,-9.807994791513113597e+00
-1.921114266869578978e-03,1.969296532295383706e-03,-9.801157764027598418e+00
-1.114461262124201652e-03,7.385627017677119828e-03,-9.808615115913868365e+00
5.704722116678901528e-03,3.600154128050609553e-04,-9.787439982100961444e+00
1.704672099303670930e-03,-4.759878491291578972e-03,-9.797704981571774496e+00
2.419080327515582085e-04,-1.232060277019409031e-03,-9.784038988025331562e+00
-1.726043970108350010e-03,-3.381635700295301371e-03,-9.810401939149803852e+00
-2.099368618484134027e-03,4.244680805879714330e-03,-9.821841598699842635e+00
-2.644416357930119319e-05,-6.032840754282751093e-03,-9.806890100219503026e+00
1.328615535084361589e-03,-3.621226208404556592e-03,-9.802689299324605088e+00
5.147719288885031601e-03,-7.622083673218981413e-03,-9.794718389805279202e+00
1.094266328354878757e-04,4.891496872647336722e-03,-9.794913575983168030e+00
4.627753736737722119e-03,-3.174317676915493561e-03,-9.804312984942157527e+00
8.525238282660559108e-03,4.517359082622793352e-04,-9.787794192210670374e+00
2.853274921743112220e-03,-1.019283059684032190e-03,-9.806103338310901307e+00
4.639672003974544719e-03,4.011622307768668468e-03,-9.789023296180120681e+00
1.076767651768120336e-03,-3.686758533818219712e-03,-9.807868450313351971e+00
1.235122536375670614e-03,-1.055880656715718451e-02,-9.801375206224983927e+00
6.698715886167721720e-03,-5.683967613261454478e-03,-9.799167340786802072e+00
6.534146111861510731e-03,-4.137734165920605822e-04,-9.795430881647842369e+00
2.571376415582460155e-03,8.584446358974869712e-03,-9.802158328780745222e+00
6.318273157208470318e-03,-1.965744888006447193e-03,-9.793638938164233920e+00
1.248852597951687678e-03,3.990766995096414749e-03,-9.788731694595272259e+00
3.042629974895648390e-05,1.447656001571561097e-04,-9.819086479965445591e+00
2.375928394249518256e-03,-8.684022201867272472e-04,-9.793071996576234284e+00
-1.698720927826396468e-04,1.068543656724003227e-03,-9.809368055402194031e+00
-3.284287029914254551e-03,4.465892733237100329e-03,-9.811331488497657460e+00
1.099044256210011949e-02,-2.383361257890654651e-03,-9.800224630745852039e+00
-6.965473169105121203e-03,3.699819286776058654e-03,-9.799345648145836307e+00
9.278161409460226839e-04,-3.813227174988688666e-03,-9.793472385609668152e+00
-1.001608534912500417e-02,-4.816576301472069027e-04,-9.793542182659907169e+00
-7.071941262602100646e-03,3.078042843742591871e-03,-9.808234406728395527e+00
-1.080236778738659538e-02,-5.142439490227044456e-04,-9.784649480989509485e+00
1.729733356422522581e-03,4.327290602964272391e-03,-9.813672866244596449e+00
-1.044481680253785821e-02,5.158961563106443521e-03,-9.808249603730883948e+00
-6.872135977891873949e-03,-3.019387575058880401e-03,-9.805529457175856223e+00
2.583556278872332218e-03,1.041912852973745154e-02,-9.797220919770795788e+00
1.128908526448369788e-02,7.086259070298790361e-03,-9.821576914862896857e+00
-1.300597842300587042e-03,-1.556335091664100409e-03,-9.815025704622481584e+00
-5.038940223126695504e-03,2.026750802232435335e-03,-9.805508051302332717e+00
4.442182451983410149e-03,-7.915731890243525234e-03,-9.804395595671788755e+00
-3.458994162304292359e-03,4.430614308419817717e-03,-9.801881868995842240e+00
-7.401432779107514071e-03,-1.589436231474867112e-03,-9.814382062918051375e+00
-1.177806901264327050e-02,3.805117672791916150e-03,-9.807453104627548157e+00
1.281016112455766760e-03,-4.632031367328998811e-03,-9.797621386224209417e+00
6.894206513247585003e-03,6.788620491419251196e-03,-9.793365164289207669e+00
5.992618631011387142e-03,-9.506799663440256964e-04,-9.804848468429447905e+00
-2.504556861035954572e-03,7.737721568104642678e-03,-9.800992017537200951e+00
3.922941032381740620e-03,-1.097747061145466253e-02,-9.805788084805435290e+00
1.992600791020933838e-03,2.728448612851461057e-03,-9.791387771494960646e+00
-6.784270748032438956e-04,-2.754288848065310387e-03,-9.807340717983196399e+00
3.393213847839914987e-03,-3.222880449084645788e-03,-9.809124484414025957e+00
6.360654124368495844e-03,6.162546027399534330e-04,-9.789487609517982136e+00
-3.731407876942912337e-03,9.895553716765889338e-03,-9.810208227043778706e+00
4.355412236369124272e-03,-7.428796903041605133e-04,-9.805364995601223654e+00
3.991886405016953181e-03,-1.256221446561025645e-03,-9.811172778190982768e+00
-3.062842711331477310e-03,-3.644358694052325046e-03,-9.810212530228438865e+00
-1.116302829605858409e-03,-6.417222886803424300e-03,-9.806095796211518945e+00
-1.305546533587922204e-03,4.976535253001902227e-03,-9.822074148335721233e+00
-2.284493008048328784e-03,5.754817903875639011e-03,-9.794353905696894458e+00
3.885765178888963764e-03,7.578715518660792023e-03,-9.792170182847932836e+00
-8.197836100867234715e-03,3.378977683203655998e-03,-9.794862875182712258e+00
-4.778392849586997337e-03,3.228202588857909377e-03,-9.804471248368146874e+00
-7.657437337455849299e-03,2.713246492850850946e-04,-9.807171242626401053e+00
9.032975097086879714e-04,-3.012059988730909736e-03,-9.816464985881875549e+00
1.696621438271881614e-03,1.312168917131676174e-02,-9.822567066412021930e+00
-1.839229452285215958e-03,-3.326298900964040021e-04,-9.819766757793356504e+00
-1.857878582937059174e-03,5.564296991666010418e-03,-9.805699787639195364e+00
-2.964057101036574049e-03,-1.141866053471103691e-03,-9.784625260926544499e+00
2.850230871849473839e-04,1.545829994602235507e-03,-9.794967485582596112e+00
-3.364395371551072086e-03,6.979400011217741983e-04,-9.796277419017432209e+00
-9.651889368903139891e-04,-8.538017421531596263e-03,-9.797544287628833004e+00
8.855006173959692473e-03,-8.068792277476949382e-03,-9.803975338790058558e+00
-2.701752405023157347e-03,4.383602421585730199e-03,-9.812220514506439173e+00
-1.006900560443148296e-03,-7.063671044609694943e-03,-9.802429176037477987e+00
7.602244134709847632e-04,-1.776607041607976755e-03,-9.811586134861046915e+00
2.898877920445403714e-03,5.740421510989087740e-03,-9.802013903154771057e+00
3.635674287500154089e-03,5.627901988711836619e-03,-9.793555113582334215e+00
5.112796251578832600e-03,2.823062932891731843e-04,-9.794555902521169699e+00
9.095041617327356007e-04,-5.869993909296423312e-03,-9.815451303392976001e+00
-4.419366683074911831e-03,-8.638953144278113325e-03,-9.809966954921430116e+00
4.427125914180206866e-03,3.476773760927482325e-03,-9.816709382247960747e+00
-3.504210944181862259e-03,-1.213132706998165319e-03,-9.788187497551701810e+00
-2.398237957745212243e-03,3.056960260015229025e-03,-9.813813338471804926e+00
-4.470982915594320928e-03,5.257434141866732837e-03,-9.801984221695436261e+00
1.919587466090708723e-03,-5.889085668585283123e-03,-9.799649649202711643e+00
3.390542138433103817e-03,-1.893158031030801880e-03,-9.815222813907913846e+00
4.413119163446995591e-03,-3.739005169353611970e-03,-9.804269902499076039e+00
9.647134093496295693e-03,-2.366126244546316437e-03,-9.795554685702347442e+00
2.004132583869023924e-03,3.727005455706176168e-03,-9.794378725907042949e+00
2.865182641059336663e-03,-4.345958958543514987e-03,-9.802778103011956290e+00
-6.452673079498920817e-04,4.447291265374188687e-03,-9.798174674591310307e+00
-1.042597973402259112e-03,-2.577863676880064701e-03,-9.793795263021802810e+00
-2.326123999628877757e-03,-2.101344259871748034e-03,-9.801052143826964880e+00
-2.822010329718924269e-03,-4.537616394049809668e-03,-9.800447533889382612e+00
5.215279316919185955e-03,-3.251707867983604210e-03,-9.799083873763452246e+00
5.941486134940011585e-03,-5.338317887705962966e-03,-9.808836940641409541e+00
1.228844824136326661e-03,1.982611272750892193e-03,-9.799272468941040870e+00
-8.019154425367811413e-05,2.714728237917899811e-03,-9.796385547457624909e+00
-8.406785906790056190e-03,-4.422328105029820454e-03,-9.790860980470039721e+00
5.029029449709768521e-03,-3.843384254889468075e-03,-9.811090792962504636e+00
6.879804552149781406e-03,-1.423250490520161851e-02,-9.821894745529963444e+00
5.964677146126302941e-04,-1.715698603308606508e-03,-9.813839869061521171e+00
-1.438181399433109654e-04,-3.057307098124042739e-03,-9.797424903893462655e+00
-2.021052119880593478e-03,8.674921525793211421e-03,-9.803090799913469766e+00
-8.262594859022184823e-03,-2.370032908619229117e-03,-9.787342352270112400e+00
-2.234021669484669188e-03,-9.462277232276316077e-03,-9.787301032515722810e+00
-2.668357663437849903e-03,2.693674079249938711e-03,-9.800528060578921341e+00
-1.079219242635981631e-02,-7.801501479719028138e-03,-9.813067677552146151e+00
6.345443354519036613e-03,-8.751308273523441053e-03,-9.802294437205837596e+00
1.430765903628124225e-03,2.288103258459919256e-04,-9.785426090113331199e+00
1.797761500791918068e-03,-7.784692858963517675e-03,-9.810909012715688604e+00
-5.473371393018471379e-04,-4.403724267424877735e-03,-9.812052788643011780e+00
-1.620069182307913905e-04,-5.850699251425586951e-03,-9.793791275219579262e+00
-1.036584619097785632e-04,6.465702249349577699e-03,-9.807407129011771474e+00
2.091087619402790226e-04,6.106508687326897729e-03,-9.804262482640922372e+00
9.478880694748963512e-03,8.340508181652915641e-05,-9.803693852936442354e+00
8.802753567733581684e-04,-1.187847431502055346e-03,-9.815764693363639992e+00
-2.834058550470547593e-03,8.354909384493249078e-04,-9.807100874401156076e+00
-4.951011669532611598e-03,6.012453158216077460e-03,-9.794146053227002824e+00
2.483606359586820137e-03,1.115031274862992444e-03,-9.808141611514139768e+00
-5.280726499801737233e-04,6.367268447243730478e-03,-9.795905662328419083e+00
-6.470700724414547682e-03,3.067425087367745343e-03,-9.809567385921255323e+00
7.981593066054632618e-03,-8.619780437529441994e-04,-9.803615374688446238e+00
1.143810699383588438e-04,7.843598969532046897e-03,-9.797281588736181490e+00
-2.997807444932549907e-03,7.340842302305771762e-03,-9.801402774254222905e+00
2.698673332376811361e-03,4.969412998346303505e-03,-9.813676884739221506e+00
1.289661599264402790e-02,-2.396757249781955763e-03,-9.795224941153133358e+00
-7.070247697493725961e-03,4.347254919022308824e-03,-9.806238453186182369e+00
7.630571645747866692e-03,-1.741648448139551447e-03,-9.805591782907287168e+00
-2.899353162843282608e-03,-5.510091228749906984e-03,-9.803965201653996431e+00
3.131275518565703169e-03,-7.967414645802299578e-03,-9.813747223044529733e+00
-5.146912924977993520e-03,2.446127099906434451e-03,-9.791148442087230563e+00
-4.471078243592943417e-03,-7.753912073458156182e-03,-9.802687178777961918e+00
-1.293104454822603840e-03,5.626415627932421400e-03,-9.800704479371722400e+00
-7.732103730204200644e-03,1.559822361638022467e-03,-9.794938705498562825e+00
-3.809970123883559857e-03,1.731935515716906447e-03,-9.799954381377109058e+00
-7.931096274196589371e-03,-5.768726747254855278e-03,-9.812409347424470241e+00
-1.303861323196807767e-03,-4.912428071558614003e-03,-9.795049553902432038e+00
-6.080324699843113814e-03,2.197750522707837459e-04,-9.798492664049534895e+00
3.931985061906788544e-03,-9.916276371661337033e-03,-9.814026459954934722e+00
4.027147419043148994e-05,-4.206506517998070266e-03,-9.810583718383588447e+00
-6.846544462504433604e-03,-5.077866139686091143e-03,-9.803101231637080915e+00
3.081012656722666426e-03,3.198572162407624028e-03,-9.796358025977786710e+00
2.937559410267454735e-03,1.460057844267789425e-03,-9.806806634176655990e+00
-1.645049387618833939e-03,6.761471576474917082e-03,-9.797851264890891088e+00
1.200392299498069569e-03,-1.293358443318559474e-02,-9.807731956622271596e+00
2.107975214727620880e-03,6.975659705708806002e-03,-9.798349066744489022e+00
-3.266134758782709914e-04,-3.642974979057711418e-03,-9.805229248186325464e+00
-4.748958720815930554e-03,-2.321929690333686728e-04,-9.819857372810510299e+00
-4.621991338924011025e-03,-2.998591639100715338e-05,-9.807105853659338734e+00
9.143099634960055039e-03,2.485519447880796089e-03,-9.806358160774285793e+00
3.781938602906197936e-03,6.571628726759329081e-04,-9.816720398394066294e+00
-1.922086238599073375e-03,3.186197132182780768e-03,-9.813487592609345000e+00
-1.044517846242933208e-02,1.135551528638374663e-02,-9.802977312406545352e+00
-5.108147849432280105e-03,-5.728213117810930510e-03,-9.787700002372242025e+00
5.681408825023754813e-03,-5.148008324949786621e-03,-9.801003247421405717e+00
-1.165867488305440472e-02,-3.588677986024099795e-03,-9.818021356114916998e+00
-1.114782690308065149e-02,1.043209520905661811e-02,-9.805913663598815333e+00
-1.123807561579823330e-03,-4.619654779174655300e-03,-9.805023183654435925e+00
-1.980352775631041493e-03,8.742450101194156054e-03,-9.778560621074147363e+00
7.602821281262056238e-03,1.155585033823019678e-02,-9.789962678675335539e+00
8.923361930799013266e-04,-5.001587979796171327e-03,-9.804637001779376249e+00
-5.354965922136104180e-03,6.519688122226239592e-03,-9.803730323633665478e+00
2.759990605400827052e-03,7.926241404479377611e-03,-9.804788255018706877e+00
-7.313483136356667457e-05,2.677113221906757354e-03,-9.800263826194369088e+00
5.027145883323247237e-03,-6.651834706589910412e-03,-9.806350741010868788e+00
-3.474156242486482228e-03,-8.444519344288658504e-04,-9.809417243185350799e+00
7.205491697698354668e-04,4.338948112532764814e-03,-9.799739435325525605e+00
-7.048099070245898018e-03,-5.556188183465869332e-03,-9.796598435284948891e+00
1.272223181646726150e-03,-2.294143642432061331e-03,-9.797916674633457390e+00
-3.806758117466486555e-03,-5.324380374045959005e-04,-9.809713375627447718e+00
4.530969882656688983e-04,-3.609564704432808527e-03,-9.799026198629471551e+00
-7.689410357604961957e-03,1.279112222865595987e-03,-9.806701632900303167e+00
-2.613128945310128938e-03,2.911039516435617609e-03,-9.801338673887665109e+00
-2.596990402525341593e-03,-5.029477185353401977e-03,-9.809890732088041077e+00
1.281121846908552832e-02,-1.290629335939776383e-03,-9.807362335731005132e+00
1.870690785905446130e-03,1.589830744966780948e-03,-9.800077610110847104e+00
-5.906284139058948744e-03,-5.202771725272998041e-03,-9.804224507497629304e+00
-2.487856051509525473e-03,-1.179308216938474221e-02,-9.798855240507831965e+00
-1.686831716100488116e-03,3.692353754503849370e-03,-9.798305828575989196e+00
-7.043770685741945412e-03,1.170682069317122501e-02,-9.808322788974690454e+00
-1.032497763561935310e-03,3.951707040799359166e-03,-9.802370499100707235e+00
-7.649456232509744321e-04,-3.362521072525749988e-03,-9.794606797441989698e+00
-9.625914930777229117e-04,3.906216164629256957e-03,-9.802143245781778091e+00
6.370763147868935619e-03,8.486249915260717439e-03,-9.784442498008340650e+00
5.198364346571727503e-03,-4.669395288184144746e-03,-9.794912898208558261e+00
4.644861024148463739e-03,-3.040186307517206855e-03,-9.791299200092346666e+00
3.875995432281218334e-03,2.014765619805085686e-03,-9.795235787083115042e+00
7.339534585520544364e-03,3.821468322358846821e-03,-9.806747089661021377e+00
-6.658038718198300981e-03,8.789378745236496246e-03,-9.806055044941841103e+00
-5.534433965870172098e-03,1.995712192552613357e-03,-9.795022585019072636e+00
7.721834979819521862e-03,-1.786289880519951860e-04,-9.784110300251263936e+00
3.567866898465352297e-03,-1.951347629765882866e-03,-9.803858048613831144e+00
-3.317814030583119897e-03,-3.820681468835890500e-03,-9.803571497683284619e+00
-8.406994069067479699e-04,-6.463268389633877124e-04,-9.813370785201559698e+00
-6.977280909274343954e-03,-8.041267232578893157e-03,-9.790922787882342604e+00
-4.568750637543273277e-03,-4.599434936853452789e-03,-9.795714563100151651e+00
-5.710269311804730928e-03,4.157489781259185490e-04,-9.797613073327459787e+00
-2.510495986274416478e-03,4.578757579136055224e-03,-9.803145086636250838e+00
-4.721937903456345162e-03,-2.487973001039530101e-03,-9.805035444082248475e+00
-4.626443242885325616e-04,-2.265697453339575191e-03,-9.806199191671307602e+00
1.842501656900656236e-04,-9.143790458755945288e-03,-9.795619833896425988e+00
1.469469654871302308e-03,5.274246750298192295e-03,-9.800328265409092410e+00
1.078981997448980046e-02,4.066777642492336829e-03,-9.810200959505914753e+00
-2.294008825962859030e-03,-1.397789626717474117e-03,-9.800406303267489960e+00
-8.929207926363003436e-03,-3.433340711249804281e-03,-9.799269798431815559e+00
2.199214464294152720e-03,-4.184372223936825251e-03,-9.810661233487865118e+00
-5.357876693308284179e-04,-4.368850648109805050e-04,-9.813652503024265172e+00
1.051169655182035596e-02,3.272377463350578750e-03,-9.815382829831959199e+00
3.711184051877247474e-03,2.479990328213415272e-03,-9.807143254298027912e+00
3.430628351080831744e-03,-1.503514943889643811e-03,-9.797333212047805162e+00
3.610147005519610125e-03,-3.318876560832606927e-04,-9.806453277881107766e+00
-7.022317509661270794e-03,4.267206079904225548e-03,-9.808189684556889887e+00
1.630956534671804473e-03,1.031464399731441689e-03,-9.812397668679158969e+00
-3.753483365566439699e-03,-2.083129458120700633e-03,-9.801667743548689415e+00
2.625989752987899477e-03,-7.968835837632729305e-03,-9.802288835545498458e+00
3.312256654914086471e-03,2.017604099419156654e-04,-9.811883713041174460e+00
1.555125465719560222e-03,3.860198308181338536e-03,-9.796559340140959193e+00
-2.236560961814216229e-03,7.499074117822314943e-03,-9.789855566021982369e+00
2.485366069171717103e-03,-5.873891708508861831e-04,-9.801234402490683451e+00
1.351798973968893099e-02,-2.205666363301167585e-03,-9.800995676376865973e+00
-5.019685885875715091e-03,-4.565076178002659864e-03,-9.793375680233014080e+00
1.191532993316170340e-03,4.816631210944528375e-03,-9.803252845078899824e+00
-8.711164856335008519e-03,-8.353303592437459841e-04,-9.803292928627557856e+00
-3.813532880863382247e-04,-1.434449691441450937e-03,-9.800404738772288127e+00
-4.280161288907426186e-04,-1.748780181351644982e-03,-9.794421748355585322e+00
7.276193391048291215e-03,5.268650749196175306e-03,-9.806263090436633689e+00
-2.516943192306515115e-03,-5.345290205064546010e-03,-9.793362118274639982e+00
-2.878019018662166754e-03,3.866840121661599926e-03,-9.806589913129407421e+00
2.453434021677605454e-03,-5.617152788672530317e-03,-9.825914108389177670e+00
-1.407691419171495885e-03,-2.609741255704928209e-03,-9.803469868378925867e+00
-2.632812106028864941e-03,-1.247049523013605242e-02,-9.808535202730359615e+00
2.117003843727179816e-03,6.110798809747632412e-03,-9.806500318407930905e+00
1.031780197428234938e-03,-6.616399391579079296e-03,-9.792011730806830627e+00
3.493626687640890953e-03,-3.309233243032206197e-04,-9.790462975226775555e+00
-9.760941571057076167e-04,1.923533954268986370e-03,-9.798272330331178281e+00
-1.970211032382980336e-03,1.180240488778796712e-02,-9.799343812971200052e+00
-1.066574924502117563e-02,-5.809045445527333436e-03,-9.808140482777229607e+00
1.695827205848273117e-04,-7.362269390568277651e-03,-9.809696778318286903e+00
-3.658873187490276763e-03,5.325348143039093304e-03,-9.801715589391726269e+00
-1.686211168457593754e-03,-1.426273147274501659e-03,-9.786821891084514391e+00
2.322825844922972449e-03,-6.019043940661899465e-04,-9.811827726936146021e+00
3.685361442784291282e-03,-8.137394234189637351e-03,-9.800357267222411295e+00
-6.872218089603869713e-03,8.300242024200314706e-03,-9.796212496389454571e+00
-3.382562669169424281e-03,-7.117626295628081204e-03,-9.797600806417909425e+00
3.330386412781505007e-03,2.957826712891109631e-03,-9.797175525159154574e+00
1.292083802663574572e-03,8.155984071137303750e-04,-9.803938966851740489e+00
2.776764476213970309e-03,2.794516200257590819e-03,-9.807143139090674921e+00
3.238620315890113326e-03,2.000052376923969026e-03,-9.797987987501342033e+00
-4.359838376022228540e-03,5.853879678503531338e-03,-9.801340889425867786e+00
3.393509039692573729e-03,3.819576040583174282e-03,-9.812634924383011992e+00
4.955561442013897526e-03,2.526783182524717890e-03,-9.803637864947168268e+00
-7.644331556620250628e-03,8.053178518537693065e-03,-9.798358855463954242e+00
-7.035514262651067219e-03,3.602266046737960959e-03,-9.798982453328243025e+00
-2.644166698331101156e-03,6.071060296705578377e-04,-9.799669237079893236e+00
-5.340355703879364055e-04,2.710713998599967051e-03,-9.805993542915517835e+00
-2.772600452231060823e-03,1.819881699723071341e-03,-9.805645862060181628e+00
5.964663551905866751e-03,-5.415907366676866140e-03,-9.801584323001442556e+00
-7.315790854275785494e-03,9.063089450301277036e-03,-9.787437510195420742e+00
-5.384115028891679061e-03,4.072397988793437923e-03,-9.789928504749482840e+00
1.012442239479320523e-04,6.155818533567824873e-03,-9.796696083110111530e+00
-4.086805876203153214e-03,-2.682141454844931983e-03,-9.803318988782960375e+00
-2.354709057253429830e-03,-3.159283893990442581e-03,-9.791681716992410855e+00
4.891038056280482341e-03,-5.997933976585914997e-03,-9.808563495961019285e+00
3.354776543446889771e-03,1.578192237812463261e-03,-9.799171347414841193e+00
-1.173709787965644853e-02,-4.643261092947743342e-03,-9.798870387104011925e+00
-1.044071777866745123e-03,-1.220209140807341141e-03,-9.795899009996945850e+00
-2.158616633680192440e-03,-8.240674978263629741e-04,-9.818174631743607605e+00
-3.359794248220867620e-03,6.180326351530714135e-03,-9.798120061462373798e+00
1.705868890496744627e-03,5.331609650266606361e-03,-9.796408017662249890e+00
2.627101961071938354e-03,-3.411331939884958576e-03,-9.814386894996166788e+00
-1.516964364287637151e-03,-1.399758068912159478e-03,-9.802911741706870075e+00
2.864332923762767050e-03,6.213154043845228042e-03,-9.803237807162402007e+00
4.839249839673805641e-03,2.426652648955892992e-03,-9.804246318847917863e+00
-6.348300306409257422e-04,-5.177548251517934651e-03,-9.805750534014933351e+00
-1.540503773119272736e-03,-5.446647493383520444e-03,-9.793190532769504131e+00
6.967445627308756217e-03,-2.758732565034940128e-03,-9.807239829579946999e+00
-5.015745116830517755e-03,3.741670640359960696e-03,-9.816962991891871937e+00
3.922278148699510567e-03,8.708255870235815516e-03,-9.788176719335902831e+00
1.520183087951136863e-03,4.447017131906318491e-03,-9.792245507338943611e+00
4.200055209796785261e-03,-4.402258277342144081e-03,-9.822414087636680335e+00
-4.779857245455896263e-03,2.379383939884444684e-03,-9.784322000128559793e+00
3.748127265089639878e-03,1.287478283687083910e-03,-9.789920338861140436e+00
-5.773199837158344075e-03,-8.424587793982541643e-05,-9.784218404864539309e+00
1.038513731771239720e-02,-3.847322335872526105e-04,-9.808119449478610363e+00
-5.095687155053941694e-03,2.235417408147518346e-03,-9.801096413637164773e+00
4.769223642827312599e-03,4.450163338371869622e-03,-9.799771081888957625e+00
-9.910457797617157338e-03,4.589673943768917894e-03,-9.804665713015573658e+00
2.695802420446791713e-03,5.510859424612740481e-04,-9.802981836749040667e+00
-1.425091560969536089e-03,2.490092459042813049e-03,-9.800660672354629455e+00
8.017077772391289006e-03,1.187709765278884867e-02,-9.805079312350569509e+00
-3.247712836904609671e-03,-2.611598848929905670e-03,-9.798898310100385700e+00
1.297594489257468744e-03,-3.043650756590454091e-03,-9.815962285859944458e+00
8.198027344758305329e-03,-1.270610780716986687e-02,-9.807111188856568518e+00
-2.493291183072580009e-03,-4.731060952043638843e-03,-9.801799164231701056e+00
3.311407546573554798e-03,-3.562882380849818984e-03,-9.813057089730431670e+00
-4.055990002168385032e-03,7.211599383683954360e-04,-9.806656487370071673e+00
-6.174088701533182776e-04,7.203279031091592774e-03,-9.809525008609512042e+00
5.207298045210510644e-03,4.539709835664361773e-03,-9.790561832568618783e+00
-2.287562190464039434e-03,3.089415759903113394e-03,-9.794548187578211440e+00
-8.932652783153081574e-03,2.844099976037429370e-03,-9.810154543817999340e+00
2.454551207262471203e-03,-5.288547513425431723e-03,-9.811524009721447115e+00
8.812349106742639170e-04,3.089417661811832017e-03,-9.796004288533222137e+00
-2.061675696352078114e-04,2.336946975845761738e-03,-9.804973306736807004e+00
7.619572362234896395e-03,-3.442795573229633695e-03,-9.789683345123558311e+00
-2.406714853671591218e-03,-5.470533403995656019e-03,-9.809587547357075721e+00
-2.283086494219255941e-03,-5.933117452193081495e-04,-9.803094363798029676e+00
2.678145958656720786e-04,7.282578242374852448e-03,-9.827853101784290502e+00
-3.757384556548116084e-03,-2.339555344650751079e-04,-9.802937257160596829e+00
-2.555455176792784393e-04,4.156955106416902789e-04,-9.796494224303089027e+00
1.231086767065162763e-02,3.910150025899548389e-03,-9.810984362277315185e+00
1.420608366918282720e-03,4.183352721940956226e-03,-9.806881358511732927e+00
3.442228762519042133e-03,-2.062486485147530424e-05,-9.800311923570491857e+00
2.403591066661441619e-03,-2.078113794037975918e-03,-9.792784347603429751e+00
-3.101461455696547138e-03,-3.208203095288411459e-03,-9.812754652513456577e+00
1.814152846715650583e-03,9.021350205699004191e-05,-9.801026057479296227e+00
-5.848039291195843668e-03,-5.034998932389938425e-03,-9.794851419679522664e+00
7.487038754411487495e-05,-8.649779178568302307e-03,-9.807061639002290221e+00
8.045500714967219677e-03,-2.921785823908896931e-03,-9.807540651477198779e+00
-6.652158667725018536e-03,-1.400720071754089696e-03,-9.808486051513018111e+00
-3.324940861012199659e-03,1.077454288695574216e-03,-9.791778693403385248e+00
9.584677236968874858e-03,2.224697996656836360e-03,-9.797013997215483272e+00
2.691961578877576935e-04,2.049616824185045930e-03,-9.814686975897657817e+00
-8.497832358207418890e-03,1.182731634251402066e-03,-9.799134832513553661e+00
6.272849737374620177e-03,-2.927970952803666919e-03,-9.805955282710025145e+00
4.218157071640605063e-03,-3.143595912460306861e-03,-9.797113625712546181e+00
-8.630574343902337395e-03,-4.463538200861096386e-03,-9.813390349657696632e+00
-5.133060587373833653e-03,1.642889566997101855e-03,-9.801210253227855773e+00
1.691827745079540622e-04,-9.222823880702975610e-03,-9.811183549697716444e+00
3.230214906120023981e-03,4.489076447369942787e-04,-9.804993504367248036e+00
-2.937649429052452063e-03,1.327222745249374142e-02,-9.818384268435631057e+00
-2.900209537378776190e-04,6.090111250984730010e-03,-9.811981619738940452e+00
1.189540488684531425e-03,3.618526230915123233e-04,-9.802745364183765631e+00
4.272800284572215827e-03,-1.899217025438267948e-03,-9.810694746476871231e+00
-1.063516824408452556e-02,3.536006631380997464e-04,-9.805673304665706524e+00
7.387431477705545986e-03,4.911916301065703296e-03,-9.806063286533744261e+00
3.894131109475471551e-03,1.140867939444420529e-03,-9.807185507064975383e+00
-7.553345919761196396e-03,5.602243154038811027e-03,-9.816807744995990959e+00
1.059266569996987310e-02,2.385209217856902337e-03,-9.812203459884083045e+00
2.405105036305831435e-03,-5.539666644026404636e-04,-9.795951870194310018e+00
1.615792302041587063e-03,3.814750287991787100e-03,-9.798940755554156112e+00
1.565434950978536683e-03,-1.588439224087616168e-03,-9.804011245297232335e+00
-1.771584756482121395e-03,-4.037087807636054355e-03,-9.801983125079557269e+00
-5.930149256904633862e-03,1.577942148980820665e-03,-9.796632202509933052e+00
-8.963490137296427004e-03,-1.310377655574521127e-02,-9.799463441342044945e+00
-3.316229196307889614e-03,-2.577627985833999807e-03,-9.788341420009638583e+00
1.824760337494269651e-03,-1.422162446632871348e-03,-9.813517972493460917e+00
-3.477407911903409622e-03,3.043405148058884058e-03,-9.794566078179032687e+00
1.715962089340100118e-03,-1.014479667597162349e-02,-9.793927658362335364e+00
1.475791184123264764e-03,-4.433868617783676309e-03,-9.816826954711924458e+00
2.262868308504893851e-03,-7.829414320915887432e-03,-9.801461994610804140e+00
8.695708894655656109e-04,-6.862827206162055689e-04,-9.810123662721997206e+00
-3.480575518869404982e-03,1.606665071472699897e-03,-9.794921126347141183e+00
-3.170856108405919332e-03,1.058276351872827759e-02,-9.792734522083707205e+00
6.273144183250517003e-04,-3.571259420175276755e-03,-9.796750095687068338e+00
-5.501516120587233473e-03,7.787643893068606606e-04,-9.810258149786806214e+00
2.149757491760063630e-03,4.208672825225983141e-03,-9.801702195800821471e+00
7.459972890264144349e-04,7.360895242885017115e-04,-9.805724664324639406e+00
-1.194757899565083460e-05,3.256884586825854657e-03,-9.792350973931425173e+00
-7.458036769547683742e-03,4.138462366291429241e-04,-9.810061710145411951e+00
-5.404673880603265250e-03,1.396599605185015337e-05,-9.793548288356646481e+00
-4.810440082984888954e-03,1.597457223602752026e-03,-9.801149485714161003e+00
-2.779319748314592296e-03,-5.259487088720276107e-03,-9.803269328602270960e+00
8.958458112782414356e-03,-1.252457307276540427e-04,-9.814689290237920360e+00
4.790747091836219766e-03,-7.701196383475218156e-03,-9.805500380485659306e+00
-4.837905471226627147e-03,7.539192542848423446e-05,-9.795601559356903465e+00
-4.296408150823054391e-03,2.543842726428578900e-03,-9.805944005981199751e+00
-4.576856925629479989e-03,4.707290036610789312e-03,-9.809577089427394370e+00
3.496127722313926902e-03,-9.295623998287156969e-04,-9.807327957654138118e+00
2.302527062362979323e-03,1.052079472130456727e-03,-9.809415628636939388e+00
-4.623974448564029983e-03,-3.009760170293138311e-05,-9.808227251025428473e+00
6.736588370181405445e-03,-4.508919657130203672e-03,-9.799064773766797742e+00
-2.443910163009578151e-03,-9.788204093185750784e-03,-9.803491409153670233e+00
8.047911196707259462e-03,1.655984564023052106e-03,-9.801841522136493623e+00
-2.242680495263812534e-03,3.571925367787231759e-03,-9.779536206907144091e+00
-6.407615702548987921e-03,1.119838604445800873e-03,-9.808617559880179471e+00
-3.441181500085657968e-03,-6.366067951623061161e-03,-9.789473891767439540e+00
-2.604068899116627686e-03,5.270967984467696266e-03,-9.802151262684976274e+00
-2.663545724486952003e-03,-1.200527178821526305e-04,-9.786053790909912564e+00
3.112589425705818060e-03,-2.706062468184593055e-03,-9.795509355321389222e+00
-1.028128738602578258e-02,-1.725245746287726962e-03,-9.814612221975451689e+00
-8.888423794345822956e-03,-7.494747722316624870e-04,-9.802680823136679322e+00
-2.442515250519725328e-03,-4.450403465832304499e-03,-9.805505879995953578e+00
2.791312701973431318e-04,6.603927095575834461e-03,-9.808683824802304940e+00
3.013228311356668269e-04,1.629544392792800804e-03,-9.799695967846544065e+00
4.164862727417772796e-04,5.619717165037091400e-03,-9.813178128952237955e+00
1.259766256427700525e-03,-6.332186037764307371e-03,-9.799663907379674299e+00
-1.196296711217459180e-03,5.378520333829815703e-03,-9.803441015908052947e+00
4.346252944538162195e-03,1.895690420861034830e-03,-9.811469853972020871e+00
-4.623874019798838173e-04,4.499560304173286923e-03,-9.817999537037199076e+00
6.060047465438699564e-04,6.944534614630784022e-04,-9.811415856174333427e+00
5.356008747009644889e-03,-2.563148087103705227e-03,-9.805744810727608396e+00
4.659155919922768931e-03,2.284498580842880941e-04,-9.802380030015646284e+00
-1.156263977761446196e-02,-1.743160231952566421e-03,-9.805490406789036939e+00
3.489954775493942039e-03,-1.391347812150509414e-03,-9.800431395449463068e+00
-6.757757118940525484e-03,-2.406009957704748157e-03,-9.812289819748450270e+00
6.775865613485338324e-04,-1.161669731142230899e-03,-9.792274818556032656e+00
-1.368187623145336639e-03,5.110676315877209566e-03,-9.798467439180017280e+00
-1.370183935611699304e-03,-1.510608973363042817e-03,-9.803275648613299253e+00
-2.346031740150426783e-03,-7.529145428416959135e-03,-9.800353078853447641e+00
-2.294368934610885834e-03,-2.814304072066673053e-03,-9.794131059044596910e+00
3.851199220794319922e-03,-6.796783058526706736e-03,-9.795296957175985142e+00
-1.636868509352133695e-04,1.557507558545827070e-03,-9.811412249237321248e+00
-9.635410561092558552e-04,9.380439753328397023e-03,-9.809871220079731557e+00
4.889123523313878769e-03,-6.164197207648000523e-04,-9.816676737068199543e+00
-1.738743822553994595e-03,3.366532899826415407e-03,-9.807567323086564315e+00
2.022477744757478733e-03,-6.666219973334149528e-03,-9.820791966179651666e+00
-6.464693086211776088e-03,-6.883439338578680594e-03,-9.803998928059263207e+00
-3.282254103131693364e-03,-4.589677924726839713e-03,-9.814329038105764624e+00
-3.046366708370392947e-04,-1.903661028025061290e-03,-9.819874322567830660e+00
-5.112644940960245007e-03,3.599003556589343549e-03,-9.808816146893757804e+00
-1.732879821503422032e-03,2.960503530629112444e-03,-9.815404794671152899e+00
8.362921932307552930e-03,-1.054623375327958792e-03,-9.801786654755094474e+00
-6.322901025789280779e-04,-7.253253663366118417e-03,-9.810657646138880139e+00
-5.711686496612088798e-03,2.758056690788652891e-03,-9.815191600708738306e+00
-6.636981163863540055e-04,3.907026807087760631e-04,-9.816015865071548774e+00
-5.088003974778904960e-03,3.366806597417809199e-03,-9.813995499318986404e+00
-1.083705018115444819e-02,-1.067671264958646891e-04,-9.801793121738974435e+00
4.858334505293469786e-04,1.317778900657157496e-03,-9.798753752509092863e+00
2.159195447051023408e-03,-3.134970170687023487e-03,-9.784080992370711272e+00
-1.523898255554405313e-04,-1.363979947887853034e-03,-9.810668396062261820e+00
1.059484453285319079e-03,-5.297897661883409388e-03,-9.785543842800045411e+00
2.098939028159959360e-03,6.541796282203711900e-04,-9.807980158144264493e+00
-2.101394655553062707e-03,-1.550596090934052915e-02,-9.814358051749088929e+00
-3.083117611293919799e-03,5.474012115645167376e-03,-9.807655510551532174e+00
-1.920907773209953873e-03,1.134251564032416225e-03,-9.818738831741384843e+00
2.652836251695552851e-03,7.915193075170846165e-03,-9.798999486954810934e+00
1.349787227993963631e-03,7.077685377937512241e-03,-9.795455795695868773e+00
8.650312406940314841e-04,-5.415480149650701847e-03,-9.803186832235420312e+00
7.504380522096199338e-03,1.645270971749580868e-03,-9.805172637683151393e+00
2.456591174531870016e-03,-3.779614391452822564e-03,-9.798119942421488204e+00
-9.725177889824510730e-03,-5.910766261625068855e-04,-9.812282478417712284e+00
3.159786307330470249e-04,1.943365665113970422e-04,-9.813437330990533169e+00
-4.419041202239364433e-03,-4.123258957689324850e-03,-9.801958523257489730e+00
5.220952046907456276e-03,4.228000102653296441e-03,-9.801636044348244425e+00
8.643477956674637183e-03,-6.910360732813427068e-04,-9.800750674625234637e+00
1.053430330071917012e-02,8.305687081286476647e-03,-9.803835143555433618e+00
-2.381646036504319382e-03,2.033159612884723102e-03,-9.805523995227892087e+00
3.883518962775461001e-04,-4.760823709797610843e-06,-9.805247170850627469e+00
2.307854474151608843e-03,-4.528916319983880556e-03,-9.804634234501678591e+00
-4.158851201545919578e-03,-3.498045079015734467e-03,-9.802510386176180646e+00
-5.010570584826995640e-03,-1.661098244396645241e-03,-9.796591974037276884e+00
-1.335799940744165004e-03,-5.794458387087088672e-03,-9.806771438682549302e+00
-8.917463902324955245e-04,6.572759717399860070e-03,-9.804408709665853650e+00
2.498046272976282931e-03,2.305079432242831180e-03,-9.797289684810646548e+00
-2.576320768001075061e-03,1.763117648677931058e-03,-9.785738005210491863e+00
-1.803322398832030507e-02,5.719534482993717146e-03,-9.788155368895667507e+00
-1.081045985220306996e-02,-9.600983908606749301e-03,-9.798901173866498837e+00
-6.137988575041313649e-03,3.945055233091550664e-03,-9.803335512984784117e+00
-3.914273942786199167e-03,-1.812258967336597673e-04,-9.795214708418852112e+00
8.358610279713614075e-03,-9.380226481346356409e-04,-9.787213480313660341e+00
3.490665610981129839e-03,1.411522133436756126e-03,-9.798980887199292056e+00
7.257857293698915385e-03,-2.505692563339017697e-03,-9.810582237695831154e+00
-7.198026949975708938e-03,-1.308652265730776872e-02,-9.808283893073014070e+00
-3.544542952380479953e-03,-8.848511122223751829e-03,-9.797060041068972325e+00
4.798121022448026754e-03,-6.936188717596242226e-03,-9.806407731210253331e+00
-1.596323194673087082e-03,9.509713168950529498e-04,-9.799063785665344639e+00
3.679115018853327916e-03,6.519526680303338283e-03,-9.820278740672092610e+00
-6.404127686580069617e-03,2.863166726697347585e-03,-9.797018640740896345e+00
-3.083090263174353540e-03,4.559420632392478454e-03,-9.786216296457473263e+00
-3.794740930215950280e-03,-1.550536614206302500e-03,-9.807786778555556140e+00
-2.585826818417840713e-03,1.621148823995130798e-03,-9.808704857099590058e+00
8.040928692751614674e-04,-1.824980041468914158e-03,-9.811410220758602918e+00
-4.382306406081447857e-03,1.682315246373874843e-03,-9.816459916273071684e+00
7.112017700320506439e-03,-2.976771704242804173e-04,-9.798777793877118114e+00
-1.959923049283900879e-03,-7.443255868693530487e-03,-9.795598074048323056e+00
1.886579634791383294e-03,2.067043476945782093e-03,-9.804459383815267159e+00
-3.439714322645039124e-03,-3.448000841267390496e-03,-9.808450456300468190e+00
-5.023468504100046979e-03,-4.185324771817789183e-03,-9.798242743797487719e+00
-4.378553038795738629e-04,-4.917713434345068364e-03,-9.795231390506504709e+00
1.989484942776679772e-03,7.232008151308740550e-03,-9.801936182535078146e+00
3.586603609835475361e-04,-4.971815317489638834e-03,-9.807845956114618957e+00
-1.895758939486744468e-03,-7.888881160671244036e-04,-9.799700339869662713e+00
-4.204408411793617191e-03,3.009643036688563426e-03,-9.800864242009296845e+00
1.082779345262258964e-03,5.852326252926137208e-03,-9.804177113650082376e+00
-6.913990397558415074e-04,5.349982991444115696e-03,-9.799861084289322122e+00
1.272349817226644522e-03,3.310490111759271676e-03,-9.801855330456824333e+00
1.227841420604290461e-03,-1.968935016498594374e-03,-9.812514814087123227e+00
-5.825230367908980876e-03,-3.553563317697170255e-03,-9.808662735436220359e+00
8.950370676736927808e-03,1.305161517350666642e-02,-9.807828102290852001e+00
3.306415170274150730e-03,-2.350282275717643140e-03,-9.808956719730163698e+00
5.024796640461605401e-03,-6.105837220789052866e-04,-9.808589499566002345e+00
-5.838598566688788308e-03,-5.513394273582630095e-04,-9.805767521784826357e+00
7.595005271632652728e-04,-2.923215435777422669e-03,-9.801162796557353118e+00
8.160380299365841208e-03,6.726284622442295531e-03,-9.815499990061097080e+00
-3.068940176452429960e-03,-4.583840906652656214e-03,-9.807501726002222142e+00
5.013223778428389267e-03,-2.980641095143691122e-03,-9.804169145147277220e+00
5.063112180991819443e-03,-2.343597757568361556e-03,-9.793827176699409165e+00
5.482396325236677274e-04,-3.308112507534998067e-04,-9.797527307506969763e+00
2.519310803892640688e-03,-5.222031470771236472e-03,-9.793160633121280156e+00
3.776608744498132723e-03,4.265416046012884647e-03,-9.811953666034240129e+00
-7.541622627986398989e-04,-2.335481653884810375e-03,-9.809235572743533638e+00
-1.861550293222636720e-03,-4.200859728909429706e-03,-9.808857537259047632e+00
9.572951171246481955e-03,-6.760520234469254673e-03,-9.814505225108561604e+00
-2.424663933833721800e-03,4.121724122985785839e-03,-9.794079294913892397e+00
5.443300991598464672e-03,4.877555883374558830e-03,-9.794303943039611937e+00
-6.255212370965157909e-04,1.684814813330638705e-03,-9.788951916822929533e+00
-1.865023519701109996e-03,-1.623755908886704560e-03,-9.815493912448305380e+00
3.611616815097592071e-03,-1.713099823369533536e-02,-9.806349671822745862e+00
1.720742925217709452e-03,-2.546667641537196485e-03,-9.806124577371900131e+00
8.423355121695793625e-04,-2.647723944654402166e-04,-9.799012781941380368e+00
6.163416912345128819e-03,1.378435684637442345e-03,-9.799117489320815721e+00
-5.215370449574496109e-03,-2.631164641591192573e-03,-9.797174897211784028e+00
5.566506960629748202e-03,-3.750769798050689594e-04,-9.788684629174657204e+00
1.725500195352262399e-04,-7.992750194611015742e-04,-9.806349324872062567e+00
2.919645149534145275e-03,-6.106347214238303130e-03,-9.805360710273301805e+00
-6.867614523286625153e-03,3.705789163753804051e-03,-9.803963228017485321e+00
-4.227988288082895445e-03,9.741426889026018679e-03,-9.798742983115838356e+00
-2.797851744950221372e-03,1.572858912291805362e-03,-9.802369626481333142e+00
-8.023458690205775151e-03,-4.787893122011538556e-03,-9.791401164609883523e+00
-4.682419642815859734e-03,5.085439004172026198e-03,-9.802813648825619453e+00
-8.030501611079656279e-03,-2.768432112190738828e-03,-9.802796938931614079e+00
1.792518788068741013e-03,-7.636196090177882999e-03,-9.809783093892937345e+00
1.117623684190800521e-04,-7.584186427045151117e-04,-9.801997131210358205e+00
4.038659712279151458e-03,1.059094643923453975e-02,-9.797808764349039024e+00
1.194760050756263564e-03,1.753958005082225345e-03,-9.815309446803089699e+00
2.931240833447774658e-03,1.102040969952449746e-02,-9.814897860446667011e+00
1.931589609592813559e-03,4.324312009185883252e-03,-9.793842467067548796e+00
-1.945272718877124338e-03,-1.269562273567427686e-02,-9.795062574033083891e+00
5.579584343675205761e-03,3.595957140879971203e-03,-9.800912411517611389e+00
1.154847153129299163e-02,1.295411488287375595e-03,-9.803411125526949377e+00
-1.592916558857678877e-03,2.736780427306059749e-03,-9.803067017265425065e+00
-9.077367683606627716e-04,1.241648537552151807e-03,-9.799270535920580727e+00
-6.299368851670425658e-03,-2.934426537956371685e-03,-9.788666670882758325e+00
1.051477731431834164e-02,1.485808716157596470e-03,-9.790654924234337031e+00
4.914377687112459966e-03,-1.808232711648264952e-03,-9.804681230731173258e+00
-2.850523184776324222e-03,9.737474852533144589e-05,-9.798852178930999912e+00
1.535343880738214341e-03,2.729441423102913801e-03,-9.782830014721410450e+00
-3.030832116974988520e-03,-4.405228409173594928e-03,-9.804853779782735756e+00
-2.016862956559305577e-04,5.858849768501260200e-04,-9.802617317051193879e+00
4.058996167082672829e-03,1.596557118800091043e-03,-9.805741626354221196e+00
-3.083947936087254663e-03,-1.992146731343971688e-03,-9.808870580260750316e+00
-5.079530595207116736e-03,1.998291346184542967e-03,-9.810154203751135782e+00
-1.274908136761116915e-03,-4.417193550496262104e-03,-9.795725767519082083e+00
4.588930430885189036e-04,9.368831627010529642e-03,-9.817678747227855496e+00
-6.386680328975554745e-03,-2.144184806443071543e-03,-9.801577642432693693e+00
5.228141771607290600e-03,-1.110506965578938847e-02,-9.804942310827167162e+00
-1.685934337704965164e-03,1.106791593314113533e-03,-9.797751157533975075e+00
5.806299990732747803e-04,2.348843229511446504e-03,-9.790623694581281455e+00
1.562751875210294456e-03,6.538296142724769368e-03,-9.807809249940008911e+00
1.557171499033831391e-03,-4.192968556055951326e-03,-9.795467715816004173e+00
-5.500872608572240745e-03,3.974400862473946756e-03,-9.803340989619565349e+00
3.390996068289133317e-03,5.087169840496812666e-03,-9.803043370374309617e+00
-1.319303878259366677e-03,3.392528848230323343e-03,-9.805102436451448966e+00
4.031997462165594695e-03,1.121557370919892696e-03,-9.796766630704203394e+00
6.305588361824189525e-03,3.011737536040151402e-04,-9.804638362804842799e+00
5.355217041878650511e-03,-8.751496460551361906e-03,-9.798512946484590813e+00
-7.991843962531504364e-03,-2.152669105689980922e-03,-9.796067753913797915e+00
-8.049658446484033239e-03,-6.756453296704613941e-03,-9.802217657043845733e+00
1.799181037512521909e-03,-4.329241860532675665e-03,-9.808580027863373019e+00
-3.347264636370548673e-03,4.879957860762477659e-03,-9.804326147216933407e+00
-4.144310589152549670e-03,1.031847927437825989e-03,-9.804742093165179639e+00
4.434798327438315064e-04,-5.135379597260512560e-03,-9.810201132501765287e+00
-3.063586476890707132e-03,1.595369303991575963e-03,-9.792785727527185458e+00
3.522574735901017311e-03,8.558050626529077956e-03,-9.809668845129010606e+00
-1.008956363308703696e-02,6.120566431533525087e-03,-9.795285689081749680e+00
-8.860529483438023789e-04,-2.523431194581612132e-03,-9.793719952061264777e+00
1.663717277672474310e-03,-2.581401573232742185e-03,-9.799992753676255219e+00
-5.445694657844618244e-03,4.628721805916991699e-03,-9.789631256193489506e+00
-2.643637127689905855e-03,4.845746810374682891e-03,-9.796436618515967254e+00
-2.418680330859525850e-03,-3.147888609887358660e-03,-9.795452356091903567e+00
-3.417983246798911474e-03,-2.991801712780879988e-03,-9.822748737436279853e+00
-7.520222018476539110e-04,7.038587712944457606e-03,-9.802077456090374952e+00
-1.516619549376944194e-03,-2.324130723355052278e-03,-9.805568608457535973e+00
-1.328035369731352935e-03,-4.723696839685353685e-03,-9.801784226066184047e+00
-3.059140146988254590e-03,-3.423123444016893703e-03,-9.803315961626060115e+00
4.740502258005226295e-03,-3.748297468570391841e-04,-9.797432572387643646e+00
9.057462462127123526e-04,-6.512777318016957362e-03,-9.803588772965376563e+00
2.081135971941127857e-03,5.311671139637957895e-03,-9.799054321164021530e+00
5.336354143576307711e-03,-3.239000419015809155e-03,-9.814981349392278176e+00
-4.360147121613159628e-03,-7.777733043790469730e-03,-9.793802550071374569e+00
7.567256174116180310e-03,-1.111499641235500413e-03,-9.801671072807932816e+00
8.892842835772060694e-03,3.426748735836020014e-03,-9.807116308028883012e+00
-2.663090906912214499e-03,6.891137452636702729e-03,-9.795037771983709618e+00
2.422751391699934972e-03,-3.459900164630106984e-03,-9.794321973798856718e+00
1.986739538192072024e-03,-4.300916971888696372e-03,-9.785418574756693744e+00
-1.218387201435637383e-02,-1.088437195927368772e-03,-9.801819378313068043e+00
1.043470845242045744e-03,4.660165049367804950e-03,-9.811284004360008026e+00
-3.025624702118008894e-03,-2.437894456556718992e-03,-9.801574213046485795e+00
-4.520417903934082632e-03,1.034465362370640476e-03,-9.799727440247565369e+00
-5.825187503273618859e-03,-5.772931413567414065e-03,-9.808160934287712962e+00
7.323106480224134997e-03,1.115208008167192962e-03,-9.795577583190675952e+00
-4.521706977678905184e-03,3.797930270987851659e-03,-9.796259193973909873e+00
-5.513323328066444332e-03,-4.857879101310351444e-03,-9.794999714597496521e+00
1.153008198883408077e-03,3.697316227579249253e-03,-9.807663760144805565e+00
1.613509215744691160e-03,1.733168719826832680e-03,-9.802728580607245945e+00
-3.315155054577493751e-03,7.641562640880004845e-04,-9.790907368459109250e+00
-3.800709464887445151e-04,3.800488771324023185e-03,-9.799092126888444554e+00
4.495670463196627109e-03,1.513946489578693946e-03,-9.799676668873734897e+00
6.072227028631307748e-03,4.707795034518237089e-03,-9.802804921439287611e+00
-5.281265769563752181e-04,1.014196758944988994e-02,-9.816690552632207911e+00
-3.174931947689199011e-03,1.159645210498787184e-03,-9.795239839337813947e+00
-1.972494114423469381e-03,1.063209744632212690e-02,-9.796439933132727873e+00
-1.129072870541679777e-02,2.799087599278619366e-03,-9.800695702264892617e+00
3.643752134711352418e-03,-1.038973616629652614e-03,-9.784299548842824379e+00
-4.124186093794746447e-03,-4.507825143484991276e-03,-9.803154011052034988e+00
3.758376932562396567e-03,-5.820420665345008016e-03,-9.802216314168340716e+00
-2.083276622225039079e-03,1.002898255845425038e-02,-9.805482385603902173e+00
3.457407690303848034e-05,-3.387816189860058105e-04,-9.789191206210796636e+00
-6.804999101999586889e-04,9.132487052720933418e-03,-9.815941187572672533e+00
2.963233780647721392e-03,2.948604859971145579e-03,-9.801859035356118355e+00
2.039937007614433303e-03,7.399324491591629041e-03,-9.816990793829093676e+00
-1.216654531885544245e-03,-2.316205273752816422e-03,-9.792303237570493479e+00
-2.729485728769504189e-03,-1.087552166875256805e-02,-9.801169521291949849e+00
1.166667568243483872e-03,1.200687820613006128e-03,-9.796572065899157522e+00
-1.988187583957410839e-03,6.884852334727254060e-03,-9.805111506459661896e+00
-7.973623008317840336e-03,4.550539643094638452e-03,-9.798311003099387406e+00
6.194471315065988061e-03,-1.226778024265687966e-02,-9.817348195571856451e+00
1.683443851551901871e-03,3.847292300463850834e-03,-9.802394250530332087e+00
7.816130590215866758e-03,-5.834253730628316710e-03,-9.793413404636050146e+00
-1.489911330055537384e-03,-1.751712464631479662e-03,-9.804764937175692197e+00
2.600738822400137581e-03,-3.870906423753766364e-03,-9.798803824286814290e+00
1.498881791613582279e-03,4.491700566688986915e-03,-9.797039603114342299e+00
-8.820598901699297500e-03,-5.267474843809186874e-03,-9.803783893613690736e+00
-3.784362651388519069e-04,-3.181196792182128339e-03,-9.798298494830719463e+00
-9.032461068874533122e-03,-3.530168122360217205e-03,-9.810797742859751480e+00
-5.250618608426974032e-03,6.869686227377670359e-03,-9.807397635672415959e+00
-7.018168369267356252e-03,-5.597049312218592768e-03,-9.783910382225624147e+00
3.175311071626246706e-03,-3.193538878989241308e-03,-9.802230864997417470e+00
1.047677708425562466e-03,1.274501602025798069e-02,-9.803522482811573013e+00
1.034035939532615064e-02,-6.755811780483606368e-04,-9.794923957651699098e+00
1.930425217216037844e-03,-3.551489120721318914e-03,-9.803089635912002109e+00
2.582641359246744435e-03,1.273257537801155467e-03,-9.799553249575650327e+00
