gyro_x (deg/s),gyro_y (deg/s),gyro_z (deg/s)
-7.792036690863557435e-02,1.146370468138840221e-02,-3.795936982104770180e-02
5.673189155946628537e-02,-7.329018397571310586e-03,4.506720767048110442e-03
-6.647584934007375046e-02,-1.652657747596290513e-02,-2.193726353709086335e-02
-6.399704822006782069e-03,-1.012524778904817235e-01,1.822931881109343547e-03
-4.104187548979217753e-02,5.474058446826470664e-02,-2.710525406291596981e-02
-5.336398264845177569e-02,-3.155528484717543686e-02,-4.237736101616990103e-02
-6.313526127156569856e-02,-5.497917156295318436e-02,-2.858709360706470498e-02
1.145694349086277472e-02,-6.373689097405596526e-02,6.867624099230208723e-02
6.746152953169252953e-02,-2.590025573633721045e-02,-3.886582761184331249e-03
-7.302048939430421694e-03,-3.567971885268841209e-02,-6.513259809023968887e-03
2.010919962343327844e-02,-3.454202965865176694e-02,3.281912548432634052e-02
-1.032025860274388140e-02,-2.242910239790180463e-02,-2.959920592280381943e-02
3.483672353533671939e-02,1.132560227206037828e-02,1.244054138160456333e-02
-1.784379035286403140e-02,1.888165907949280325e-02,4.098868102741320962e-02
-5.501179613711697225e-02,-3.571130482048671256e-02,2.408055118506493772e-02
2.616837836143171350e-02,1.206233803974919930e-02,-7.213761096910678572e-02
-4.134356175978382009e-02,1.193300268641659528e-02,-1.167471100811850668e-02
-1.384564167831356689e-03,4.062883308502023699e-02,2.971140543684791177e-02
-3.791958764802930842e-02,3.693310725177104820e-02,2.614467164923837961e-02
-5.365806944246023259e-03,4.369170492681746787e-02,-5.168076747300938412e-02
-1.606976823268596588e-02,-2.305873154381711532e-02,-7.756647517154624527e-02
-2.309456099547260721e-02,1.960759694909611217e-02,-1.115950569645697554e-01
1.256340849370509438e-01,-3.451237199698962976e-02,1.017468384041528501e-03
-1.795825702446173650e-02,4.815942725792168866e-02,-2.971389859369911318e-02
6.375924275074862368e-02,4.963912345744161611e-03,3.298076754660850263e-02
-1.363044133237379567e-03,-5.783071510778043864e-03,3.736516552285212844e-02
-1.247572734858507122e-02,2.075450519193279900e-02,-7.747882112034183699e-02
1.438851365378168885e-02,4.051193949199728001e-02,-5.729136303028951882e-02
-5.299759195408525192e-02,3.435548099858754673e-02,3.819679248391256304e-02
-2.245370750937932675e-02,-7.996228254377987787e-02,9.987253443607157707e-03
8.453907622154954813e-04,-2.476785077401225457e-02,5.008683466747571728e-02
-4.840620424649777487e-02,3.116656570837687823e-02,1.050872519973511561e-02
1.258960296480758113e-02,-1.872456110163826445e-02,-1.484040800084753149e-02
1.228578426118961215e-03,-2.756181862879751067e-03,1.076516973603735237e-02
5.563226059256853873e-03,-1.970599151422975791e-04,7.874609734564251562e-02
2.758322745901253814e-02,-1.185658790218183795e-02,8.904256212955186101e-02
-3.178604878718058191e-02,5.180543092712935546e-03,3.254129904355558545e-02
-8.820731333131594243e-02,-2.175019661059532372e-02,-6.779530963799891563e-02
-3.585750557584378023e-02,7.429239054195478642e-03,-2.072919148498964317e-02
3.484276515759249238e-02,6.277098664759088453e-02,-1.673459878442444537e-02
3.334035765864366558e-04,-5.829824927816954633e-02,-9.796618571113910323e-02
-6.545115821240217457e-02,2.041108450056616438e-02,4.841819321501879964e-02
-5.892630712527544001e-02,4.546330838666881070e-03,-7.722558427950399103e-03
5.808673509001616858e-02,-8.704436347843172092e-03,3.917484095455730370e-02
-6.193125915529708965e-04,-5.206811845915676473e-02,-6.715167098739180385e-02
-1.685101710195780617e-02,2.884750652455562309e-02,3.304282041143075804e-02
-2.596975013712361433e-02,2.893774294864971414e-03,1.147434523603704272e-02
-7.774459132378855331e-02,3.354759594261133571e-02,2.858645908147845055e-02
1.439779375030861112e-02,2.359911381359069624e-02,2.535261840954912069e-02
-7.698419314233249933e-02,-1.140435588225680585e-01,-3.928293148270931706e-02
7.494614862872474303e-02,-6.626464991889565804e-04,3.340576323510911078e-02
4.167387978744962508e-03,-2.916687317089725756e-02,1.948894945084862079e-02
-1.373111887358528516e-01,-2.894170421161370264e-03,6.912506572871139621e-02
-1.206786336449240833e-02,5.117648804580165328e-02,2.335394614011855607e-02
-4.230159873397901574e-03,-4.221565284726304379e-02,-2.000990972109559576e-02
2.542082559365371405e-02,-2.746691877637374556e-03,4.472134056978115807e-02
-2.720703592423252826e-02,5.180359761499476329e-02,6.220964089342733566e-03
2.477062363821332450e-02,2.296559528311240689e-02,-1.807025932607889476e-02
-1.460803044522294633e-02,2.756624521663189956e-02,-4.261548385553903806e-02
-3.382934481232299784e-02,3.218643023141668641e-02,-9.974240237257212677e-03
-1.134615089482488189e-02,-5.597775338372191524e-03,-6.546774984187554713e-02
2.369594548786459545e-02,-2.045293533067098213e-02,-5.924116493068105199e-02
1.360734000160309341e-02,2.501891586968979942e-03,-2.720782191882240822e-04
-2.518706092883520389e-02,-4.096466597897992223e-02,2.488458750707304296e-02
4.315143633166362673e-03,-1.548208420219375145e-02,9.845715983341347260e-03
5.043514062687069321e-04,-8.591427391941741654e-03,2.805933633606177112e-03
-7.686967096112271025e-02,1.337927661673114256e-02,8.209876735344298626e-02
1.668831516255100608e-02,2.695818118058516261e-02,4.488630302343599165e-02
1.027071911760593648e-02,-8.524585216945905486e-02,-6.897474233988092583e-03
-1.679834565428605904e-03,8.263438607430853566e-03,8.375056403570302690e-03
2.355346449591707442e-02,-1.432553250708547797e-02,-8.726457921656275568e-03
1.729022279780198165e-02,2.678760413599674123e-02,1.478839913829782006e-02
-3.818974105815146208e-02,-1.757195258321806591e-02,-1.164735733441915957e-02
-7.607998856268256838e-02,-2.623779608197242263e-03,-4.416760409354857086e-02
-1.427505014429023868e-02,-5.139328278134486921e-02,-7.178014974158300823e-03
3.642168959672240081e-02,-4.060877754650055182e-02,-3.587729753360098528e-02
1.364483917752244528e-02,9.539400454004191843e-02,-8.841446609592691630e-02
-3.776219379839308374e-03,3.501741774346599223e-02,-3.855607782354800173e-02
-4.706797226124352640e-02,-2.981616262493408734e-02,1.576285651808433455e-02
-4.817729269602864101e-03,2.240756448800068634e-02,2.028493329874645965e-02
-3.926323888142868070e-03,-3.472819960654394827e-02,2.755601703462352836e-02
3.531375271191188742e-02,5.553955598695068524e-03,1.761228804815589109e-04
3.498269219793765511e-02,3.601926795041508755e-02,-6.971509033669186228e-02
1.551898957280641901e-02,-1.790403467765696796e-02,2.054267625749492746e-02
1.822148640165311903e-02,-7.942139732190467080e-03,8.082738066659009291e-02
6.829184036330118723e-02,-2.958875301735412397e-02,-7.163037790610836397e-02
-2.461008256690280088e-02,4.790096627697094239e-02,-1.401230119653176509e-01
3.666899405014463611e-05,-7.583089437885920381e-02,2.196038211345367058e-02
-3.881933455280314055e-02,2.466843429396287091e-02,-4.405093805702894709e-03
8.705761208194785425e-03,2.610049264946652514e-02,5.928597228785396911e-02
-2.975640978438286177e-02,5.253472650248183079e-02,-3.974086200223084925e-02
2.843093674401351093e-02,7.930308686680979935e-02,-2.958989038932777205e-02
8.100215409677166342e-03,-3.992474140178590980e-02,1.170591079644184469e-02
2.309672112374774200e-05,-2.353785870330148827e-02,5.861441910203958605e-02
-8.834561464415215809e-03,1.982772586152745792e-02,-2.420518413684439457e-02
-2.010907179235761275e-02,-4.831902971242413303e-02,3.226639931608181466e-02
1.675119176980022218e-02,1.940307119714490547e-02,1.136384302758531029e-01
-1.903491947012626861e-02,-1.879188971413798051e-02,-6.950211755201175789e-02
3.922637494811198611e-02,-3.758070279066832303e-02,-2.055587499524347272e-02
-2.526721968991585323e-03,-4.331721081610106984e-04,-5.704484870490289126e-04
1.455111127444222094e-02,5.434770815239389243e-03,6.943499501787352146e-02
2.539226425694878289e-02,1.776323145684639490e-02,5.048273502805609991e-02
-7.755212041159759151e-02,4.699233660213730790e-02,-4.177528608594193588e-02
-6.659779160584163027e-02,1.995936209243969264e-02,1.954256906556287032e-02
1.545337493116117657e-02,3.074119991688315824e-03,2.436380346247136661e-02
-4.220023380266650637e-02,-9.270859739889593387e-02,-8.842237693334956475e-03
-5.966738081190611819e-04,2.575444732680808382e-02,-3.123032327136180189e-02
2.526640173534302342e-02,4.012409990222041978e-02,1.452391726204727354e-02
2.246536228084383344e-02,-6.431788724788283125e-03,-1.150398370839008332e-02
1.245825591530720818e-02,-1.184392183323155351e-02,-1.199577935327229838e-02
3.069446596272548677e-02,-5.644686816141960412e-02,-7.132655268705126450e-02
-1.206773299802790800e-02,-1.917630011653235697e-02,-5.118765849149600061e-02
6.019237628372982318e-02,5.188781358848226777e-02,2.990134773001416543e-02
1.485742530330630288e-03,-2.126280978849818398e-02,4.367119420233188387e-02
-2.293386334463317494e-02,5.636270345738313842e-02,1.880473808920271606e-02
-9.146846419080477061e-03,-3.763203630382683240e-02,4.848822346645761949e-02
8.015219481654500822e-02,1.858797254221258985e-03,4.056066531992672669e-03
-3.178602971474246697e-02,-3.964926424455330473e-02,2.789903811631265496e-02
3.449233558702467783e-02,5.394233859497505473e-02,-2.761028277332741240e-02
4.557414926526880822e-02,4.049810721358589743e-02,6.601633600871680517e-03
9.984487369383872324e-02,-4.541490278245548587e-03,-3.502704337593140222e-03
-5.273774046356482365e-02,-3.895683095783866040e-02,3.561873438426943483e-02
1.242126565971096719e-02,-9.199840818819029001e-03,-6.202181998609304636e-02
-2.012732527149690975e-02,2.567223588404770815e-02,4.796791807625545162e-02
-1.910891957874883557e-02,-1.356140583051044721e-02,7.385184991970596309e-03
1.040136099274034664e-02,1.103110173690464990e-01,1.045939687482731750e-02
-2.512698495789101889e-03,-7.651830950687003863e-02,-8.284735593605326021e-02
8.170211669557857215e-03,1.059955152183954773e-02,-2.517297153382832761e-02
-2.529515501051012027e-02,-3.130049727585362818e-02,3.326594115560160391e-03
-5.738838947211574726e-02,9.695351848834199426e-02,4.094547598988397541e-02
2.644378218442594575e-02,-1.408531360716229475e-02,4.137996390727359877e-03
6.816009525010517656e-02,5.135982567792634484e-02,-3.171816568756983395e-02
-2.042582761970166468e-03,5.178542193696252134e-03,-4.197495848376232158e-02
-5.772502050082825575e-03,-4.649243826310613527e-04,-1.778392388513659952e-02
4.236696911031993112e-02,-7.633110682556248743e-03,2.345521400897137426e-02
-1.443102654160815547e-02,1.157203848507440749e-02,7.057001927636441518e-02
-2.676190077761387079e-02,5.568881582312884548e-02,3.680131386150068545e-02
4.358783078729393246e-02,2.763727776113153109e-02,6.130517108480648680e-02
2.670974375976728488e-02,-5.318205641184048892e-03,-2.276799113857613105e-02
1.294440835458268366e-02,-4.724467105869364046e-03,-4.816537340869319478e-02
1.504024379586701814e-02,7.624429582492005253e-02,-4.703983214737723906e-02
-6.824412780489733793e-03,9.163411814188383853e-02,2.184141789268471620e-02
-6.153865168600959482e-04,-4.973978391109775202e-03,2.517392194748551207e-02
3.717789657870595229e-03,1.045579576056299316e-02,4.718267503650586808e-02
-5.784671415464676461e-03,8.463810984065660292e-02,-3.256836742681509106e-02
7.686044292584595650e-02,2.713676568859469534e-02,5.909043027939753050e-03
3.844796477454641426e-02,-1.594003522481173864e-03,1.273717641316527219e-02
-3.077478271768332302e-02,3.614869618827121645e-03,-6.298292830218140369e-03
-4.008095376923127839e-03,2.179235554958070670e-02,8.261618578968611681e-02
1.096400238192949891e-02,-2.837776823705685098e-02,-2.971844639700035873e-02
2.096939220524086586e-02,-7.373336518302554821e-02,9.018058363465173560e-03
6.860632819150144779e-02,1.160592972498077947e-02,-2.820307802923280663e-02
-3.496516446340569573e-02,1.925079736406543410e-02,4.622609233809352874e-02
1.457391870930385691e-03,-1.765585511660886994e-02,6.300565520778458883e-02
1.254045214491729919e-02,-2.092092184881738648e-02,6.756824044819374764e-02
1.836252449541240367e-02,1.182829556665521836e-02,5.659143306813164270e-02
-4.846703144876302743e-02,1.936972803183180727e-02,-9.072767463268063826e-02
-7.838754872421911657e-02,-1.292475250836451310e-02,-2.492361986304595170e-02
1.068517639846748753e-02,7.368830120286250403e-03,-1.978501855745538884e-02
2.918182835805825312e-02,5.457704619115479050e-02,1.948743865532157060e-02
7.675113492917522151e-02,3.463827459857206185e-03,4.436526323905279866e-03
2.877096727685464830e-02,1.173429349631129742e-01,-5.655339772539029475e-02
-9.069039019354782627e-03,-3.931283562349546096e-02,2.596662750490116162e-02
-8.621109793221214124e-02,-3.173810379254581732e-02,-7.033710289203479182e-02
-4.981483369636981184e-02,-3.728696468949346116e-02,-4.820378556758515842e-02
-4.970428313216802146e-02,7.982184292180557333e-03,-3.485207437607281550e-02
-1.838618292241889522e-03,3.448205113690954587e-02,1.224049966205539462e-03
9.931112841078774955e-03,4.239127655498951819e-02,-5.743355328117100145e-02
2.077350382496703438e-02,-2.044991908193400168e-02,-6.344274149529115225e-02
2.422869134791589413e-02,4.033629795298897258e-02,-3.747257842074722817e-02
2.764110469958288782e-02,-5.845229286053529871e-02,-6.865786117560533641e-02
1.111192603066845502e-01,-6.875631026155225312e-02,6.285954731329775058e-02
-1.815618763565296240e-03,3.354577526087776373e-02,1.922023796655730407e-02
8.477472966481124084e-02,1.851088012945253589e-02,-2.065157990427133120e-02
-3.268624728534108570e-02,3.060895969210680398e-02,-7.157155715854711386e-02
2.252265383374215529e-02,1.671505281688028324e-02,1.356167828644562132e-02
-2.067559933432513639e-02,5.036654314174518476e-02,-1.310503128136063060e-02
-9.523099438430099664e-03,-7.001392355073290941e-02,1.780215661677504030e-02
-4.188638839947073089e-02,1.909024316376782548e-02,-4.792392579719013945e-02
-6.963554333782426276e-02,2.175133387401914989e-02,4.787797521255915401e-02
-4.951383145286846615e-02,1.761034769639737915e-02,-4.429278442664608822e-02
-3.668158197143416011e-02,-6.607486334917100912e-02,-3.281532137801050283e-03
-2.904864099968925903e-02,-2.861024089515444915e-02,-3.165604882953123450e-02
-1.186616594617025296e-02,8.467830011111931662e-03,-1.442095962562425435e-02
-1.732648852794343997e-02,3.433363808180017740e-02,1.716840665558558576e-01
4.125444068092252135e-03,-3.619897531398078711e-02,-5.113922260558630833e-02
9.171894834741069549e-03,-1.067309460422899946e-02,4.208451262388578085e-02
-3.213898513292789277e-02,8.241041298010993651e-03,1.208165096004367584e-02
1.563052001104650937e-02,-9.699232467702954830e-02,3.469751659471635719e-02
3.235461912692094016e-02,-1.490680279189120390e-02,-1.292788387084781859e-02
1.022471852499665101e-02,-5.901061368104303095e-02,6.876519624543619286e-03
-1.060720646370524461e-01,6.922440576965293657e-04,2.975524541801624623e-03
-5.389330375879897161e-02,1.133356441189682998e-02,1.341744776148990487e-02
-2.659493380706495422e-02,1.727443311999314959e-02,-1.037496200766834745e-03
1.459809062799704259e-02,2.157754986293713290e-02,3.538634295317785727e-02
-1.034838780915874881e-03,3.390722126126882729e-02,2.653893480899447918e-02
-5.727195445264249979e-03,2.524316961302083481e-02,-1.087825766581508764e-02
-7.611843507420523736e-02,-7.748712018254516436e-04,-8.350188233478937627e-02
-4.241530537828842179e-02,6.651175394563156595e-02,-5.990868093417883039e-02
-6.182136706391647141e-02,1.816624302646900266e-02,-3.397342079688845523e-02
-4.987753027228847280e-02,-7.517724087120766785e-02,-3.209922269466069372e-02
3.848248367262592506e-02,-2.859629223693392619e-02,2.172813477977905347e-02
5.604980297452122340e-02,-6.580926523506217506e-03,-8.332267028589157706e-04
4.235824373146884064e-02,7.318419325566165312e-02,-8.757230219481548783e-03
-5.138459596031283438e-02,-7.523922675806675453e-02,-4.033118973857278272e-03
1.621006170443954272e-02,-1.082572961046386444e-02,-5.873935065159594654e-02
6.481938035409214212e-03,-2.143172402075374343e-03,-1.660695053526781975e-03
-5.472070719889339865e-03,-1.080798732108930946e-02,-6.626034949840284294e-02
-1.673350978292571095e-02,9.635934047077850118e-02,-4.011936067568296765e-02
1.777048420421213637e-02,7.918549393155741023e-03,3.481572162028807871e-02
-4.570410274253521032e-02,5.603637809662343622e-02,1.957136983047654336e-02
4.874122320982982731e-02,8.701976525691459963e-02,6.320813721662824070e-02
2.620499040424652953e-02,-5.956300037365983013e-02,4.368576397328872291e-02
6.596451587698279329e-02,9.773033660768369255e-03,1.358228434524820852e-02
5.899713192549370551e-03,3.410575836696735919e-02,-2.126013203275882099e-02
3.153730399852189281e-02,3.418394891263978885e-02,7.694259493113590753e-02
9.242846183403730445e-03,-1.730725646794093950e-02,8.465646116721203818e-02
-1.971025560172046109e-02,6.681356552863337850e-02,-4.936475785358846163e-04
1.381408207257050699e-02,-8.074106323333822555e-02,4.494769039544119736e-03
8.068471946292427033e-02,3.281678367162270404e-02,-9.644087217959007585e-03
1.631136561659981069e-02,-3.275301533406219101e-02,5.936301238468736502e-02
-4.373494601617886925e-03,-1.349549610330787706e-02,5.803160847498605585e-02
6.309229978871928879e-02,-3.269393522791122671e-03,-4.660199231589947505e-02
-6.504836648701120549e-02,7.499571246003539082e-02,-6.928102851480896773e-02
4.192877454153885741e-03,8.369206103902229743e-02,-1.751658508624911667e-02
5.696666168575376804e-02,3.227597849793020085e-02,-3.738519537461405806e-02
-1.257948151524845501e-02,3.394622014023203349e-02,3.528538141168421904e-02
-9.999078313670948376e-03,5.747836599808295310e-02,4.111494330247452561e-02
8.956238703695054704e-02,8.248928729715111763e-02,8.057723231025035182e-02
2.838210779183958973e-03,-3.908983507060514312e-02,-1.256293830530359236e-03
1.785873244429528328e-02,4.439013634696667432e-02,2.011585941771307229e-02
-5.883439408093573547e-02,-6.272076361052773830e-02,-5.214681765378609973e-02
3.260374051552064611e-02,-6.041765078949048323e-02,-6.283040214513246511e-04
1.108289553077876355e-01,-1.489287476401563240e-02,1.505755759471639511e-02
6.327191538169084362e-02,6.066518897131156773e-02,4.187353669294029135e-02
8.504861517276229507e-03,-2.834338797740787105e-02,9.515794079970196426e-03
-1.012479366186572194e-01,-1.690367594446288285e-02,-3.198819614057417382e-02
-6.035403058364466333e-02,-7.963107403709890418e-05,7.105546756055361457e-02
3.753396206674361468e-02,-2.036577632904861684e-02,-3.298232005997676214e-03
2.884680701422398172e-02,-9.649900475827590321e-03,-4.560987199998459835e-02
1.103403062590631312e-02,-2.426389540966947950e-02,-2.574035851428624344e-03
-4.153257752217056481e-02,-5.830571085568467954e-02,2.703413399674772441e-02
-5.429398077836550263e-02,-7.320345081796511555e-02,-1.187563532029161338e-02
5.499919752966205694e-02,2.512464334621983611e-02,-7.533322791483256062e-05
1.348572435360007316e-01,1.278971499361401809e-02,-3.892124704141394775e-02
-1.252463206023081421e-02,8.255812897078132484e-02,-2.453410090575034591e-02
-8.845950097138404952e-03,-1.368481121926704361e-02,-6.073794710864997490e-03
4.099165367782301589e-02,-7.079658318651797788e-02,3.357968022038858996e-02
2.710182795514141235e-02,-4.214967803544356940e-03,-9.218770376510326825e-02
-2.768983492792703380e-02,1.601071313543655020e-02,-1.960438341244269758e-02
1.201711073521501486e-02,2.210476434631636518e-03,3.561101360238227986e-02
-3.606358524007462207e-02,1.182691770893236488e-01,2.428073180042876478e-02
-6.949986598278463934e-02,-6.442285703002828545e-02,8.546161601395783902e-03
7.270999538583121369e-02,4.642095905910791770e-02,1.272892581958730849e-03
2.033352873269013428e-02,-1.264195242715202352e-02,-3.588677427076759126e-03
-8.385554709884878236e-03,7.027905397568816499e-03,6.516714151344329964e-02
-6.141891292912633749e-02,-1.234428881204813200e-03,-2.885684414663522088e-02
-5.421158640703373222e-02,-2.619166853026742500e-02,-9.792236779969140659e-03
-3.520277470637477035e-02,3.022191439321188916e-02,-2.093476417844131188e-02
4.393571959528178722e-02,-3.966158166984955213e-02,4.950867144896865107e-02
-5.925132140990728435e-02,-3.012224346431291618e-03,-6.093266860099161991e-02
-2.233518177322083714e-02,-3.365443445539608586e-02,5.542605621025850637e-02
-9.292102236463682186e-04,2.234927282021195727e-02,-4.585339599823461815e-02
-1.097082939712931832e-01,7.129806944024099161e-03,-2.773981829696273160e-02
6.256358156998481634e-02,7.943346816630605586e-03,5.250406611511062444e-02
6.393597960479235898e-02,5.479557016388039020e-02,-5.962100617085423770e-02
-8.648205643994339581e-03,-5.682181530919120857e-03,-9.060722022274068921e-02
-8.107171829400207363e-02,9.291312931849253498e-03,3.022713497715572017e-02
-5.019395260396408709e-02,1.543578042570034788e-02,-1.070767751527783654e-02
-4.827393083463641515e-02,-8.526503227915184502e-03,-1.274055437765763410e-01
-2.515825486420450452e-02,-5.596101468737000413e-04,-9.190412886981658147e-02
5.314240339580888345e-02,-4.550271402011782373e-02,3.346526830311014056e-02
-4.955659926167238667e-03,-1.970603847595257894e-03,5.842331180324355361e-02
4.792721786530538403e-02,-5.643007924427739797e-02,6.948823242062210359e-02
3.489402935958140634e-02,-8.541794264068159823e-03,-5.962778813150252169e-03
-6.419094655344462913e-03,-4.876668387220844253e-02,4.884598775912302876e-02
-4.788176173807077995e-02,7.317053862311838353e-02,-9.796066360274910401e-02
-5.777414242712338582e-02,6.374388690909046917e-02,3.817046229397472873e-02
5.140755529700714865e-02,-4.827931418727433865e-02,6.075984788618796900e-02
-1.089341187482855550e-02,-8.710970072603210074e-03,4.890395148716948984e-03
1.382936231858806521e-02,1.598301504890378699e-02,1.306912792497929438e-02
5.168384948705569658e-03,-9.554614637231470184e-03,-5.189711608267455478e-02
8.801937413869743987e-02,2.340565138384483740e-03,1.617131497672336105e-02
-1.010410475693517560e-03,-1.789202624005085951e-02,-2.742736658779276401e-02
-2.595770147445873588e-02,3.153299340344561941e-02,-6.994226531474820319e-02
-3.961113511396874981e-02,-2.720187871923276240e-02,2.242399111728565764e-02
9.128763291285870232e-03,4.264395645467965873e-02,1.915329943651350800e-02
1.854175531287357865e-03,2.881507696356494161e-02,7.836943614908904038e-03
5.060188858311433224e-02,5.339375177689754254e-02,2.353455009840624279e-02
-1.649769787871166460e-02,-4.793981693423766260e-02,-2.865484808807322592e-02
7.285498583171454157e-02,3.331396794909803616e-02,1.270569881683154302e-02
1.467985254932910495e-02,4.910376675265287066e-02,-2.808751371348214634e-02
-2.901088491424395552e-02,-1.034752757484657575e-03,1.634860332031047581e-02
2.905139252656496057e-02,7.987377810888532381e-02,6.884449486520693995e-02
4.510487000532332515e-03,-1.615716910286040323e-02,3.152113110840500804e-02
6.391316601864625857e-02,2.553618171768195361e-02,3.342902882350092669e-02
5.466183895779444871e-03,1.033029656385268079e-02,-1.741223833953977132e-02
9.287298377604264951e-03,4.442242658121923343e-02,-1.228423563324323314e-02
7.162421602345714344e-02,1.706388136427374955e-02,1.007224730239383338e-02
4.942979456395413945e-02,5.441117905803779381e-02,-9.050456279629860712e-02
4.369888991929623406e-02,7.711245879907248010e-03,-4.519659334733896333e-02
7.527867004537233675e-02,-5.595437778826951175e-02,-8.849210258331779988e-02
-3.453447060431727444e-02,1.918323917448426161e-02,-4.885845349387445830e-02
-1.799278693022968167e-02,-4.746461440439060653e-02,-1.894901499671017980e-02
1.686311539898404516e-02,5.008827438806191107e-02,-7.609960685364874911e-02
-6.624576685001580534e-02,-4.783676103958148934e-02,3.056817836344139644e-02
6.339526086010571770e-02,-3.953356238194902922e-02,4.357593304535330864e-02
-6.598353023060830880e-02,4.376344864072641283e-02,-4.963980081552001739e-02
-4.032924351535500940e-02,2.293818219402291025e-03,-4.475856224584445764e-02
1.132560487136396316e-02,1.964454369596507766e-02,3.965064179157957308e-02
6.374211545976482540e-02,-5.272693976673559907e-03,2.512373452790139794e-02
-7.800540502045032187e-03,7.900981043276274207e-02,7.678298945519536345e-02
6.669659622911215668e-02,3.744800122716115953e-02,-8.103893734632197990e-03
-5.964885829813791618e-02,-3.719074816007627952e-03,-4.645676164771014860e-02
1.963944374770664261e-02,1.373253251522594739e-02,3.416806632963778709e-03
6.307867756638189938e-02,-3.958910606732991139e-02,-1.426967670663970358e-02
1.507423031400169020e-02,-5.362782620717068682e-02,5.371167969123679352e-03
3.175336785929590983e-02,-3.852780128652392999e-02,-2.934495206963795024e-04
-3.194345039037666673e-02,3.630681508703934718e-02,-5.291120044483371698e-02
1.300506871809434944e-02,-3.977515291365994526e-04,5.508785171518260082e-02
3.140359794317688219e-02,-5.552746698529575226e-03,-3.166107550008546295e-02
-4.754655103741626393e-02,-1.033013588474897132e-01,5.308491328698913825e-02
7.702210124978361126e-03,2.434717747685311538e-03,-7.826981745796783921e-03
-2.321046974045165058e-03,2.946182939046627924e-02,-4.955295668865671715e-02
3.917100285072216276e-02,-2.075714486500962117e-02,-9.563404393945268075e-03
-1.777851996302878086e-03,-5.472988734148075823e-02,-6.406709366991858792e-03
6.036547754598033805e-02,-7.374241498379069046e-03,3.804932486643623074e-02
-4.785711939678894550e-02,8.782402366752097359e-03,-2.086625942992282809e-02
1.522912018939923649e-04,4.611960632888031930e-02,1.102079002357842299e-02
-6.529202536177395461e-03,9.465758476460015003e-02,-1.908814916892087642e-03
-1.852849391923396677e-02,-4.409349438312083758e-02,7.305839598521829924e-03
-1.511786706489682067e-02,5.249511574500781430e-02,5.780144461561676633e-02
-1.207012993761434477e-01,1.665867509224717991e-02,1.893488652206342521e-02
5.966943948613565724e-02,3.036329632333420112e-02,3.148553832257545287e-02
1.149464959400603309e-01,-4.083074724533591014e-03,-1.520612508646953555e-02
1.709565965374601482e-02,4.338425944941476375e-02,2.928163674673781025e-02
5.012029772596365146e-02,5.207027701496773353e-03,-2.486893474405326571e-02
-2.400663818377255301e-02,-2.356081652376777486e-03,5.257831318461889808e-02
-2.659264054448042328e-02,-2.151201539397163895e-02,1.287767860587218927e-02
7.564681985179184075e-03,7.767683723590208811e-02,2.560698264229464491e-02
-1.832843432271409265e-02,4.515090559094778883e-02,-1.167221716042119856e-01
-2.629388971683334353e-02,-1.537338060009026813e-02,-2.018104015994406225e-02
-6.060355856665897850e-02,7.598534125200333278e-02,-1.926921837118239847e-02
4.785647919018137103e-02,4.570613500708520238e-02,-1.728977848619428145e-02
-2.581419199135002920e-03,7.239781025914019882e-03,-1.025202793120411765e-02
-2.026637263192810831e-02,-2.234749314644815868e-02,6.026863698009439496e-02
-2.359898694331982391e-02,9.874009145409295973e-02,-2.068052461084964391e-02
-1.608467619301775370e-02,-4.399020566683794348e-02,-6.625504435897150435e-02
-6.325493888013543342e-02,4.545428160649879479e-02,-7.664870275997044680e-02
1.276846785341955760e-02,-3.840268083463371784e-02,-4.420340565785787351e-02
-4.625883485446101451e-02,-1.482967945734617321e-02,-2.610641343514454732e-02
-1.525413776054272003e-02,-1.427037631892780212e-02,8.697253709213299475e-03
-2.123775963615952625e-02,-6.563810253606281592e-03,1.398304653501448308e-02
-5.322520747654880570e-05,-2.191402628662387359e-02,5.410248999698356528e-03
4.813033380020792507e-02,1.601609047074691082e-03,1.390946342391495040e-02
8.102319689649886691e-02,-3.369411465541752304e-02,5.278490668687037431e-03
2.232270987075257729e-02,-1.140948557905180211e-01,-1.965252263816896078e-02
7.692541054311824791e-03,-1.412339381346071517e-02,6.814136836111343853e-02
9.455457098901417883e-04,5.366327283166703183e-02,3.400312626398164367e-02
-6.110800430150750001e-02,1.084902243169665569e-02,6.359351589688191572e-03
-2.399951340135507427e-02,-1.651753029153078811e-02,-4.772625912953014360e-03
-1.443793051533532809e-02,3.550513852876660548e-02,-5.971588328262569106e-02
1.312228570685334411e-02,3.682966429234183631e-02,-1.253871630085183139e-02
-3.561893556032903752e-02,-1.983105533696224998e-03,-3.639429986796260258e-02
1.011125474477879253e-02,-2.048030208017719012e-02,3.799076817048522431e-02
1.149734616721289661e-02,1.179497705460900644e-02,-7.206727564852687638e-03
-9.069765677283089800e-02,1.453589052044013986e-02,6.029830213480967538e-02
6.690380736748313684e-02,8.604741134216212228e-02,-3.518906693317074789e-03
-1.507986636849433827e-02,7.482114040967607904e-02,1.370692126934321131e-02
-2.897435917967539423e-02,3.113770634006390869e-03,-2.119044008397127921e-02
6.944384437770179108e-03,-4.123044804662148732e-02,-6.097740025134104624e-02
-7.454816203787185437e-03,-5.139830212468585874e-02,-1.477419396216109702e-02
-1.742950492496573092e-02,2.638102518903265303e-02,-2.217746338909190469e-06
3.028553102990580795e-02,2.316190786810607208e-02,8.791386126516443147e-03
1.564236322736812720e-02,1.281613828461221002e-02,4.175918080281523087e-02
4.233108132519474570e-02,5.722102435222921335e-02,1.502371861646354051e-03
-5.519073830016774096e-02,-1.973791374849391891e-02,-3.734626270713964358e-02
7.519500833443153176e-04,2.986348873537803331e-02,5.272661244745231734e-02
-4.010823199420956303e-02,-4.973003827632700713e-02,9.752279144617923001e-02
6.784415402200066891e-02,2.535258037914188758e-02,-7.392298129698390841e-02
-2.925501087878729783e-02,-6.534894514230894791e-02,1.681340393265493005e-02
-2.250305192933392648e-04,-3.960162280394075029e-02,2.165578760993222551e-02
6.897358345027132867e-03,3.030270019006624238e-02,2.988145369649056540e-02
-2.197160204876640738e-02,-3.413157178309408901e-02,-3.504769208191330782e-02
1.661019325759607868e-02,-5.251844654935194229e-02,1.803789893115784540e-02
6.863651321396091465e-02,-5.731754212891577299e-02,-4.647545962766697764e-02
-1.021139459563941004e-01,2.387867872463848504e-02,3.173188217528525451e-02
-1.065736931730459566e-03,-3.469022249762550476e-03,1.870397281878774520e-02
4.971492660855358209e-02,7.053492773249233488e-03,-3.771318811059768544e-02
-2.036475722774951091e-02,9.374446488352809748e-02,3.107575218278693652e-02
2.516703907141317614e-02,-6.114986868435705325e-02,-4.009848567163029620e-02
-1.345561196152838916e-02,-3.570913684473876748e-02,2.055536801555137710e-02
3.116914700211898676e-02,1.083187266212889835e-03,-3.998759925360361595e-02
-2.763922966696492553e-02,-1.876005722245397420e-03,4.632038859164977485e-02
-2.057510478577806792e-02,-3.232933099063417526e-02,5.855751819525567559e-02
-1.818283160564855214e-02,-2.406788254053129905e-02,3.597148998677406756e-02
2.732244337826364097e-03,8.168235888307434633e-02,-1.523701534846722168e-02
-2.243413119983717757e-02,4.148994673530473180e-03,-1.212263412954821089e-02
2.239353294935319053e-02,1.552180155918983853e-02,2.118722416241605386e-02
2.494083359457842722e-02,-2.055597979805873221e-02,4.356114969023841543e-02
-5.604759818861859699e-02,-6.960785837890995364e-02,6.265644829302158270e-02
-2.291729430934351733e-02,-2.462078243391781565e-02,-6.017717204931053582e-02
-4.865406343320647503e-02,7.070658663191502213e-02,3.724340244452119253e-02
-2.656522457519145536e-02,-1.407054327227873908e-02,3.427279752626825882e-02
2.899825711683582524e-02,6.426862957857158720e-02,3.309208853420940368e-03
3.638473982392126382e-02,8.311215642927881342e-02,-3.402424001225442005e-05
-5.928403099334478982e-02,-1.727273385664353580e-02,3.480806499515381319e-02
-4.474469801623318782e-02,1.935148027254129585e-02,-1.874714497029278046e-02
5.414795798731444898e-02,6.346832746537423020e-02,-2.946620021630049283e-02
-7.402746060919609961e-02,1.350981525489534582e-02,-3.434911501245421078e-02
-1.081105420668057072e-02,1.651944347891285553e-02,-1.245318532622771007e-03
1.002413137532562858e-02,-4.254619371354791124e-02,-5.130504376793251775e-02
2.384114384337284245e-02,-1.927183869004303954e-02,-2.395518930009232078e-02
5.487200238466300763e-03,1.394383068632944504e-03,3.944035775618427719e-02
2.620252181760021962e-02,4.941273671289415220e-02,-9.838064898955213577e-02
-3.266354668178572673e-02,-7.915768623497781986e-02,2.363722893111420281e-02
-5.366940509900976902e-02,-5.791122382571908811e-02,-3.765684817417683065e-03
1.104799564245154478e-02,-5.778479253547094685e-02,2.058535951063184682e-02
3.559175917565109842e-02,4.254978471890599745e-02,6.834455481560318402e-02
-6.718052059252153929e-02,6.207013604411346780e-02,2.483117029146251001e-02
-7.043501558101061821e-02,-4.682508046369726618e-02,-3.551959125694101327e-02
5.361509583836491372e-02,3.365828336565297729e-02,-4.200903189767812157e-02
-1.200698951208837954e-02,-1.445594239416117012e-02,-3.931641348790959611e-02
-2.501343759551679508e-02,-4.462383906492863733e-02,-4.958821172999117177e-02
-4.091976032883139908e-02,1.335193250502992278e-02,-1.589317418489594527e-02
6.700842578323717991e-02,4.714022836705545477e-02,5.821425783303292578e-02
5.416133489837936764e-03,1.033903276563002682e-01,1.488418785430900559e-02
-3.144119325116855545e-04,-6.360928866590835618e-02,3.644907196042322748e-03
4.402355657684007412e-02,2.961756327683455828e-02,4.004662336369192721e-02
-4.062556990790411326e-02,-7.605479775969331557e-02,-6.684514826401007082e-02
-3.561975336405540787e-02,7.900161740246637587e-04,3.337992642725815667e-02
8.000660497366975826e-05,-5.351546326407072979e-02,-4.889323377549251171e-02
8.910406280925178835e-02,-3.538830574570986376e-02,2.332472199684995987e-02
-1.374610094784096265e-02,3.181092063459796393e-02,9.810995718742634986e-02
5.901104858332595349e-02,3.492729855130356081e-02,-3.304638739718272766e-02
-8.171842291174010592e-03,-5.600305780487989382e-02,1.739380598690238797e-02
1.113562524329572700e-02,-3.921604572326813781e-02,3.156295948593104694e-02
4.347148890033061125e-02,2.567387215528739441e-02,-3.636342069360728319e-02
3.850806230701753208e-02,1.816079667467350792e-02,-3.099629239028534738e-02
3.902189615802222067e-02,-7.687315978144773632e-02,-5.937331972019667566e-03
5.729394013851467349e-02,-7.528122960979492795e-02,-7.650718875642609218e-02
1.534006627685817470e-02,-7.972789179955768260e-03,-3.472128728566940825e-02
2.438888079049958413e-02,3.238625304774174485e-02,-1.092614323859393381e-02
-1.022209595162196782e-01,-2.420466764848985472e-02,5.436570441554603589e-02
-5.756041331096349925e-03,1.203689758494931872e-01,4.481665623588353131e-02
4.889444663721006362e-02,3.152729990212584099e-02,3.081070999259730506e-03
8.366982014564730563e-02,-3.002618342336792548e-02,1.739880428126132361e-02
-2.349403322692938598e-02,5.671268921146876973e-02,-2.046736113977793564e-02
5.870539958305972389e-02,6.873280852276607289e-02,1.598983722879302599e-02
-2.455538318224854272e-02,-8.524801022185972410e-02,2.241222898821633100e-02
7.903712038509852489e-02,-1.277860552918428927e-01,-5.310139507385423091e-02
-1.475549260355416871e-02,-6.891249548191573197e-03,-1.339323620487279341e-02
1.591000900190979450e-02,3.223321382504946986e-02,-5.921056171058244888e-02
-6.961175249258030016e-03,-5.372070292861932245e-02,-3.535586526476866553e-02
-2.350252893082458924e-02,-3.426143861298756171e-02,2.254226112602259607e-02
4.884458059634857324e-02,2.779045130952748771e-02,4.389087933941616948e-02
5.868978703666026010e-03,2.113427520107334125e-03,-3.776699463770916837e-02
3.145626650592848583e-03,-2.081781670752501368e-02,6.363146991018311938e-02
-1.057047416144859912e-02,-2.024660837280393630e-02,4.171086723035528909e-02
3.664407679396788908e-02,-1.814997761210406305e-02,5.400544414601738535e-02
3.556404135541161443e-02,2.156807164524183508e-03,-3.392454101552039303e-02
9.396747782433989560e-02,3.292399950922293705e-03,1.840828475540239040e-02
2.317914992137089084e-04,-3.440461562356934844e-02,-9.624950203129143886e-03
2.877657880667302409e-02,4.072506152428322090e-02,-8.117713386815170185e-02
2.139782564273704640e-02,2.569703459748229682e-02,1.683009102598861939e-02
-3.215970644372447701e-02,6.760678653551839556e-02,2.871981725834208549e-02
-6.816904728238004640e-02,-2.523907513507485031e-02,7.940432935565229500e-02
-3.641598156677942899e-02,-8.879443848153435390e-03,-4.514429749375702475e-03
-3.548422425061389246e-02,-4.050450588820438819e-02,-2.323682046290134057e-02
-1.104133191642467371e-02,-9.694293224004288737e-03,5.062315506160153245e-02
1.872153931116677522e-02,-2.501399264575406012e-02,-3.652371157468210783e-02
-1.800438672558156775e-02,1.637149320246274881e-02,-1.141421382312316456e-02
1.913590473606798306e-02,-7.761999558633389529e-02,9.673967674593050153e-03
7.510356699874916331e-02,-5.153518205250420120e-02,-2.408681295244333165e-02
6.055262980060192174e-02,-2.136682517259375774e-02,-5.464377525388803419e-02
-3.476520261579234966e-02,-1.049110652338501939e-02,-1.039650153991262703e-03
1.004899236314609964e-02,-1.743787074182012037e-02,1.023092728689989350e-01
3.531683474770436161e-04,5.103693255358700970e-02,-5.153635293091614333e-02
-4.304624793213709250e-02,5.174743132483445446e-02,-2.752668938553742839e-02
2.874378874759143596e-02,-1.947972171521138510e-02,-5.358545710871421425e-02
9.074611064370735614e-02,-7.540748988927070337e-03,4.252784992116084286e-04
2.319689596858099181e-02,3.758281147500407843e-02,-4.569317805618765965e-02
-1.287348740366035249e-01,-1.745096579000229853e-02,4.103399924678727967e-02
1.060079854082302542e-01,-2.087951789129038199e-02,4.581270341306730581e-02
-2.369097606193168448e-02,4.477999992385823386e-02,-2.464719523243969965e-02
2.516216455667214663e-02,3.893546653039114958e-02,-4.067430335995766283e-02
3.541856488565473665e-02,1.037012919160285387e-02,-1.271276784360935797e-03
-3.780666203451674839e-02,-1.247102758749514886e-02,-1.941315189272582731e-02
-2.840234004902648132e-04,3.791899325048452007e-02,-1.128582372377663796e-02
-4.153313940923482328e-02,-2.332755120826864384e-02,-3.700593218313021765e-02
-5.483501194869889322e-02,-7.117721767073691141e-02,-6.528049856332572565e-02
-1.636045729390740722e-02,-3.132517019652576035e-03,8.205237895901892897e-02
1.513252153813188401e-02,-4.601948248418124415e-02,-3.254885825249094478e-02
-7.179393357295781042e-02,-1.921739763706413126e-02,4.102188605478380296e-02
-2.743053836304378337e-02,1.573485058572846040e-02,4.810122914167684269e-03
7.675830476474359773e-03,1.390787430183124986e-02,7.395568718048171897e-02
1.098056541375088888e-02,2.793115480876496096e-02,-7.731759713806152234e-02
1.281138309454620157e-02,-7.644790717812609097e-03,-2.333924842773306679e-03
4.544517348754276154e-02,6.629364023958676799e-02,8.250930209309301211e-02
4.941228077172040573e-02,-5.471288208710629875e-02,-8.986816684059488860e-04
7.679493901429086666e-02,-1.991538848940282991e-02,-4.374714427383460252e-02
-3.527572152484973085e-03,-1.763898807979105351e-02,-3.619401311998328430e-02
-3.228865621720616169e-02,6.786478580794447213e-02,5.582421972319590725e-02
1.108988196243121810e-01,1.420970601871939789e-03,-3.037131416992897362e-02
-3.703192444432808900e-02,-3.759972184299115779e-03,4.434960632302638317e-02
-2.308624346682295811e-02,-1.355344338768760433e-02,9.866926458610394870e-05
2.260424390757897334e-02,-3.276150307401761580e-02,-6.077586825831234746e-02
-3.401185091767826296e-02,-1.545969309603815144e-02,7.374305703441137727e-02
1.922625127522968602e-02,-3.278320102649266710e-02,6.527228917669875008e-02
2.787268523195575096e-02,-6.297151717414128068e-03,2.496618988303285144e-02
-3.767359418773406909e-02,-5.170125453884159838e-02,-2.625699978829926229e-02
-3.737757590544677627e-02,3.804400204338449776e-02,-4.849784858314645265e-03
2.735635963220897290e-03,-1.315845501524608510e-02,1.567872734764293868e-02
-1.217614220395792438e-02,3.571707772626593613e-02,-3.405715835387659873e-02
3.331216776080129973e-03,-5.694253011438341755e-02,-2.542464746783700685e-02
1.362459683527576966e-02,-2.545096039094514248e-02,2.090349979994203522e-02
-7.070134996098570435e-02,-3.045100604415391932e-02,5.247799614874294055e-02
-3.292733467368406941e-02,3.636905875943483718e-02,2.798605093578176647e-02
-3.183145715546669557e-02,1.357261755186118905e-02,1.062919825264303959e-02
-1.453833857914181744e-02,-1.373035871339536515e-02,-6.762468718928445199e-02
1.533938671071028402e-02,-3.231532374346202108e-02,-1.699551025677713614e-02
9.683413619005497991e-03,-2.757692624787588115e-02,-2.668806972769437527e-02
6.895725941042178111e-04,1.591732867837852144e-02,2.568466909094680589e-02
-3.244831751189014568e-02,2.269751512037655392e-02,6.428104519092545099e-02
6.056165128194224145e-02,5.348615464606701342e-02,-8.299579421447474126e-02
-7.912090846872612063e-03,3.212668770098264098e-02,-4.921930680081310072e-02
2.059188309130994231e-03,1.295674675711714491e-02,-1.092427112825639229e-01
6.432974310073265832e-03,4.146057721624876735e-02,-1.387208882412195934e-02
2.387157049176916526e-02,-2.461284439747271277e-02,-4.469761294529385736e-04
1.221300746617522484e-02,-4.857616910186639270e-02,6.179758657132131822e-02
2.008104846714982641e-02,2.634896991804290545e-02,4.620185493809089716e-02
-4.734674259857705320e-02,5.588633614092033269e-02,-1.529020499218769133e-02
1.700475447869345333e-02,-1.428630646062503673e-02,1.839968459434624878e-02
-6.749308078902462558e-03,-4.117059820517635083e-02,-6.737257176743279008e-02
5.706771716825074364e-02,-1.568456170198961191e-02,-8.511778688500135082e-02
-4.247909309872525963e-02,-9.410989178479426363e-04,-1.248258290052405572e-01
7.848047052149940972e-02,-4.496391266282481064e-02,1.369468848386928318e-02
4.534775610357852371e-02,-3.263341187722713227e-02,-6.571828981852242957e-02
5.762238495481639827e-02,-1.878242146875772761e-02,-4.162042076120978790e-02
1.082200146930511614e-01,-1.454618743403253943e-02,9.434833868976147397e-02
6.304258864528027029e-02,9.556458665655583051e-03,1.010362895544905312e-02
-5.548531498863187861e-02,-1.253083120627769727e-02,-4.049082987131598864e-04
5.814034702302630503e-02,1.799183814772820078e-02,-1.002445595694901611e-04
-1.510173960242065967e-02,-2.145812014177272270e-02,3.351727603244337994e-02
5.289340088789937222e-02,2.404802872888913215e-02,3.878907282375437110e-02
-1.077881305472969675e-01,-9.089102011467911635e-03,-3.977837753993539865e-02
-5.842536805818644707e-02,-4.017608828105873053e-02,3.436569740725942124e-02
4.993245136897913466e-03,-4.233591435224803856e-02,-4.201169137227700467e-02
3.136222398110669052e-02,-3.909245055913721650e-02,4.084187179110956856e-02
-3.212767454387450983e-02,-7.192129888119842655e-03,-5.012620195766982062e-02
7.492994397271396552e-03,-3.094579596796335000e-02,-1.091510966458455849e-02
3.208501005526888383e-02,-4.705543100828758936e-03,2.573557037572760109e-02
-1.810198205778531383e-02,-4.170509010739046479e-02,3.547007776864405382e-02
-6.003125613442410191e-02,7.871454434844328898e-03,-2.174497671861428533e-02
5.256572751767023786e-03,6.539829766734001071e-02,1.750131029464152208e-02
5.378566886623777771e-02,7.951948534776938360e-02,-3.733402047561736048e-02
-6.165568625429505845e-02,-1.357814601033837179e-02,-6.429620528392640533e-02
1.731380649186882881e-03,-1.774792822521516905e-02,-4.210580555889420484e-02
4.584209066308244512e-02,2.282409678039010875e-02,-9.960724968883991060e-03
1.462578507074935828e-03,-7.820263232815383159e-02,4.536125508946067808e-02
-3.568164548220626592e-02,-3.983565924908335359e-02,4.474559171059907386e-02
9.776080499386971545e-02,4.362755560014672934e-02,5.149440811251822236e-02
9.694830031106053264e-03,-8.771173488081510485e-04,2.648944697051124064e-02
-5.168522269554021512e-03,-3.140874623151967970e-02,-3.355908180603226626e-02
-2.448195819886180361e-02,1.339187625175462804e-01,3.066226045275645407e-02
-7.745711723929486758e-02,-7.798443956751253264e-03,-2.828632701795353796e-02
-1.444829030880849345e-02,4.477223998560759394e-02,-1.483266901649089517e-02
1.356097080472452171e-02,-2.686341378021331328e-02,2.768980377189806871e-02
1.584276866130531966e-02,7.944134978489364451e-03,-4.112262598741536768e-02
4.912804053964566625e-02,-1.390667046755940557e-02,-1.956558651168473911e-02
6.732356260596890352e-02,3.735212007404453000e-02,1.155259786670104379e-02
4.822675460919294277e-02,4.252892346702875220e-02,-1.830034719339142940e-02
-6.863741282879261274e-02,-6.121522653645495443e-02,5.702249285195917089e-02
-5.335152515580487975e-02,3.085752700807564350e-02,-4.329416278136311719e-02
1.277358954444375409e-02,-9.072865589046574808e-03,-4.685442570296202702e-02
-5.585420056481595757e-02,5.541990025168201835e-03,-1.268623706400011930e-01
-5.855794205551453219e-02,3.371810568908194250e-02,-6.287991927790134369e-03
2.093622178401858408e-02,-2.948922533475551236e-02,-1.758789043320762094e-02
1.753091191726868781e-02,-2.343788214145549678e-02,1.390257043733634547e-02
-1.021850701537893244e-03,4.158790271522373044e-02,2.193477629337993798e-02
1.399959295158030408e-02,1.515161915320086677e-02,-4.034177159401360069e-03
9.745037606036413558e-03,3.263957789414347749e-02,1.166193152616540746e-01
2.094531096784327251e-02,4.769997869207955044e-02,3.602970522197267850e-02
-9.362243430203589026e-03,5.459651752440733419e-02,4.863743993005236604e-02
3.909965316263822738e-02,-2.242503009306444015e-02,-8.837343826683028130e-04
2.345447930885142737e-02,1.217009045824491154e-01,1.563605206721898526e-03
-1.421641946158807429e-02,-4.030214080606435434e-02,-3.766535759152217500e-02
2.373238973688038614e-02,-1.396794864945550933e-02,4.273749030113312836e-02
-1.728791514132264548e-02,-5.800947653489720024e-02,6.899943124875129730e-02
-2.989185875125660932e-02,9.925641910710006344e-03,3.909391243083857465e-02
-3.294468488982198184e-02,-4.046162124822289680e-02,3.576295253674794533e-02
6.765368663599363730e-02,1.543316485377753226e-02,3.610626393341687806e-02
-9.784623259732769252e-03,-8.155840554671014986e-02,-6.040295442406459075e-02
-1.192979586774506155e-02,-1.036769450811509882e-02,-4.960574191794133586e-02
2.476951434405240404e-02,1.389224610822496417e-02,-2.219943689027568251e-02
-4.413091577405975352e-02,-4.229930171655249538e-02,-2.052791742671900704e-02
-1.754429460536558599e-02,-1.577877444899557918e-02,2.145354117910606290e-02
1.603168130185768023e-02,5.171866809847208701e-02,9.393325009679939774e-02
5.332436178542870886e-02,-4.738747308495391136e-02,-4.036585950992019334e-02
-2.328008424205201682e-02,6.723730983802082145e-03,1.228572376209335730e-02
2.333175913189856551e-02,7.504383529831532007e-02,3.324562242591388300e-02
1.642595056884430318e-02,-5.795856152365839314e-02,2.049828804739793273e-02
-2.209910800378933962e-02,3.945544742554562417e-02,-3.079919191779672194e-04
-2.176234032042046601e-02,-4.124257255254253768e-02,6.369805679165094214e-02
1.710315222673324323e-02,-3.283333434485497665e-02,3.390434141889524938e-02
-1.292686217417738162e-02,6.510465695281780762e-02,4.704818996320460356e-02
-6.092461292451347571e-02,-2.023073047034928962e-02,2.791334816406380870e-02
5.796796082483837709e-02,-5.663505079831511295e-03,-3.916733887766560285e-02
2.665367498099827440e-02,-1.016463246006636938e-03,-8.578716598271763846e-03
-2.034352657634677305e-02,-5.611267869371958095e-02,4.445862597965744012e-02
-4.018342655374714661e-02,4.379798286291607112e-02,-1.687795847761219825e-02
2.034431056907650207e-02,7.014345844556338361e-02,2.859489843599693701e-02
4.209237028869497466e-02,1.573194654482815364e-03,-6.955765912491512770e-02
-6.213031847436100829e-04,4.087236574074218365e-02,2.339517837152457758e-02
4.957482072871352216e-04,-1.488416377916068796e-02,-1.423433988284037582e-02
4.312419037861471398e-03,-1.249960852395416884e-02,1.343289529116497606e-02
7.924336422088696166e-03,-5.094588997773658035e-02,1.696166110569448035e-02
-1.640728894343276498e-02,1.468169050343559427e-02,2.877958589797952743e-02
5.009252297370920398e-02,-1.036456854492960253e-02,1.827580451049919119e-02
-8.550882006417214951e-03,-9.075212075257726302e-03,8.029531162560205049e-02
5.453384799581403874e-02,4.741378655943472714e-02,-3.915147428328625417e-02
-2.213185329587052941e-02,-3.311935169791934558e-02,-2.885030567339445448e-02
3.117516241758090667e-02,7.715715735063004288e-02,-1.804253386099225268e-02
-6.299426957286634841e-03,1.263286212345909008e-02,2.124295512957301985e-02
4.281292485501080741e-02,5.336611821460338773e-02,-7.190982060469043244e-03
4.669397764487927954e-02,-8.134498799628965895e-03,-8.244692778008183565e-02
-3.924596034499140684e-02,2.617602437986374288e-03,-2.208960706180795527e-02
-2.143937606860156497e-02,4.052864391346008843e-02,2.750207360640327670e-03
2.664586158108737252e-02,-3.260097238036389899e-02,1.529223988789471696e-02
-4.702229514942131428e-02,4.971402229076374302e-02,1.110334313773656961e-01
7.902663819563990333e-02,1.289732697367722801e-02,3.680749619465591843e-02
-2.549558729682044680e-02,7.819439777315360940e-02,-3.137186555809032273e-02
6.644095734310785650e-02,-3.126911978471060005e-02,1.406225971460862371e-03
-4.298548748533265879e-02,-7.025362836748418223e-03,1.970078903899179570e-02
-1.381029313114121547e-02,-4.553393250565192923e-02,7.828064603545839203e-03
-1.946582680057433630e-03,1.462254083501888201e-02,-2.210829462825599986e-02
-1.498375061214183256e-02,-3.265404902090080982e-03,-1.641664157844958255e-02
3.162032061078568629e-02,1.074076409747300349e-02,2.394235477726915431e-02
-7.287405338530963950e-03,-4.738321906764769720e-02,-3.378715006461724402e-02
2.811066732562048434e-02,-2.614950821863590291e-02,-3.222141847467259457e-02
3.925790590557375059e-02,7.129705678887874806e-03,-2.769744849808668252e-02
-2.283691343671286067e-02,3.473369234132428311e-03,1.109165106562713318e-02
3.591465869092813623e-02,-2.475654592294551301e-02,-4.367642693337451393e-02
8.774612489633909149e-03,-5.296004213824853646e-02,-1.177118132101938851e-02
-1.630823303822550099e-02,2.721129030259106241e-02,-1.710587954088398782e-02
-1.890077112486817507e-02,1.651920736406177828e-02,4.718730749943875202e-02
2.360084747387643667e-03,1.953398222217832617e-02,5.472826660651052694e-02
3.149666655271560201e-02,2.188206607071368701e-02,-3.608237086607055111e-02
6.475757959963515664e-02,-1.032366667942139458e-02,-3.070412811990205770e-02
-8.019513425277946528e-02,-1.201390813691486465e-03,-9.685626716503138722e-02
1.384481158496267883e-03,-1.465542053909931267e-02,-3.912080001453423911e-02
2.811496784774033739e-02,3.665339918013091336e-02,1.068552388489029314e-03
3.299992562543883207e-02,1.839513816270878016e-03,-5.475526330024339978e-03
1.988995388630509630e-03,6.174613533121248166e-02,5.535061397803620054e-02
-8.562227266567632930e-03,-3.120532112037054800e-02,1.899928577828785201e-02
1.131094438900455239e-02,-1.576427072213144875e-02,5.005426425695907316e-02
-2.239355004453799300e-02,-7.866050661849584291e-02,-4.839130132126721884e-02
3.583726585421887628e-02,-4.385167572150205223e-02,-1.224216479479082881e-01
1.107004913423747655e-01,-2.006094049326986872e-02,-9.057456067631529037e-03
-2.942953441457789050e-03,-1.437763895021435760e-03,-4.954007220901530950e-02
-9.253597928357774893e-03,4.892944005052545821e-03,1.251636073073971941e-02
-3.204952586181777918e-02,4.171437472288939789e-03,-2.192343958144226876e-02
2.415328202973808513e-02,-7.680840680271514877e-03,-9.755710881131368292e-03
-3.312324388052202001e-02,-8.828399355193070064e-03,8.322681636051248999e-02
-1.316118100214644891e-02,-2.062779457253638427e-02,2.045415336988120475e-02
1.773022658287635523e-03,5.871134756884713833e-03,2.661498883934569279e-02
5.068433826888506938e-02,-6.451616330484370720e-02,8.128441790952320445e-02
-2.822337923986274408e-02,8.131805567048108752e-03,2.503241516151631652e-02
-2.433559535621704351e-02,4.455230488649739723e-02,-2.395155839382361387e-02
5.855791902875401994e-02,-3.137561231129570166e-02,-3.638706769671833097e-02
-1.512439425836946232e-02,-6.941838161333340439e-03,5.216054007383854295e-03
4.185508668303150603e-02,1.649039288650303373e-02,6.251509378550279550e-02
9.524140681347518719e-03,-4.415962299199076985e-02,4.154067467869064501e-02
-6.414946355376204001e-02,7.331171794039770262e-02,4.696347975802721980e-02
-4.804192500242521202e-02,3.885215022512435168e-02,-2.366617418453010810e-02
1.802923938206159316e-02,-2.164971936691329271e-02,1.659660107060821274e-02
-7.292472859923200545e-02,-1.316422162965623366e-02,6.730699453352022299e-02
2.117669698079496440e-02,4.004674435933065768e-02,4.996377591209390234e-03
4.899588097903654488e-02,-3.648487279467014371e-02,4.675344178023016495e-02
-4.191684419249625893e-04,-4.668039326642992731e-03,2.903207823582482777e-02
5.517727431095366397e-02,-4.284492419671883517e-02,1.180135439573496217e-02
-4.090500888229562336e-03,1.629212688822004665e-02,4.338996715443798474e-02
-7.851556151073149636e-02,-4.622884202946801746e-02,-5.633959085226016147e-04
-7.865126023379867548e-03,2.316096127025558601e-02,-3.704847126688038533e-02
3.218948939364946887e-02,2.179240610255722341e-02,8.075595900826317702e-03
3.218895657937246614e-03,4.395402159927316692e-03,-1.237660531641583267e-01
-6.102570030415694485e-02,-6.028534829120629074e-02,-2.693459476394148219e-02
-8.922273028296123787e-02,9.299896251121916868e-02,5.511307268356967215e-02
-6.436153350874308787e-02,4.047200967750934353e-02,-3.785942857495530611e-02
-1.010995542249737839e-01,1.695898303244504357e-02,-1.554144506274561348e-02
9.156392199094037787e-02,-2.063866439978506717e-02,5.321571665759531472e-02
-3.965320712857223207e-02,-6.737306743537835318e-02,1.018517901638759694e-02
-1.972887906535031322e-02,3.738744308117068760e-02,-6.611474228717117291e-03
1.009329287966019388e-02,-4.670438344268947745e-02,3.572022733007711864e-02
5.320565826960942796e-02,6.536815839290173458e-03,4.625163639221092915e-02
-2.791276830545988841e-03,4.618231443895954441e-02,5.013779421531981695e-02
3.825385668286900714e-02,-3.331526329472110637e-02,6.285025783083841855e-02
4.313458337242727370e-02,-1.843688868667969077e-02,2.353117197240248842e-02
2.032815003887068414e-02,-4.743207470929909630e-02,-1.403453900738789450e-02
-3.277590879399176760e-02,-1.035893886295011640e-01,5.398086934245149848e-02
2.904364421471935468e-03,-2.201006302056890407e-02,7.021123992335112640e-02
1.460535088700542182e-02,2.779730848771833421e-02,-4.804218577106303401e-02
-2.875673154893352082e-02,3.075486788139499342e-02,-9.421051324670163749e-03
-4.127287613545385647e-02,-2.139987080100985706e-02,-1.769005691242420131e-02
-4.109548156433590754e-02,9.432527831319757403e-03,-9.087469463744141107e-03
-1.022458521022811574e-02,4.882173487508093858e-03,3.889941933154002045e-03
5.714724780082063721e-02,3.038914223175945284e-02,-2.581150539563297625e-02
5.085725791938623674e-02,-4.674751255786192133e-02,-2.396377143841977447e-02
-4.048239797172382276e-02,6.199189338752243011e-02,5.804340379993351562e-02
1.835153178155403408e-02,-9.215827467918999774e-03,-3.285025730429402130e-02
1.218863494668919085e-02,2.546624178978043954e-02,-2.483862963159268536e-02
-1.039201202751338995e-02,1.276796393921494216e-02,3.006035792415777744e-02
-6.346570452330921319e-02,-3.813008602815435438e-02,3.197693124392431835e-03
5.503845126144719067e-03,-5.143901364989079267e-02,-5.625923877107069648e-02
-4.393020765190494559e-02,-5.555546258146937949e-02,1.844439259591901595e-02
-5.723707217168530481e-02,-4.160360029904903306e-02,-4.772529814273190896e-02
-4.153020136100304266e-02,-1.731115934834816412e-04,6.649227209978099407e-02
6.434768998927802020e-02,-8.576022839587754340e-03,2.077474622858927963e-02
-4.501434779279600562e-02,1.879571807043799517e-02,4.818341524414476718e-02
3.654915990419031757e-02,2.949322412199207807e-02,-1.113186950340890741e-02
-9.257868374600903075e-03,4.452167640171866836e-02,8.220458988981629161e-03
-6.959510454489917231e-02,-5.285469252113221246e-04,4.627389240248706848e-02
-3.749431820521224867e-02,-7.049756951461533250e-02,2.481620645964868060e-02
3.808848487435888275e-02,5.077076631991925965e-02,3.794109056975768918e-02
-2.345429191972099245e-02,8.927703943305111481e-03,8.142249331072792806e-02
3.184569322450873929e-02,4.509723572931061131e-02,1.286931538693673015e-02
-7.160496132808163473e-03,-1.978274013894965391e-02,1.483923185248762697e-02
-1.918184902394325791e-02,-3.792839163306962330e-02,6.042165758276103749e-02
1.854013483096709613e-03,5.501395367868223973e-02,8.036155139420205970e-03
2.925162764466492094e-02,-1.281021317201919488e-02,-1.712545626256604600e-02
4.595679955928391042e-02,-1.005161668688203148e-02,2.640547069293983432e-02
3.827374226239921989e-02,-5.573408780260008522e-02,6.898382202300032406e-02
1.606275837311647164e-02,4.702738056303591013e-02,-1.781516183083383872e-03
1.513298413386759099e-02,7.017972955126103307e-02,2.869981005466916077e-02
8.640984306269121340e-02,2.500906280229928461e-02,-6.317054860677859263e-02
8.097930695729931710e-03,-1.686058184866073232e-03,8.517161815201201858e-02
-4.670158616771547672e-02,-1.325656104098522914e-02,3.784654497111961807e-02
5.178943381581026413e-03,-6.978860306140421965e-02,-6.876946094111878981e-03
2.364940632199289891e-02,6.165621671533760145e-02,6.219221144617273489e-03
6.151291699670269342e-02,-3.034830389091394166e-03,-2.842501388050829025e-02
-6.078993721796835392e-03,6.529769957318203380e-03,1.505450357419773136e-02
-1.899738049035388718e-02,-1.746586205543118261e-02,-1.909513812073573152e-02
-6.405267940667144137e-05,-1.857789003142012660e-02,3.837752600133070152e-02
6.817017724111164301e-02,5.362148260192374505e-02,3.600288236199371793e-03
4.554823731458555042e-02,-8.069217063119311917e-03,-8.958030924985256604e-02
3.842267809730860045e-02,-4.505838485800500032e-02,2.904927035316916262e-02
9.069994795042254920e-02,1.464479957550578020e-02,-3.914002703652509629e-02
3.613218734274181894e-03,-3.382596160597595852e-02,8.294499317474249289e-02
1.545103616980054127e-02,-2.669209580553052324e-02,2.262348812365250661e-04
-6.311375956598185011e-02,7.300395904368470190e-02,-2.071726244659750655e-03
3.951347759751713817e-03,4.961697901905921804e-02,-2.927556753944397794e-02
-4.126126738744106265e-02,1.193470250760417760e-02,-6.535455990242604318e-02
-4.336538141783763400e-02,-1.327168619036826584e-02,5.253684390785241798e-02
-2.445130888349041076e-02,3.001186689869267746e-02,3.145911708453614369e-02
-1.956746613628132861e-02,-4.371121288935038429e-02,7.779173374118592346e-03
-3.657730535514570891e-02,1.450153973187207242e-02,-3.000898193414886644e-02
-3.565133350790208877e-02,-1.207233725510122556e-02,3.332799230239005123e-02
-2.459993910900906688e-02,-5.558362691729508420e-02,1.068118795185120790e-01
3.592610299288816200e-02,-1.050255106398385917e-03,-4.510787637946435391e-02
-2.415483352943809461e-02,-4.613491109973854448e-02,4.753837426185012968e-03
-4.750892529977025075e-02,6.223352631346718011e-02,-2.500006933894348415e-02
-4.530365097978013983e-02,5.473871053849304474e-02,5.544021077385868218e-02
6.146760396951123258e-03,1.581169532817528964e-02,-5.513178640993146584e-02
1.089522100986985501e-02,-5.681642807467584405e-02,3.524303801736467651e-02
-1.505496238865158300e-02,1.669402840735662030e-02,-8.294676709885494964e-03
1.209793457966172429e-02,2.415612660970799241e-02,1.355824095171716780e-02
-1.008318867276309094e-01,6.870694881982603031e-02,-3.599397763756988916e-02
3.330700362926299757e-02,5.466937636944828316e-02,-1.353878500865682462e-02
5.568047203736255918e-02,7.103954580148018338e-02,-1.965822583727404663e-02
-5.931726626351480763e-02,4.816431984528167509e-02,-7.849089278821926030e-02
1.047166587795428025e-02,-7.350475099789318713e-03,-5.310885903286046220e-03
-2.076793608814403447e-02,1.447769175659362022e-02,4.656628342529921250e-02
-4.322224691847191026e-03,2.880972048553054332e-02,-7.202915080025844297e-02
9.706994157837649240e-02,-1.198973590849125408e-02,2.409739961637142810e-02
-6.001617149875305979e-02,3.960640937866462263e-02,3.135365231763108385e-02
1.834900450103338484e-03,8.068891185375380581e-02,5.995153091991936578e-02
-6.180284661737238394e-02,-4.370111483570934124e-02,3.969010344193848322e-02
-3.718691595451224102e-02,1.939602957733091437e-02,-5.321074362436084559e-02
1.992907532933316239e-02,-5.195783611664757384e-02,-4.244854047927337781e-02
4.787247859417811946e-02,-9.470694454279088292e-03,4.267996003075675594e-03
-4.015262724903267272e-02,-3.536106020352995649e-02,-3.190446668309584316e-02
-1.136879501545793626e-02,-2.438977432272021462e-02,4.146547296013582823e-02
-5.463253085902586639e-03,4.422024364436307614e-02,3.974542754525824811e-02
6.724247582860223837e-02,3.423586039265139741e-02,2.997347604275580821e-02
-3.309469022461251908e-02,-5.403185296057205073e-02,3.989925488023278975e-03
5.376480379960882350e-02,-2.444076121466100954e-03,3.895888343034135948e-02
-1.255317319699502006e-02,5.006085503325460873e-02,-5.516433076354879811e-02
-3.475592283173197655e-02,1.130119942098753022e-01,1.904443754552476078e-03
3.100567000464377401e-02,9.588634972650807511e-03,-4.036666617041850119e-02
-5.985181666086356045e-02,5.625742069065031020e-02,-1.162919624341499369e-01
7.119631224293790535e-03,-2.326379937570686313e-02,3.274804411416198935e-02
-6.577542575478072251e-02,-1.275564303127055439e-02,6.603756303788411650e-03
-2.174469395431419001e-03,3.843903253957944161e-02,-7.348814338757941357e-03
-2.813431468631997015e-02,-2.276352988717659370e-02,8.744707338322308537e-03
1.889146591369218406e-02,5.924103657383594096e-02,2.853780270567442615e-02
7.004246704384689548e-02,2.573232586264920588e-02,9.189472317077719554e-02
-4.480911398711354132e-02,4.573092410481185456e-03,-1.495119010390507080e-03
2.168796987453799549e-02,-7.865914385661468278e-02,-1.163057111066195283e-02
3.974601306799796507e-02,-2.722240289817075623e-02,-3.163853812132583904e-02
3.375444558577245235e-02,1.087556132717979558e-03,1.000355088418564131e-02
-2.452882304680682399e-02,8.302787287712273118e-03,-7.590514789957601705e-02
5.786809312271195410e-02,2.213305608352539658e-02,-1.343905219958779589e-02
-2.860411344091832314e-02,-1.076123145317874237e-02,-1.789089464365489074e-02
-1.876366176906753280e-02,8.649869758906067463e-03,3.349471913092542247e-02
-1.701403110124914686e-02,-7.049911521984679463e-02,6.060713937076633168e-02
-4.398038090318755894e-02,-3.758077270810428628e-03,-3.773877432433241780e-02
-1.849372001687840661e-02,5.004028143552783497e-02,-4.465898594809478150e-02
-4.343968037785454761e-02,-9.509135761226075387e-03,-1.025757043885861391e-01
-2.296333468481008208e-02,-3.574701839790681707e-02,4.355087446243827848e-02
5.601454342582104506e-02,1.474469862100807535e-02,-2.404895907746633019e-02
-9.796718482017779256e-03,2.635015278734945815e-02,5.170064245962743832e-02
-5.330513159441242765e-02,2.710503801690899387e-03,4.070823544665483351e-02
-2.266647263388759867e-02,-2.880977742097659902e-02,-4.063587223068392679e-02
-1.652861904880925659e-02,2.396022383844400444e-02,2.672685103477813462e-02
-1.640274170039726642e-02,3.947171249527681863e-02,-4.500308846918516653e-02
-2.340236436618883809e-02,8.489421970617593016e-02,-3.044689131361388162e-02
-2.990028867321694109e-02,-2.182862892745529929e-02,-5.511419924222018402e-02
-1.623331172051820049e-03,-1.129312589335664321e-02,3.821746431102061858e-02
-3.957560753553689831e-02,-3.484565435675202744e-02,-3.967935159366369618e-02
-3.987228710326946174e-02,-1.622925835085056376e-02,3.551062299512099119e-02
5.762833043274455391e-02,3.013858831018424722e-02,1.162048859365011691e-02
-9.118369265148731917e-02,-1.421078122057939028e-02,-2.978602473119473446e-02
-1.068606047396071235e-01,8.912309815430988560e-03,-4.736539635193238312e-02
4.138450846681855644e-02,-4.976701184243838977e-02,-6.807409008962730934e-02
-1.004474994244259831e-02,-1.142258318091699627e-04,9.320306571479567434e-04
-3.292285386267100600e-02,-4.457601397266967164e-02,-3.113914630991456919e-02
-1.737487033782779758e-02,3.481661781814752998e-02,6.574414530800855305e-03
3.510092587161470212e-02,-2.337077338233595897e-02,4.625602112376285546e-02
-2.938360060282691269e-02,1.016834181862623018e-02,1.975284949744771090e-02
1.001077666125049920e-01,8.831704894306225545e-03,4.858525730894065753e-02
6.401339871135697246e-02,-3.235425545321501256e-02,3.689711835867752476e-02
2.335335082218552641e-02,-2.185395747424218570e-03,-2.141162185651319591e-02
-2.011377872288020938e-02,2.691079217808853286e-02,4.302354664706598344e-03
-7.891251753469347152e-02,-1.592006984174645923e-02,-5.891148288724310650e-03
5.216678879790683648e-03,-4.568183352851853257e-02,5.757746299547786273e-02
2.197956889338108406e-03,3.534388198607611026e-02,-1.989132900785129873e-02
3.002968187796146299e-02,7.607145471450976748e-02,7.309215763382155562e-02
4.841821650926161902e-02,-5.831195005165695083e-03,-4.905871148578568736e-02
-4.362745775180164320e-02,-1.436216365663470045e-02,2.829523389808383509e-04
-5.964298738965377426e-03,4.811962816082122202e-02,2.173351079376945397e-02
-5.427515551681500600e-02,2.011540078804778531e-02,1.443140569320441793e-03
-1.108287057788265445e-01,1.793356852442771349e-02,5.815489991902782901e-02
-1.762322883546200286e-02,6.154421219063761772e-02,7.049339636883301952e-02
-9.488484063936276913e-02,4.529150467382136308e-02,-6.088752747420011352e-02
2.276222359605811069e-02,7.234531504150030524e-03,-3.137776953176317496e-02
-1.844209414645288023e-02,9.055410675150388222e-02,-1.026435833199109381e-02
-2.107014141459066792e-02,2.781945834192349823e-02,7.950773500128377469e-03
-9.211599553590459066e-03,-9.736229258101046502e-03,-2.265259759422332334e-02
7.696675643224901164e-02,2.448093018247314394e-03,-2.624377941817910079e-02
-1.113520336736139593e-01,6.273714816833291658e-03,-5.405841814100967313e-02
9.052773335486872727e-03,-3.075579485930306223e-02,3.023359005003064051e-02
2.160882191618996098e-02,5.585947511599952814e-02,1.156626471299968505e-02
-1.584743084609306976e-02,-2.823738441459367268e-02,2.352657542316808487e-02
5.848787571584099926e-02,-5.071721784074503803e-02,8.300198894761752488e-03
2.432302998225181756e-02,6.561714779066936572e-03,-3.407120934352819708e-02
1.974623241096454263e-02,4.543616961592253367e-02,-4.278861733392169686e-02
4.420213118767150895e-02,-2.585298237821190975e-02,4.868446182476275641e-02
5.074459297412496628e-02,8.159185502129018275e-02,2.702837575578240573e-02
3.063300944981722437e-02,-1.038697423680755294e-02,4.948828537940840044e-02
-1.425191428348998243e-02,-3.012387465360965091e-04,3.369199293680250062e-02
6.689876350559367801e-02,-6.869082385328756368e-02,7.507995921697578623e-02
-2.521938917555191506e-02,-9.684538955927574425e-03,-2.006231187217977566e-02
-2.298154761779067426e-02,-3.966043830722299629e-02,-7.042973547729623751e-02
-1.991092570757448457e-02,-6.195620028143172808e-02,-2.121106047761186358e-02
4.182326548045480624e-02,-2.568787117833053538e-02,5.359879129184352137e-03
1.840735206168241100e-02,2.868062598338301170e-02,-6.511614023885417546e-02
-4.875868408709030377e-02,1.658509963062622990e-03,-6.703754793054823857e-02
1.766982082141738825e-02,3.050604210884759818e-02,-1.893238452389884099e-02
8.707274701164677624e-03,4.953151525093168854e-04,2.038615149863666487e-02
4.843611051226559723e-03,-3.797036716114305516e-02,1.048593609232431091e-02
-4.455971508580835322e-02,-1.217896436534565870e-03,7.221271844627812075e-02
7.083949933858396664e-02,-8.516157531173572381e-02,-5.557986030566067215e-02
3.837436042530592561e-02,-8.820010360667414860e-04,-2.327055187055875052e-02
5.358010115400881068e-02,3.498883300665008023e-02,1.062364365612240846e-02
-9.868707145990424090e-02,-3.991032857716710069e-02,-4.599334425371583157e-02
6.775025740745278108e-03,-1.741584669711648131e-02,3.627864585836767380e-02
-6.280225190349085496e-02,-5.191215146477388270e-02,-7.110481052553446757e-02
2.108032867385102940e-02,-4.882336263285546284e-03,-5.098854041006766619e-02
-9.810177841433492807e-02,-5.483648476841924968e-02,-3.558081544832174259e-02
-1.239002015405142945e-02,1.246040898063188185e-01,-4.019028193263894655e-02
-6.832957332790107197e-02,-7.512620610067018145e-02,4.259246694899620350e-02
-3.865721667369986098e-02,1.944314362005519423e-02,1.977255213327984776e-02
2.533342535376302811e-03,-1.482811050675557352e-02,5.511923194105819435e-02
1.079300737279418124e-02,1.120872348558545062e-01,6.028281649799163699e-02
4.704375298283818008e-02,4.787177314319553817e-02,4.131707880222596635e-02
1.009906133881437358e-02,4.128910589307240725e-02,-2.024602488023300936e-02
-1.015876824193641947e-01,-3.200264035586020822e-02,8.032255093479169494e-02
-7.413303993545156123e-02,-3.841401866417972627e-02,3.027260842287313874e-02
1.836038031601890455e-02,7.129534614461706214e-03,2.027960051847936887e-02
1.788630288654805348e-02,-6.123145138679535887e-02,-5.572001571015119253e-02
1.791226983354020710e-02,6.300702305184125405e-03,-1.861501229448055605e-03
2.519129396109028984e-03,-2.073772429768874423e-02,-4.731753335914635344e-02
-1.238881051148240861e-03,3.283168729890853510e-02,1.719767194139057778e-03
-4.528990949869676069e-03,5.372452297501870144e-02,2.252140050284308359e-02
-4.968142239328834919e-02,9.984560450176755211e-03,-8.211765984140183619e-03
2.667345215219059373e-02,1.322945118809969092e-03,1.037441597763408135e-01
5.306311434967242446e-02,-9.290914924579901299e-03,-2.917202687182453291e-02
1.757516314661994035e-04,-1.286016097313563179e-02,-6.447510399350278587e-02
2.602188627569435378e-02,1.317748473662856343e-02,-1.675420756164049466e-02
-1.131938032482006883e-02,-6.209873550712185358e-03,-1.588810267576280452e-02
-2.621232190345159155e-02,5.965337588536483854e-02,-3.135621987988774888e-03
1.032813704141139766e-01,3.261403910265709555e-03,3.941161709784278544e-02
3.067912662284455819e-02,-7.547980505460617079e-03,-5.166250899698526106e-02
-6.398411029529359195e-02,-1.980530476550978677e-02,5.241656413026048178e-02
-4.083856122772112213e-03,-1.490694629141022139e-03,9.776345131047402270e-02
-8.976511661976353806e-02,-5.181302911522499971e-02,3.180896267566382662e-02
-2.469343554941720326e-03,-1.460109493125942223e-03,-3.525304044919365387e-02
-4.758489262720050350e-02,4.584531581105490139e-02,-1.723927045622366400e-02
-3.148725032030055826e-02,-8.602251842912148061e-03,1.728799137328474247e-02
-2.308239999858591879e-02,7.729381495498044300e-04,-7.398145477477626950e-03
3.088169139197438282e-02,4.052916723728838821e-02,-4.246584726062800630e-02
-1.628710412712153568e-02,-8.376028112831129628e-04,2.393740361290188148e-02
5.491627820885883887e-02,-1.314479955569598617e-02,-3.136078514482387031e-02
-1.483471106538405970e-02,2.062704403230576806e-03,-1.127539664675648520e-02
-3.466494949411256729e-03,-1.170865232283390539e-02,-4.116935309996280073e-02
-3.862531257106132515e-02,1.007333465227401928e-02,1.772691315217977265e-02
-4.144003658892041198e-02,-6.663984933115799092e-02,-1.824224729300890149e-02
-5.065273801092849693e-02,2.847925551628651894e-02,-5.660254769972452443e-02
-2.240324475116520567e-02,1.161041963296396834e-01,3.854439731585055859e-03
-5.001975965065586643e-02,6.682934606560077262e-02,-1.514120024462526325e-02
5.796511767667278554e-03,-1.387624073402518067e-02,-1.796537839899572594e-02
4.255420931372225213e-02,7.024661993171711291e-03,2.052302079433274834e-02
4.469295694065448382e-02,7.058020496832831392e-02,-6.006020138306557982e-02
2.316212882761246525e-02,1.404782650477365558e-01,-7.021787082815339476e-02
-1.733116799242445704e-03,6.094340237413562941e-03,1.064040566777318605e-02
-4.457552653076820443e-02,4.805513600085293408e-02,-1.490935543734907796e-02
1.412151934048291174e-02,-1.458165903998071000e-02,4.143562764252035208e-02
2.509243130353937604e-02,-2.642789926635064415e-02,4.474200635368107831e-02
-7.395930225965648142e-02,1.312094362427092438e-02,6.614491011155815281e-02
8.486369227495705117e-03,3.219106855117340182e-02,5.926309969630812191e-02
8.604060881504801972e-02,-1.924221453663959441e-02,1.552293886252202777e-02
9.690307227289549075e-02,-8.085494034823604431e-03,4.843046837576336222e-02
2.537270885837524317e-02,1.509094488302264170e-01,4.707088484667472372e-02
2.631654842056454363e-02,1.977975654847237072e-02,-2.526840590928884286e-02
-1.007263526964433387e-01,7.046046118380075093e-03,2.153612930685172566e-02
5.840036945585010131e-02,5.249971213148232202e-02,1.408229879232966893e-02
-6.033449209938836905e-03,-1.997948283259515928e-02,1.668162140416306477e-02
-7.662865775168085924e-02,-1.499783976075727901e-02,6.593072287883611216e-02
-4.263475257399303858e-02,1.037523833313426687e-02,4.599908321616122397e-02
3.732289498944653568e-03,1.563082840710053670e-02,-8.214646033768023894e-03
-1.600758083630687487e-02,-2.998575290434990492e-02,-4.647229134505692638e-02
2.658303949499936716e-02,1.007388962772130803e-01,8.579035154399587693e-02
-1.371165219508701898e-02,4.217633796008965485e-03,-3.564464272847885171e-03
2.313473894330674366e-02,-2.294461333782634154e-03,5.720188805258644670e-03
-8.488115052940606309e-02,1.371159745853937906e-02,-2.448637574720983340e-02
-4.425559809720258642e-02,-6.267307468143748332e-03,5.109037935863910279e-02
-6.868422920778639862e-02,-2.714454577048545578e-02,-1.597596242910972325e-02
6.660574018875188573e-02,-8.239606318977651597e-03,1.234088287581236053e-04
-5.462268148797111422e-02,7.591019938050636018e-02,-6.285084879414722103e-02
3.667025444647825649e-02,-4.679608874741592039e-02,3.612775131260931999e-02
3.092645741536366455e-02,1.731579243638461246e-02,3.976980266351975990e-02
-1.631509297489958728e-04,-5.533472683893533167e-02,1.401799004902778110e-02
2.465629276884221191e-02,1.664806439876027194e-02,3.154764131707059327e-02
-3.349553945298455043e-02,5.977614537042534593e-03,1.538932147410381444e-03
-4.747681977907728529e-02,4.229710268182653582e-02,-7.496158755729895491e-03
2.942534339673084226e-02,3.058330085635295459e-02,1.205999050222728193e-02
3.368878674596038209e-02,-2.686971533802279960e-02,4.206409971505496725e-02
-1.819666438517626023e-02,4.830337354301978553e-02,-2.075815047095953131e-02
-6.700917972878034368e-02,-5.759646256874805491e-03,4.709663715854307819e-02
-1.360946968510049274e-02,5.809254379633914389e-02,-6.746237932420465211e-02
1.100036795715576658e-02,1.978096788070600118e-02,4.411382748494085265e-02
2.183817700726762082e-02,-8.552288004333881422e-02,2.058200126868424407e-02
-4.606347779916236673e-02,4.164229486150092946e-02,3.781443668526224267e-02
6.758036872428002488e-03,-4.064609738090330798e-02,7.526941845784389240e-02
8.975683388384474626e-05,3.182087550965417844e-02,-1.526711057741938007e-02
-1.263178008872432520e-02,-1.412391132841943515e-02,-8.494442937520244041e-02
-3.343398941708169286e-02,-4.991180534589149953e-02,3.147501115251098019e-02
-2.505378345937438189e-02,1.691477353812615922e-02,4.191543869088591029e-02
1.498430787091288661e-03,5.432728602505463439e-02,-2.323817785415946413e-02
-2.867100145717844939e-02,-7.467889779722527988e-02,9.161945288428506237e-03
3.042478013275431645e-02,-2.692979781354823410e-02,7.861391862922291474e-02
2.104051051925193497e-02,-1.867409231840373371e-02,5.087971592696928502e-02
-1.093253882295416451e-01,-5.520199257500585377e-02,2.423242993875463283e-02
-1.671991314886726865e-02,5.101640312928518162e-02,-3.389202724434583341e-02
6.252152775821413766e-02,-1.624114382649680111e-02,-2.755874332754538331e-02
-4.759049295929469736e-04,6.402624901076746367e-02,3.993191983073190315e-02
-1.867744020110211414e-02,2.216414468910790983e-02,-1.086762502082155683e-02
2.803327397555004097e-02,4.426219049652999060e-02,7.602548383695298395e-03
-4.174811589158424624e-02,-6.188609920971126915e-02,1.723075212516532798e-02
1.767079106186489681e-02,-5.550987852744490580e-02,-6.177590157223138145e-02
9.175279468451699727e-02,-9.025126183476448946e-03,-3.629286489409242616e-02
5.173062827920620922e-03,-6.150098345847859055e-02,-3.999722848444237436e-03
-3.969853908337200171e-02,7.904720142091073432e-02,1.600604075716169708e-02
-1.577422162529415819e-02,7.319920970935284155e-02,-2.862430337459807503e-02
2.338261403214254505e-02,8.800941398493773715e-02,4.824809825050600104e-02
-3.431021598147723090e-02,1.946863794142203799e-02,-4.948303003709002973e-02
1.460962822028678831e-02,-2.244041007639755933e-02,-2.249565142467304518e-02
-5.021425330656238001e-02,1.728209692952991511e-02,-2.100608616534365911e-02
2.813504078658885660e-02,2.150892756061303923e-02,5.155345245036654922e-02
-1.210322305906356456e-02,-5.114460219762818199e-02,-4.530024624523528581e-02
-7.395332497685697115e-02,2.688869730640704170e-02,4.470657817442340309e-02
-3.350366483639753701e-02,1.413409001328214468e-02,-2.681659264879664856e-02
-4.764368902318327076e-02,-1.975408377582972379e-03,-4.114068832894944572e-02
-4.710722842860972509e-02,2.956683482792266809e-02,-5.894222999430827337e-02
-2.596729522001323814e-02,-2.930116410565963489e-02,6.732146274652442419e-02
-2.776492338191366427e-02,-4.329637929375671802e-03,-1.223937607173241349e-01
-1.039722026442287117e-02,5.549947379144696928e-03,1.253935987849479350e-01
5.272199433677575431e-02,-7.991492564812928412e-02,-3.873368687064950022e-02
-2.642619072312025856e-03,9.009523456180036638e-03,2.136521744255686760e-03
1.794381140317515694e-02,2.524870151397877113e-02,3.173588065416062254e-02
-2.655733811135281217e-02,-1.399103187007242483e-02,-2.577131425689131033e-02
-3.924750932023784999e-02,6.638002639085509304e-02,3.693157637757794876e-02
-8.632517946639653439e-02,8.112358477450627714e-02,-8.293291980966588720e-03
-3.571571595046574895e-03,-2.395204378227222194e-02,-3.379506884804543698e-02
-2.242944073443334935e-02,1.935137188981409656e-02,-5.514962914704273078e-02
-2.272824829587940382e-02,-2.013227136489413593e-02,2.271762108921285619e-02
2.533993546702760155e-02,2.969301661408829673e-02,-5.639527563840279062e-02
3.184748516281837860e-02,-7.762195706163131821e-03,-5.514001687911158217e-02
4.920114997772516430e-02,-1.279492293606055049e-02,-5.501568184965510699e-02
-5.021076103330041757e-02,5.121304050941456742e-02,2.071879185459436432e-02
8.798210980364269684e-03,-6.530971055834416950e-02,-1.714887090936598191e-02
-3.724181325164077627e-02,2.029028797668829334e-02,6.900720496759449318e-02
7.562080756165375645e-03,-4.888281166223993474e-02,3.272395776087885788e-02
-2.152700473641004988e-02,-4.095293109666434117e-02,-2.576556332569423374e-02
6.469892964586997086e-02,5.858532178058566131e-02,-4.564763208015771428e-02
-2.401697628811316418e-02,-5.269199039137526658e-02,3.197332404033490644e-02
2.046264819336084465e-02,-4.540548497787436771e-02,5.138962787853854075e-02
4.564684863986823160e-02,8.244099864779565190e-02,2.017692477073162322e-02
-9.754617974293456825e-03,8.321908069889121656e-03,2.520578776355957354e-02
-1.059472657040730001e-02,-3.270942318960563464e-03,4.383465352481497566e-03
3.882962746744011984e-02,-4.288857085035035349e-02,-3.315153969649631965e-02
-1.774113270781163543e-02,3.068218716374822904e-03,-4.991881737996283624e-02
-1.284233391688390348e-03,-1.887757368038306405e-02,4.108488351651865683e-02
-5.155426509932791584e-02,2.312417245495429485e-02,6.267154971913586545e-03
2.305914573414849858e-02,-9.601152445226981968e-03,-2.914725642579342989e-03
-6.626744290259253649e-03,-2.917621373132453858e-02,-2.116399439496645385e-02
-7.938583048532300498e-04,2.152934813237569744e-02,-3.764547040622755886e-02
-2.115285558786888457e-03,2.119582431671344913e-02,-3.875701463101063893e-02
-6.619490086764673320e-02,-9.783875880601758390e-02,-4.776278520691256552e-02
3.118561908920037054e-02,-1.468271381501680579e-02,-6.574622505262114891e-02
-5.804138121731929056e-02,-5.252852993827637935e-03,-3.942379476717259613e-03
-7.162856723895549838e-03,-2.757200509807224836e-02,5.277140184140344248e-02
-3.302786238281974623e-02,-3.117967862021806674e-02,-2.073492101661139966e-02
-8.755449131813523855e-03,3.781459456033746391e-02,-6.666760909080714226e-02
-3.116147079182008880e-02,1.949719817756735002e-02,5.415710484400012951e-03
2.732110951975375707e-02,1.076473266672520329e-01,2.561329413764892524e-02
6.942316268536684321e-02,-7.684316151716234777e-02,-3.898319087748144257e-02
4.079084667121775365e-02,8.243292305312586998e-02,1.216554840664854503e-01
-1.829644390829215927e-02,3.585134685718428804e-02,4.121796878282885795e-02
-3.008161734917775415e-02,-8.501017965647421435e-04,-2.841169392781406344e-02
-4.129048818791600933e-02,-7.483080432058333842e-02,4.173744821609774724e-02
1.539876716619996595e-02,-4.806933865590146820e-02,1.478573611594260345e-02
4.976764755299237925e-03,5.223869203989164010e-03,3.668581477162241589e-02
7.282643708140303096e-02,-1.975503905512980551e-02,6.243529006554126431e-02
1.477233700225931423e-02,3.149484322696061850e-02,-9.617222675815162436e-03
8.458791596580940431e-02,-1.907836451679899986e-02,4.076830667152162024e-02
-8.622678459125339423e-02,-4.126049978914497068e-02,2.887150733507420561e-02
1.265265055855868681e-02,2.356455633777044395e-02,-4.559840960787366060e-02
-9.019314419439214414e-02,-2.015661554305841867e-03,-1.807362411936759214e-02
-1.860144432688096497e-02,2.765228373256900865e-02,-5.841034306686464922e-02
-3.268060576291850761e-02,-2.733865382969475483e-02,-3.331202307079254160e-02
3.694153249229109592e-02,4.039827184468534199e-02,-6.499086382133029138e-02
-7.942837929553701881e-02,5.968533867585893576e-03,-2.151128149504470677e-02
6.640167155461708381e-03,-4.926160472215000002e-02,7.584838490661583409e-03
3.180866397164092835e-02,5.473846769250724498e-02,3.703700177812117161e-02
-4.093852430906157885e-02,-4.508664608007304994e-03,-1.615595992575232648e-02
-3.742876856623339465e-02,-6.598495015867186786e-02,2.734169584497549155e-02
-7.316216754795827615e-02,6.613305355901989702e-02,-5.862283034240868551e-02
-2.399929898140635773e-02,2.816765442737929892e-02,-1.581639601763677391e-02
2.213935965095281677e-02,-1.967497735467188362e-04,3.122345990866574883e-02
-1.715622879499699438e-02,3.277172648922746338e-03,8.045439750275950458e-03
-3.967776678634002407e-02,2.463282337443628567e-02,-1.855121987912927359e-02
-7.522624350556991746e-02,2.911510703784281340e-02,-2.052608060863472111e-02
-6.493176604846727373e-02,5.755466110269496539e-03,-1.463457120379449070e-02
-2.420286107864963281e-03,-3.971027287453743337e-02,-2.571763952434811401e-02
-2.541876647725981736e-02,3.081306530082111167e-02,-4.120188988068194252e-02
-1.558275807737982167e-02,-2.648680268630533574e-02,1.657469494372312141e-02
5.962400114048199695e-02,-4.158968028518391508e-02,1.678446734437744059e-02
-7.400638828167676112e-03,2.295804309854294900e-02,4.517263808983752738e-02
2.699568825800475677e-02,-4.683412262616511862e-02,6.022852937942562573e-02
-3.281616025673098763e-02,2.896769704469370418e-02,-1.540368287470883502e-02
-7.440360976034222917e-02,6.633882211640482196e-02,1.118119726764441740e-02
2.267212608311638608e-02,-1.319740068185933785e-02,8.133410059072480837e-04
-1.029487600596110941e-01,1.365776483299410444e-03,-3.068501021906500439e-02
2.238905444314242318e-03,-2.318909713696405347e-02,-1.999834385219511484e-02
-5.968969034902989190e-02,-1.990647709959618081e-02,-2.093319528743819991e-02
4.333647685501341995e-02,-5.850688117684055278e-02,6.512463748291032195e-02
-5.838456773491588342e-02,8.113487880997151402e-02,-3.183864508286585182e-02
-1.304447737290135093e-02,6.479854098516845025e-03,-1.058307107638763005e-02
4.324196436370969510e-02,4.472502926105866028e-02,4.893158436556218488e-02
1.196155313130370119e-03,3.535485339218288198e-02,6.112789938382333366e-02
2.915155993295171291e-02,-1.905109958366978801e-02,-1.844448377094105862e-02
3.010430392286723641e-02,-5.773591107653243404e-02,1.339892641022958145e-02
1.409387924637639337e-02,-1.734492840891307952e-02,-2.013448889143632653e-02
6.461263764221961137e-02,1.259392720123698739e-01,5.376628181232976506e-02
-1.406690175477276960e-03,-3.773415173243830495e-02,-6.962647557778543772e-02
-4.386421303268282085e-02,-5.072620847020822832e-02,-2.740011957829278921e-02
2.982938400953598964e-03,-5.751736809009115603e-02,-4.546026494881157815e-02
-1.430720051940091199e-02,2.346957460117058206e-02,-2.219544333124930796e-02
-4.642089472105989656e-02,-2.894478373256258175e-02,2.808577816112747469e-02
8.394926216180586057e-03,5.536751383061647852e-02,-1.474600359911810467e-02
1.375873706952810728e-02,7.959913900871429249e-02,-3.125248124132652683e-02
-3.743108502812529659e-02,7.115250850603016888e-03,1.393936234335131457e-04
1.331051214459019055e-02,-2.750875607984218027e-02,-1.716748893845582158e-02
-2.907129664742132483e-02,-1.886729927236083584e-02,-3.676346065379592493e-02
7.199927956148258201e-02,-1.922698010634356358e-02,-4.977358420412768270e-02
1.899533126904991501e-02,-2.434951131387269249e-02,-2.386266709888131346e-02
-1.879691864081716943e-03,-4.554995804687445200e-03,1.744187012724045249e-02
4.925716738514057322e-03,-2.983569486748338662e-02,-4.314595606423153595e-02
-7.943210174723210060e-02,8.382172501515788854e-02,4.340937319602678618e-02
-2.609501128441870862e-02,-1.046249318728349059e-02,-4.694868534405659960e-02
-4.690055808862975129e-02,6.363114012690992971e-02,-8.503599315831826544e-03
9.710954055394915158e-03,-6.090361373701381337e-02,3.777534827490289931e-02
8.724001180082374685e-02,-3.253091163112721562e-02,-2.348099388009391650e-02
-3.760410166887782901e-02,2.414849574557039608e-02,1.522859137074031310e-02
1.434995354314466676e-02,-7.042554706670317577e-02,-3.385111293239362329e-02
1.524450286418010253e-02,-3.554257266608259330e-02,5.496567453485496496e-03
-3.461039335711431266e-03,1.834913554433277236e-02,1.508307727573644091e-02
2.343174447062579269e-02,-2.241507786085507672e-02,-3.105074187949969592e-03
-7.319726391942457666e-02,3.186801805979840724e-02,3.077572553436700928e-02
-1.837898041804796392e-02,-3.548129030239496190e-02,-3.801349572561954493e-02
-1.063293077104322248e-01,-5.153534206140115981e-02,-6.219777247875136333e-02
-2.421671368886556264e-02,3.824512649241271819e-03,7.147692815824142898e-02
-2.807619048184965133e-02,-1.673195608327613521e-02,1.414302702560920645e-02
1.992699623665262348e-02,-1.040491096815822220e-01,5.731159501660958860e-02
8.963353884416699457e-04,6.914598449953504589e-02,-2.887202178519597887e-02
-5.760985623077862633e-02,2.128198152136860297e-02,-4.043793189333973193e-02
-2.593797557493805403e-02,5.080859610988529979e-02,-2.620842783340832094e-02
5.976378515743280967e-02,-7.941133789089334372e-02,-7.276746821810754773e-02
-2.054370811558320006e-02,-2.000163027009184934e-03,-2.634042712900415070e-02
-1.780897006785786899e-02,1.184462368553669195e-02,3.399759410879502064e-02
-9.879186481395211758e-03,6.251249155112560685e-02,-3.736381193329348094e-02
1.377507139506350953e-02,3.936589298802776332e-02,4.887128914956503922e-02
2.178866229414520850e-02,2.303884328261792888e-02,3.204944289538465274e-02
-2.517596780892766145e-02,9.467989002256185782e-02,-5.319929394984805604e-02
2.262046173130315835e-02,-5.522262389539918381e-02,-7.729184775271405461e-02
-1.279546988047196472e-02,-1.045401800225909811e-01,1.389985388343792198e-02
6.512745324629047941e-03,4.643371788851436560e-02,2.786291459356124434e-02
1.428255380230735588e-03,1.405801543847938831e-02,1.066874326697907389e-02
1.486043295132027757e-02,-3.581819702915811643e-02,4.636497840535137166e-02
-4.283086805754524745e-02,2.265850444807924330e-02,-3.461547393433267450e-02
-7.996055972014280699e-02,1.341339266497607388e-02,-2.489477874426151288e-02
4.226924816855311823e-02,7.778159263186174011e-02,4.071751370972095246e-02
-2.434226585944386512e-02,-1.061337806076396474e-02,6.181311557577786123e-03
1.028366292932287110e-02,2.110159397322751429e-03,1.187008410727385423e-02
-1.908233681085398648e-02,2.766922285117746905e-03,-6.974542233060601615e-02
3.817238516322798286e-02,1.423102361872197186e-02,-2.302906259839596070e-02
1.842821058757181758e-03,-6.481489792597248945e-02,-2.158778694074249896e-02
2.656166725580696303e-02,4.307572163898695794e-02,5.712846036632153457e-02
1.144600490971411401e-02,9.092728580509901182e-02,-4.438867929469679161e-03
-5.657556658223526248e-03,2.864434520062436595e-02,1.715359502204952952e-02
-5.741676326650350243e-03,2.724515090061294109e-02,4.887879470669258958e-02
3.052915082782244049e-02,-4.682421015398442049e-03,-4.959021208054539614e-04
-3.308939794137413098e-02,1.968365723793666366e-02,-8.434034856719362094e-04
1.800236532906344597e-02,3.575783629567645672e-02,-1.270133478968804401e-02
3.027178863014682447e-02,-3.477030369239764163e-02,2.128912806914244268e-02
4.339467498458675354e-02,3.154497611684364822e-02,1.343807243684668612e-02
-9.184091358874835187e-02,5.787402727079443698e-02,3.841480208823158660e-02
-3.046979906208721264e-02,-8.126862649916712089e-02,-3.306549468219643212e-02
1.260919783248750682e-03,-3.627509799377954397e-02,-5.462267897332192743e-03
5.668672684996971939e-03,6.742804852600346732e-02,2.282939830688181931e-02
-2.186874224168670541e-02,-4.028995272599447675e-02,6.290905485365692884e-02
3.239667097851651589e-03,3.507649789191517875e-02,1.613965060622698372e-02
5.865121740957356805e-02,-7.217425978284308652e-02,2.784506843410454935e-05
4.106806343971654977e-02,-3.912184176383851075e-02,1.910126754610008346e-02
4.411993795780406319e-02,-5.278262767943251582e-02,-2.514266677940017042e-02
-1.272751071075453946e-02,1.359611601474427188e-02,-3.905222278351192650e-02
5.440036384156769766e-02,8.284381502984135281e-02,-4.178679538243851299e-02
-1.883995452865069170e-02,1.027605164439341218e-01,-2.105821477221486368e-02
-1.098704800168803612e-02,-2.385485288624543052e-02,-1.274831104557655297e-02
-3.494260681932599699e-02,-1.852917097793455731e-02,-1.793592828223181546e-03
4.094486248314835319e-02,2.226720960037910715e-02,-3.671047757861223976e-02
6.005934964675883891e-02,-4.599654705685190387e-02,-9.182567128738421125e-02
-4.656122452208805162e-02,-5.056102174435437267e-03,-7.139531598691384318e-02
-1.230945722958119888e-02,3.264288854365335335e-02,1.128884263885903197e-02
3.345170840975713461e-02,-6.903778718294706438e-04,-8.179275997630477968e-02
-6.914125023700135042e-02,-2.728599481868662288e-02,-3.676823528867116664e-02
-7.205324625337969358e-02,1.281979014829348834e-03,-3.061319441539393088e-02
8.044688280593102758e-02,-6.749637800874302984e-02,2.806746594067540887e-02
3.099207654779768603e-02,-1.113175258429324570e-02,4.990267870044992615e-02
-5.720630105987931958e-03,1.277734128496889852e-02,5.221026121106028817e-02
-4.637625162513392407e-02,-3.095088833891664060e-02,-2.166087507783755889e-02
-1.909529466940560307e-04,3.182057424609655710e-02,2.076543886084813648e-02
-1.885146544317711434e-02,4.153779943506588634e-02,-6.388062973930316857e-02
5.972291182802080128e-02,-2.565758693063203630e-02,-2.963326382464840161e-02
2.341237205991086867e-02,3.063175476321043644e-02,1.186054163734101552e-02
2.536166405714864597e-02,-2.474469972597924741e-02,-2.675469243335090036e-02
8.280066211629785733e-02,-2.830735221284821565e-02,-8.959356139386684403e-03
1.414421910992555084e-02,-1.227701669169706661e-01,-1.807628309070397760e-02
1.007699928887822137e-02,-9.090489107625695023e-03,-3.781163098041617938e-03
-1.288573068858799367e-02,2.790011078613473944e-02,4.369651523491217826e-02
-2.945389572809899853e-03,-1.968466998394385187e-02,-4.181231436658701395e-02
1.274931568616376881e-02,5.077504100013330302e-02,-1.728429408681713547e-02
-4.975107252360362955e-03,-5.992888277789692325e-02,-5.843391669080867656e-02
5.979416878883609537e-02,2.231587846724419205e-02,-5.207741328803303787e-02
1.697713788481362146e-02,2.975916006688570509e-02,-1.057005211002065292e-01
-4.504569154670697018e-02,4.679812867700909595e-02,-1.719407685620081422e-02
-2.778492690812452842e-02,-4.031135885373632322e-02,1.122639839939782759e-02
1.921435184721322640e-03,-3.193411462508827237e-02,-2.449418163028148701e-02
-3.712988845487364548e-02,1.402915328941291631e-02,-5.792039738131093962e-02
-5.931774964762576152e-02,4.046688030969451677e-02,5.024313974411417222e-02
-7.059265494999213131e-02,-1.388254227744453728e-03,-3.457764640309547027e-02
-4.531182098102858741e-02,-6.599069005280440436e-02,-2.466578234607457679e-03
-1.258849841771845363e-02,-4.450161156597459179e-03,-5.732254501429166066e-02
-9.056356883272632941e-02,4.155483621859381443e-02,-3.470141133627457214e-02
-4.161421257637718668e-02,8.673987349060671703e-02,-4.289684181870308949e-02
-1.010231885504299931e-01,1.946689249947700442e-02,5.651762771103459315e-02
-5.857319466498332045e-02,5.479779421263937522e-02,1.583487131260422065e-02
-2.273240719954294428e-02,-9.921477908342357654e-02,-2.364117757774249554e-02
4.617927625721245793e-02,1.082960838842062824e-02,6.096658480636565729e-03
-3.596665551136520034e-02,1.245607258501666044e-02,4.469859823806607638e-03
-1.262232180070133047e-02,4.811875751705995546e-02,-1.530984816975668704e-02
4.571654827729643156e-03,-1.123063736199085214e-02,-8.219171823287511891e-03
3.937662777494783245e-02,2.292351232831414936e-03,5.539455259805783210e-02
2.101404065755817230e-02,-8.504123800732388272e-02,2.731847738692114863e-02
-5.387262825730000648e-02,5.988384542359567742e-02,-7.708805686768580370e-03
-1.344291179665599951e-03,-5.234728173682708097e-03,5.117851133562093674e-02
5.210230640743514913e-02,-1.353979957182866248e-02,-6.857507993620627629e-02
-4.809566002467633578e-02,9.373485792511571102e-03,6.200796623953148956e-02
-6.291658390833999859e-02,-4.464318160698656224e-02,1.534715688298859786e-02
9.360931403835376363e-02,-2.336448844918854323e-02,4.433604411946071022e-02
1.106456190141375667e-02,3.815503714074791088e-03,7.187806648849504043e-02
-4.999577479319260165e-02,3.853098738782756438e-02,-3.121689374339319326e-02
1.318732549522694947e-02,-3.905220453383490692e-02,-5.194215193696583716e-02
1.031158666000528239e-02,-4.751538397269457897e-02,-4.727672808076029826e-02
-3.289394370497883413e-03,-5.245362843420450609e-03,-4.265902454741930805e-02
-4.443356937986901040e-02,-1.884822544124509919e-02,-4.936278200463333626e-02
3.366237342671221048e-03,-2.385119371040787459e-02,6.776603112375449711e-02
-2.989864603941203361e-02,5.291396957872596639e-03,3.118737111274194618e-02
-1.173010860156676292e-02,6.819212369237630245e-02,3.699406389260981309e-02
-5.618890716091893417e-02,-3.924469229000927817e-02,4.827520792446511610e-02
-3.395687424968573450e-03,4.975573762636483974e-03,9.027190811151544758e-02
1.284172947098652373e-02,3.267342175944501492e-02,-2.842062543877148240e-02
2.630455268665194551e-03,4.529807285945448847e-02,-1.301471503649612692e-02
6.126173353637245911e-02,5.296465212277831625e-02,-3.347960991649357593e-02
-5.481249276536658693e-02,9.453464973846224329e-04,4.409265407765174810e-02
2.920255667981911177e-02,-4.017558471814774296e-02,-6.571421354693664230e-02
3.572317112544716455e-02,1.450970792595777416e-02,-1.527572150972778681e-02
-6.218274398116148405e-02,7.520624912535102402e-02,8.427534382951415437e-02
-2.293844836277899105e-02,-3.995669393611633174e-02,-4.440882589430005661e-02
4.293089531851190799e-02,1.029999537174692940e-02,-2.679228598756238852e-02
2.042658326806589316e-03,-1.072842536068720556e-02,-1.201552725523994357e-02
3.505745931188359449e-02,1.651124535419264128e-02,3.254390674646900211e-02
-6.215418740030306116e-02,-5.875191302711962361e-03,-5.518037409940062393e-02
-1.751289301637294279e-02,-4.802927105972998323e-02,-6.363923699329226968e-02
-7.177760315674990965e-04,2.487328529952246778e-02,4.617499330833428617e-02
4.449811270722686674e-02,2.120216451664922938e-02,-8.784144094748499651e-03
5.491013910615877291e-02,-1.695641553931469606e-02,-3.121599127900178891e-02
-2.290148055121906182e-02,1.999417718669006111e-02,-2.644678348923191254e-03
1.702627787315690033e-02,1.078270513690923332e-01,1.023097926118845397e-02
1.707140873490892510e-02,1.024916068032180327e-01,3.882445294267138775e-02
1.624086244190081282e-02,-4.004688692927505650e-02,2.788229528247927747e-03
2.809069659475672831e-02,-5.473413932403238926e-04,-4.034009240898517139e-03
-8.777977128767490769e-03,8.868926037156686648e-02,5.233951158908882288e-03
3.453638921391807837e-02,-5.447795922819547582e-02,-8.406516160324530723e-03
6.926985856588334378e-02,-7.244623333211384908e-02,4.721870461859235812e-02
-4.371069842964445118e-02,-3.395783511075755462e-02,4.276243287416393174e-02
2.599093891133186229e-02,4.478168730392128455e-02,2.107210582805220042e-02
-3.239981455798911225e-02,3.444573651396096604e-03,-3.093090586520903448e-02
2.128848844771848853e-02,3.348786894593753366e-02,8.255829398442118827e-02
-1.438160267342156011e-02,3.243709336179050745e-02,-4.867108671744146964e-02
5.177676083467942086e-02,-7.165608776121652757e-02,4.088797341958855247e-02
-3.195408368474245749e-03,-6.154712609753051206e-02,-3.450172993774180963e-02
4.411063373707626439e-02,-3.115472095423491711e-02,2.726529792297007621e-02
3.084894771294544383e-02,1.114829028399402268e-02,-2.412795452079704445e-02
4.851993479056841696e-03,1.732597170710390919e-02,-2.181056521308408908e-02
3.312030413852621452e-02,5.868360790311087649e-02,-7.485844016271345561e-03
-1.867841215777537103e-02,4.637877207201091673e-02,-6.869109664891608069e-02
5.243906487683860744e-03,-7.027138399455132300e-02,9.451483784608991079e-02
-6.828290576281394013e-03,-2.715281556547630148e-02,7.559287792613990364e-02
-8.325967844497525819e-03,3.966822775825627756e-02,4.412796538195212434e-03
-3.479837822205019554e-02,-3.429042548527409112e-02,4.470033205498081391e-02
8.508338314352276166e-02,-1.296531596623935745e-01,-2.196263352226630536e-02
-9.722716933439738002e-03,2.762039284891966776e-02,-5.268514208777312635e-02
-4.590724550939587201e-02,1.779223388546158271e-03,1.604958999629562538e-02
7.559230691956987658e-02,6.286439416890582388e-02,-6.725462055803224648e-03
3.776275537271672755e-02,8.492664857085521074e-03,-8.270859447301872822e-03
-4.329095982839087364e-02,-3.928574457834648620e-02,3.474841489808747075e-02
-3.122397298146342703e-02,4.901555119553949180e-02,-7.056882625315723245e-02
-2.569779282604716872e-02,-7.871894722649451503e-03,-1.336207412067621191e-02
-9.080935551130731379e-03,-7.873012362109710338e-02,8.013385850497831489e-03
5.897579051202275074e-02,-5.066588503801359999e-02,-6.290673764558901704e-02
-3.778394770764528787e-02,2.594293761356606526e-02,4.306685318173451849e-02
-1.657153343472266352e-02,-6.175053745028030727e-02,-8.779586501233886675e-03
9.297879625540440840e-02,-8.350513275687192205e-03,-4.808172193195418831e-02
3.739159168171916903e-02,3.444297290585640603e-02,3.717036727709317062e-02
-6.438229587119334574e-02,2.270709763063137945e-02,1.533441920855663221e-02
-4.965676135392134427e-02,-3.885590764288224946e-02,-1.802631624140163188e-02
4.183073369792157659e-02,5.105087964184495258e-02,-2.791846802023030885e-02
-4.287189648307311585e-02,-6.873950849431095800e-02,-1.814699891385441327e-02
-6.841708816832783868e-03,-6.625165347605947719e-02,-3.432381157105520841e-03
-5.358763338523302167e-02,-8.239573765866381461e-02,-7.610928852046332238e-02
-4.929065993695434800e-02,-2.036988251263197741e-03,-3.021641626211101286e-02
-5.832644765440792890e-03,5.613334952309513570e-02,-2.515204547591460421e-02
5.437609262163977525e-02,8.112267220570550802e-03,1.422362800875764770e-02
-5.026937548600014793e-02,-6.765488118295248654e-02,4.313047785688783539e-03
-4.972390080700059972e-02,3.051362195179367284e-02,-3.700322806969875283e-02
-2.917281059262428339e-02,4.478868953514934109e-03,-2.895947125750199247e-02
3.890381947160646142e-02,1.575761320553878755e-02,-3.823411822241896962e-02
1.028006894469588178e-01,3.273321532760097019e-02,-1.469665499796945531e-02
-7.507665898346667366e-02,-1.049257251188274315e-02,-4.403474035026688077e-02
8.634334890268892046e-03,-4.502038711112207880e-02,5.875212035982504272e-02
5.277196339678305072e-03,-9.746497279274185174e-03,2.583029388562099737e-02
-7.497724274749800917e-03,-3.999944084735689714e-02,2.086317094940954697e-03
6.393878828420107574e-02,5.374775867620431441e-02,-3.153000463428928118e-02
-1.407869554218258400e-02,1.795605486060461442e-02,-2.427940352437414628e-02
-1.696499923181364437e-03,5.908076129025706391e-02,1.319926211938655947e-02
1.684523215901942862e-03,1.976851044442432329e-03,-3.922220780527638229e-02
3.349778751176807345e-02,-5.752168424006778163e-02,-1.570890614052194642e-02
3.953249322358243223e-03,3.061450532787409612e-02,5.957402664234416612e-02
1.360742287150557700e-02,6.719495330124442001e-02,7.342824487352070384e-02
6.022817100123445400e-02,2.940717978652382728e-02,-4.338383938678930934e-02
1.062590561881207873e-01,2.226547485072959479e-02,-1.185646542187280932e-02
-2.409843997067738150e-02,8.082846013984669453e-02,5.069067333068997747e-03
1.358057855632147613e-02,2.198041832140125440e-02,-1.405525939041927727e-02
-3.364870211043135412e-02,-4.632944615825041607e-02,-1.566957847798532491e-02
-7.242342711622819229e-02,6.854345373197326396e-02,1.098474028070008518e-01
-2.679471031699556804e-02,2.216154408565761819e-02,3.133558289932138197e-02
2.540490760073119483e-02,-5.935772345747451773e-02,-3.873350285623711892e-02
-3.069486004594322581e-02,6.425935534595071663e-02,-2.711705804869884648e-02
-1.737308693440292595e-02,3.286841154955147393e-02,-6.280665261014389822e-02
3.430318408127036849e-03,1.461947487748899328e-02,-1.721407506203048547e-03
-3.068412200871384592e-03,-6.513804926381851212e-02,2.583149118401068325e-02
-3.775368868377260156e-02,-6.844635029282543359e-02,7.015645685813115540e-02
1.752781102543407576e-02,4.386579226781039953e-02,1.215587016269627785e-01
1.680705925718350285e-02,4.549265209510226912e-04,2.176991317716280711e-02
-5.466231158897306985e-03,-5.580958032946106706e-02,3.817763455644526075e-03
3.253991249089321219e-02,1.299734142106285031e-02,4.213655779233627108e-02
8.225882934359929344e-02,-1.905817114456552150e-02,-4.121494835592851708e-02
-1.570235596564266076e-02,-3.417635920764980351e-02,3.455726634417231533e-03
-7.148274441622320778e-03,-2.649576518486600543e-02,-3.122297416123158073e-02
-7.593149412031033850e-04,-2.232767979419648767e-03,5.292731564285672874e-02
2.789873074400320285e-02,1.102138165123914409e-01,-3.848069684045778843e-02
-4.420214657125758062e-02,-2.956675806211697330e-02,-3.723840786457326742e-03
-3.280532070830625285e-02,-2.938151907652466598e-03,-2.454094540418712278e-02
1.237621126361770907e-02,4.143379188195931914e-03,-9.924357006813896639e-03
-1.716878974694653268e-02,6.071722482878631755e-02,1.634620974424486409e-02
1.050783891890059996e-01,-2.959120749518024535e-02,-7.517829117438726283e-02
4.404555141931391221e-02,5.065862254316875340e-02,3.853149104778445799e-02
-8.887790714511213663e-03,2.568704108814144540e-03,-2.105782072553864792e-02
-2.114762136177132310e-02,-4.530813297134455436e-02,4.040845483346451779e-03
5.635048976713603192e-02,2.245937257920267369e-02,4.291485785096835204e-02
2.970081501148270214e-02,-3.392579786859182406e-02,-2.046480166254284472e-02
-5.144723394019731777e-02,2.068032745976683233e-03,5.386812716556126091e-02
3.925387847939107618e-03,4.431952016949656376e-02,-3.307392954057396250e-02
-5.481623095967304987e-02,2.940217120171064596e-02,-5.478967055946500075e-02
-1.854003390068154067e-02,-6.808852064920659780e-03,8.784636196977169131e-03
-6.756964410712672231e-02,2.996331811082948368e-02,-3.886352088227193469e-02
-5.145900945966092738e-02,-5.151651005084541962e-02,-2.385799506560806402e-02
4.396470432222914990e-03,-3.683687018659846657e-02,7.364798999311943095e-02
-4.334293413679152218e-02,5.855994701116318257e-02,2.605977154550669431e-02
-1.949359261943866889e-03,3.593665789856680115e-02,-3.250939795823263451e-02
-1.080657025405333364e-02,6.435952947410300551e-02,1.654711174772194315e-02
-5.242258914251205631e-03,-2.120875305976184858e-02,-4.847421483933007924e-02
-5.677938600531273056e-02,4.846102736392945975e-02,-2.133958655478371616e-02
7.360404022737582208e-02,-2.412603587640602121e-02,4.231082832565264545e-02
-2.955124441968051685e-02,6.130516732561133025e-02,2.710141903757406351e-02
1.910347560433443143e-02,-1.120509128904239628e-02,-5.372649161537305235e-02
-4.971783522007700538e-03,-3.354135951248350678e-02,-4.739156923524228023e-03
-7.205858435863306049e-04,1.595576354568594129e-03,-6.449301078989676250e-02
-3.890334321504538423e-02,5.037471988934021094e-02,-2.571204619043116271e-02
6.121063331342203873e-02,-1.267585126056243027e-03,-1.061674673935546556e-02
-3.051148346010077242e-02,6.382377613268218342e-02,-4.464046611012372628e-02
-1.435158938124371682e-02,-2.595003922608970365e-02,-8.583417593556087397e-03
-7.646042207272625568e-02,-5.851017169833296755e-02,1.564949109945906747e-02
5.482075342469242690e-02,-4.066164307704449310e-02,1.150635948982875294e-02
5.241189990106730895e-02,3.098159014413678913e-02,2.670855836655922425e-02
2.553572606023051320e-02,1.789583520938912986e-02,8.473455220684114608e-02
-1.101108647679587514e-02,3.160251960718879656e-03,-4.484473972823042887e-02
-1.489307142347827059e-02,-3.165712949411153641e-03,5.730386565099407359e-02
4.922846007697516402e-02,-7.645021940242845149e-02,-1.595321172925696918e-02
-5.466425752179665531e-02,2.138045991247418745e-02,8.453063337743142724e-03
4.909817170594327207e-03,-8.167152514438655309e-02,-8.691738444137142930e-03
-7.113175585185663174e-02,1.142977382317175855e-01,6.447958357344954483e-02
-1.030836300868589409e-03,3.321895881977444259e-02,1.208634060657091860e-03
-8.048495500291973775e-03,-1.834737503672865741e-02,-1.457374698203243828e-02
-1.956049000069494392e-02,-4.712981910005351743e-02,5.680942119151009134e-02
-4.051215776632888232e-02,7.378341436249227780e-02,-5.357743520727227537e-02
-1.856845240992566898e-02,6.267301846245261487e-02,-9.110411246914926209e-02
4.261539272734038430e-02,-5.639758554058261000e-03,-1.004121203623081077e-02
3.259563622178818232e-02,3.392796485423594383e-02,2.342740229569629726e-02
4.954486521350694866e-02,-1.220518075481007506e-02,1.050295691849512277e-02
-2.575299011490125856e-02,-3.731683146740034929e-02,2.543138939256948602e-02
3.467087071210148835e-02,2.533013713381060752e-02,-9.041469081409583830e-02
-1.343321877028523514e-02,3.380857427566665713e-02,-1.802440438685505228e-02
3.128462755039549542e-02,6.310953461878596182e-02,3.373282452381895502e-02
-1.133240921215984860e-02,4.483107857301148885e-02,-3.792319466423516028e-02
4.561896708914924686e-02,-2.213743401085685041e-05,1.282773404047407063e-02
-5.727012306544425335e-02,-2.366840942462206804e-02,3.324876340248839740e-02
8.932602257319708500e-03,3.269175315196456988e-02,-8.817312157948783979e-02
7.631635644203019382e-03,-2.175562961994252989e-02,-3.664092170833960910e-02
-3.214201429467944404e-02,-4.352257118756873433e-02,8.303793807869193355e-02
-5.140129373902532772e-02,-6.942422235631999505e-02,-7.165869402847764580e-02
4.213168519168292159e-02,-9.062252835937327500e-02,-1.689798221056442590e-02
-3.597568995211646026e-02,-3.821497407197144906e-04,9.957973268490462673e-03
-3.247154835900747938e-02,-4.893810337276646022e-02,1.110379953766769262e-02
-7.491093417182535796e-02,4.192839536779044418e-02,-4.029097879714162167e-02
6.561141199259615253e-03,-4.870361778279784504e-02,2.142354192284979739e-02
-5.268194303597855538e-02,5.198827039176863452e-02,2.353465449667503651e-02
-1.217655325741990452e-03,-3.665308223538405602e-03,-3.129510223474259167e-02
5.306692254512099943e-02,-4.710577941577804434e-02,2.288240538843898733e-02
6.821022954808529659e-02,3.138454155835051357e-02,3.919240387763499311e-02
1.857486002097221214e-02,2.749034041765257078e-02,7.698228997115227901e-02
8.263770469346201630e-02,2.703422837357126809e-02,3.464326479317342278e-02
7.473932987236085734e-02,-9.695578086331635903e-04,-1.050159732654447689e-02
-5.578889357403431226e-02,1.282794564830768216e-02,1.092502483852481228e-02
-4.211245680513567291e-02,-4.944969180269339487e-02,-9.404473211083327899e-03
-1.611567063847537673e-01,-9.853790641223526825e-02,-6.958175583803684339e-02
-2.283151015529414143e-02,-8.214684792788114545e-03,1.184712069451915317e-01
4.872994012821248860e-02,-3.191557341431006112e-02,4.912785977183349584e-02
-1.560149275441909469e-02,6.872416945242212916e-02,1.948658315542593777e-02
-1.517130622966194470e-02,-7.604970387654534647e-02,-3.343344990745120843e-02
-6.331768065582443761e-02,1.150812391319272487e-02,3.639478918576264516e-02
1.181608176494962706e-02,-2.622354996584308831e-02,-2.395620970058287905e-02
-3.319184531385986625e-02,-1.235261616410669727e-02,1.773059376989524066e-02
-9.931078107004500180e-03,-3.955514116945214875e-02,-2.451525673476257980e-02
7.702386687574881707e-02,2.436025210911089631e-02,-1.842448557493729655e-02
-2.530847331740204362e-02,5.663569512836449937e-02,8.008707172670794655e-03
-3.816638082958853651e-02,3.551176923138087312e-03,1.671492108033757404e-02
4.992608054980499782e-02,-2.210270741225928842e-02,-3.953564936894871096e-02
4.215704112449378260e-02,-4.941170523935961567e-02,1.077798404445105699e-03
-1.901280832321813885e-02,-8.236814204246978993e-03,3.685394942936010693e-02
-3.412813393023208380e-02,-2.248908769396724266e-03,5.442232427866751376e-02
-1.657124768460031816e-02,2.125900622896640876e-02,-2.134318014223092128e-02
2.276215778841151477e-02,4.117200501600948304e-02,3.336311870089840592e-02
4.489689457684954699e-02,-4.809891279743180870e-02,-1.913875185753731445e-02
-4.499699684502812824e-02,-2.563703696224510845e-02,1.078706484314948498e-02
-5.767580163550739547e-02,9.551534105638997962e-03,-1.141805770150867809e-02
4.454149406083979940e-02,7.063780345846457087e-02,-7.713758158148323676e-03
-4.592078441577412962e-03,8.489806507822530990e-02,3.639818209850121528e-02
-2.313502705506283522e-02,-6.938350816463927095e-02,-5.969776815861682628e-02
-1.161010911283681842e-03,3.343720741258029983e-02,8.271352599012106455e-03
6.088589445094345215e-03,-2.285932079473383324e-02,6.095560971625890029e-02
1.937850611711286128e-02,4.327012006995024918e-02,2.305118806394560946e-02
-1.643264624233144958e-03,-5.870821566592253349e-02,7.396254613479792683e-02
-5.165308413617872773e-04,2.606394033678506583e-02,-3.877350050598684511e-02
5.725883415836142964e-02,2.473460114151821918e-02,-2.405156780795464355e-02
-3.309832991785314864e-03,-1.113363859321846172e-02,6.824834784223391196e-03
2.224203546211901694e-02,-4.751539780155272091e-02,-5.923580297051049895e-03
3.172183832031191114e-02,-2.492274421970713111e-02,-1.569786194352998029e-02
-2.516639272117711726e-02,-9.685485193119182943e-04,5.474442790496910488e-03
6.736173367641429266e-02,-3.780499265161339773e-02,5.311948154204023526e-02
-1.350183941031460853e-02,-4.702004290246735579e-02,3.978211877993383799e-02
1.874889892117785617e-02,-7.384679078998286628e-02,-4.415815151805149719e-02
2.647908308911391811e-02,-2.340264659007733686e-02,1.418897911818928388e-02
2.928644594224273407e-04,-1.223384562582776822e-02,-1.511823618694436641e-02
-7.070382379537930306e-02,1.536916388798731901e-02,-3.659175846884166194e-02
1.527859457205901599e-02,-5.683437899703626221e-03,-1.502269057868328879e-02
-5.893174438095163253e-02,1.668641345617349545e-02,-5.580316721559641646e-02
-5.562320073573143869e-02,-8.781794734473623298e-03,-2.584347916571615861e-02
-7.238973805673598605e-02,6.206335333475181820e-02,1.470153644103679678e-02
-3.938385461888210121e-02,1.842278047338233304e-02,-1.072775334637308675e-01
-4.515068805338077161e-03,-5.677183268863824489e-02,-2.479163916159464465e-02
-8.819019594843824361e-02,-4.045806355444220292e-02,-5.102436371074763055e-03
3.952482673115770978e-02,-1.321741205521309798e-03,-1.548203240279052029e-03
-5.828685638353772042e-02,9.587063783634358627e-02,4.983290886662251201e-02
2.047856548431427250e-03,5.132841085369903994e-02,5.175188801658987293e-03
-2.630119150912805029e-02,-9.557858610318246267e-03,1.968850276761962420e-02
-4.089620797835111232e-02,-1.545325921606028642e-03,9.443903949861759406e-02
6.159483139486861270e-02,-4.219717486781307536e-02,7.031910404638946205e-03
-4.183022068049576520e-02,2.619626689806581546e-02,-3.820909424707417956e-02
3.730458874510083483e-02,2.072704754540117406e-02,-5.952153530874810389e-02
-1.422144888734165891e-01,3.974247595939320310e-02,-5.763165050611269297e-04
2.715612664387614950e-02,-2.280707814295001093e-02,8.181934564937241861e-02
-2.857851325508614995e-02,-9.094945582247634941e-02,3.667345086435631202e-02
-5.079263755626384214e-02,1.305727217235140916e-02,6.081701743556221229e-02
-1.291777381444830092e-02,-7.195434834506785060e-02,2.709417571444786357e-02
2.810768926619519256e-02,-2.887317717886043675e-02,3.233602597729177963e-02
9.584730412238505123e-03,-9.967935037171768084e-03,-9.115400531730008180e-03
-2.009278088257782091e-02,9.066539304541010660e-03,3.363059959813902849e-02
3.690380483578257348e-02,2.718775769354262253e-02,-2.875898750969385978e-02
-1.270578116385860309e-02,-1.695097105799698439e-03,-8.278706732261932990e-04
3.846503291332130543e-03,-2.561964356998054637e-02,-1.188498552094753233e-03
-4.770572569266837495e-03,-3.044123454176022800e-02,3.868405770288625527e-03
4.052012739823373372e-02,-5.169241579334016984e-02,3.261307048037003636e-02
-1.039037674700400704e-01,-4.097020097553364520e-02,-3.490188986417332856e-02
7.447064276878314314e-03,-1.399480000092970244e-02,-5.310534321253435747e-02
1.790477132475248867e-02,5.910244272838523216e-02,-5.087572435243930408e-02
-6.434588134754309040e-03,-3.410618004244642121e-02,-6.981185246309636050e-02
8.649017226233360334e-03,5.294123901199848659e-03,3.815154634794377941e-02
7.946935029903523517e-02,7.417678362578912239e-04,6.868602039399826498e-02
-5.046533104552110988e-02,-3.482899715565908327e-02,-1.115018593156869367e-02
1.645259940917687125e-02,-3.449302638977566615e-02,3.625524580636484834e-03
-3.992379674108358090e-02,-3.259471357517571694e-02,5.503042594774920594e-04
-2.377047544956343780e-02,-1.840531966372159489e-02,6.779665680974336639e-02
-7.933320117255876491e-02,7.991932025095530023e-02,8.666144245882238806e-03
1.625031710207933480e-02,-3.986994234217373229e-02,1.557583012798125638e-02
-2.907713505686540523e-02,-2.314279799712722421e-02,4.520887344079225524e-03
1.214097725840376958e-02,1.166834961179946326e-02,3.025767894702024313e-02
-2.455684332197408982e-03,-9.254439985861286425e-03,-2.285349885388466770e-02
2.180429186585233076e-02,7.079451522804099117e-03,2.796334762636265570e-02
2.789806596320680565e-02,-4.609311974949322280e-03,3.770691928037166879e-02
-1.243156879248739390e-02,3.252188154320070218e-02,-3.681118254568117865e-02
-2.006246128609710279e-03,7.286593984960991477e-02,-4.175634408817392382e-03
-2.936037899701936238e-02,1.436365873478939910e-02,-2.273343811698022923e-02
-3.071503540633894330e-02,1.189657373195968960e-02,4.210014792138149636e-02
-3.657602894166478436e-02,-9.200697390261634509e-03,4.220880954740171621e-05
2.188718389171829398e-02,-2.536605317419170572e-02,-4.596543777407401804e-02
-4.530824324429056499e-02,4.771097017877431318e-02,2.659968312763446446e-02
-6.081549810292814079e-02,-2.560927242399009540e-02,-2.927520961017996901e-02
4.471372819792645420e-02,4.634353248333181186e-02,-4.040311420129261838e-02
1.767723448605849554e-02,-2.101651395609459294e-02,-4.384686832935938416e-02
4.287770938186100805e-02,2.155956756759521906e-02,1.335962335499508817e-02
1.560377160389620627e-02,3.376870753865179875e-02,-3.496689837959557345e-02
2.355018522921648039e-02,4.621590729538072040e-02,-7.525350327287662344e-03
3.423356351361356298e-02,3.333171698850693337e-02,-3.516072768974016355e-02
1.420743035405646476e-02,9.601810553815981475e-03,-1.130054413553442660e-02
6.476667809695227374e-02,-1.347693876014780488e-02,-6.165514161003679550e-02
-2.245054019736265893e-02,-6.726804919876086530e-02,-1.443736442596992887e-02
4.740606377885040607e-02,-7.925591791343977385e-03,1.309192768332015089e-01
6.761171267855785143e-03,-7.877387795779668090e-04,2.091119772525491111e-02
1.136989701849907969e-01,1.649086967697023856e-02,2.256860287690325845e-03
2.661053880985642106e-02,5.726968685529180113e-03,-9.987263306687759953e-03
1.315199404510365364e-02,4.236178804647133117e-02,-6.284029409259089816e-02
-7.510492631722970325e-02,-2.089344210339528010e-02,9.256158664983671000e-03
4.291535721030920875e-02,1.349059905967547705e-02,3.990574942736613284e-02
4.361029656779075864e-02,-1.693333298465479406e-02,6.736153327068861163e-02
1.763769218339514624e-02,7.720394492056324720e-02,-3.221566536038532064e-03
2.068873654313004365e-02,8.154200718874909937e-02,-1.120442150157233661e-02
2.520772411068973942e-02,3.558526498446617364e-02,-3.280146567020811657e-03
-8.111054922671199346e-03,1.357406706142864732e-02,6.523988706090330658e-02
5.932815337239594200e-02,-1.252577120088923905e-02,2.413641380202862299e-02
6.322464917560084718e-02,-4.136955385666010038e-02,-4.404233922898838360e-02
1.815329040984463294e-02,-5.473739080718646038e-02,-6.170330522668992373e-02
1.648243669125266583e-02,-1.722195138528315704e-03,-2.401877610154742881e-02
-2.753033599945803322e-03,-4.895292355068581180e-02,6.655415484206023136e-02
-3.942814649504888802e-02,-2.327155490583570491e-02,4.863939811583223305e-02
3.903997177877691072e-02,7.997128412395462793e-02,9.020043016852326550e-04
2.239912877887147158e-02,7.623332899928871899e-03,-1.157503158443216884e-02
-6.841478074277022869e-02,4.856352810426441818e-02,8.759710424041948496e-02
-7.205046053899868963e-02,-6.859420343865312020e-02,7.840452991614420275e-03
-7.499595875585028659e-02,-6.098758449630622795e-03,-2.249427336053286264e-02
-3.582681348126267283e-03,9.080998024728510754e-03,4.668619961402532131e-02
-2.401524263460745601e-02,-4.512689719962099250e-02,1.572688049294290388e-02
2.542279155626828505e-02,5.141891177920379641e-02,-4.437050857953133668e-04
1.390723669786010641e-02,7.106825573883765804e-03,6.263477952380008817e-02
-2.561267079549260986e-02,1.533208202758602409e-02,-1.691907511526186125e-02
-5.191090968649592768e-02,-9.479416264693070471e-02,-7.499245850333124963e-02
1.958157568774226975e-02,6.458210175403190922e-02,-1.319404757007585499e-02
3.916903203820552848e-02,-2.606903930038861547e-02,2.495488466801791885e-02
2.854821322827065869e-02,3.895287288599140474e-02,-4.122375900931048165e-02
2.213218471922435288e-02,2.093268391342036322e-04,1.910661127757087158e-02
3.886559299969932074e-02,5.648794753243597221e-03,7.945899371012629664e-02
4.556340090064667919e-02,5.678280045448558938e-03,-3.510363582076908573e-02
7.660921895848687123e-03,1.395311814665191677e-02,3.527689340930711265e-02
4.268223725656059009e-02,3.272857282567297188e-02,6.182301741658302770e-03
4.074216084492471995e-02,-4.761689105466874322e-02,-8.980869193763292568e-02
-9.447450846170296623e-02,-1.877271304648001418e-02,-5.826185607420356419e-03
7.166055186810138533e-02,8.495185994372364546e-02,-5.084662105543172328e-02
-3.574328580233067636e-03,1.238521946055727053e-02,-1.355654988576928711e-02
-1.573389792039025376e-02,2.005938269854932662e-02,-1.950503885597515419e-02
-1.269379791125483936e-01,3.541990604404639253e-02,3.131171067991601886e-02
-1.658605111488929348e-02,3.289143426429690792e-02,5.374771947525153193e-02
-2.283372508995382827e-02,4.663662040607921555e-02,3.138096128588052647e-02
-1.357270466679812160e-02,-1.620695839269589711e-02,-3.840537367526296320e-02
-1.382909905477549412e-02,-6.395003734243324967e-02,2.080773318846037070e-02
-1.537241264745367944e-02,-1.104212795763816202e-01,3.551945127080699538e-02
2.654929608826295945e-02,-2.527738763328885030e-02,-2.652583643114916553e-02
1.723984819062953505e-02,8.812584152227893874e-02,-4.295143123107988264e-02
-2.241820225261705046e-02,-1.158360801071070187e-02,-3.207774638546883467e-02
2.592008182640269907e-03,-1.483601004807229631e-02,-8.608674160225530947e-02
-1.974541052791469950e-02,4.156937775250219708e-02,-3.475073641168643923e-02
-7.570932280850445166e-03,-1.161278393922868940e-02,-5.712258793338310936e-02
7.059577306095020897e-03,-3.035381763040868180e-02,5.749716785400833113e-02
3.924990012172668852e-03,-2.606595233603198336e-02,-3.079118282232242831e-03
-4.821784814251087181e-02,-3.360119547668649620e-02,-5.804309544353894110e-03
-3.453633002908560595e-02,3.587156044064081922e-02,-4.287684091355913052e-02
-4.120796354888362628e-02,5.839728591754383968e-02,-2.076697261727349433e-02
8.208209442767536168e-02,1.157376385300224256e-02,4.030061006364332038e-02
-2.483247920133705225e-02,-3.413020825334582564e-02,-3.070958999159010411e-02
3.788802989981990450e-03,-1.750687459083618896e-03,-1.178864809850289040e-02
-6.574943107423461552e-02,-1.935342340153531349e-02,3.056485178497923144e-02
3.309787118972655484e-02,3.134620547716921585e-02,-1.026605573593608600e-01
5.743672439875609909e-03,-6.455528601164496616e-02,5.366867222224118439e-02
-1.175188835871655846e-02,-3.366137053974627147e-02,-6.245527527557057784e-02
-1.555303072057647069e-02,-4.836013778279613096e-02,2.886377778519364640e-02
6.550423995583283011e-03,2.470457183306166288e-02,3.167146662112238498e-02
