accel_x (m/s^2),accel_y (m/s^2),accel_z (m/s^2)
-6.045343435474049079e-03,-1.288526529939432305e-03,-9.792314821218198517e+00
8.697790635308790333e-03,7.697183759901830716e-04,-9.778522175299023900e+00
-3.738911573132357256e-03,3.561936093665998924e-03,-9.785084387690652363e+00
9.652610647169082916e-04,9.375533166929932681e-04,-9.792976199513608648e+00
-4.724021062807441012e-04,6.480236790624861916e-03,-9.781720693653376486e+00
-5.913514890062452484e-03,-1.197395271223049848e-03,-9.792448438990652093e+00
-1.107264646336603674e-02,-1.406150618121956158e-02,-9.783352424968299488e+00
6.530264565654379273e-04,1.999003330030591895e-03,-9.789081336057680716e+00
2.735136039732046637e-03,-9.337500655302550384e-03,-9.800025191199569718e+00
5.002138796390480195e-03,3.106470307631076493e-03,-9.797093734181071767e+00
-5.749632096480184265e-03,8.025361060681031333e-03,-9.787531063395622510e+00
1.343483584826182190e-03,-7.178762371939427164e-03,-9.799487284234530193e+00
8.189867017468061700e-03,-5.573364583624993741e-03,-9.805757070281954313e+00
3.479557648274720239e-03,9.656495904372583081e-03,-9.795857680945363910e+00
7.143918128712407022e-03,1.104960899864772424e-03,-9.784636755202679836e+00
-6.015154679531726882e-03,-4.589557175571589570e-03,-9.797684917667080384e+00
3.789153595311783342e-03,6.610929707482447607e-04,-9.787611879287320349e+00
2.809686647033746067e-03,-6.904737610890811228e-03,-9.788187702136255552e+00
1.722423595211875283e-03,-1.253881955379980732e-03,-9.787059751738173219e+00
-3.565339738915033270e-04,-2.641234573373850685e-03,-9.790251950542417703e+00
3.673075748723835681e-04,5.722190330483795757e-04,-9.796418031782726743e+00
-3.383065396499594646e-03,4.645637895864823501e-03,-9.799152474491645393e+00
-3.845902244421096211e-03,-6.194640449700423990e-03,-9.789755383250758669e+00
-3.606416328078299646e-03,-5.247605741066407696e-03,-9.795008918392822395e+00
-8.649355687656266629e-04,-6.240801276058548230e-03,-9.791904509605878104e+00
-4.385412678694551938e-03,-5.127964133417641131e-03,-9.787949077945535592e+00
1.011597317795571473e-02,2.360231764017137711e-03,-9.801940143038942566e+00
-3.394209786549205569e-03,5.401157798017150805e-03,-9.804808711081722805e+00
-9.598833089694060747e-04,-2.609614285396618565e-04,-9.779136897064400813e+00
-4.275418718279047799e-03,8.907665659439312558e-03,-9.792951083291708159e+00
-2.763311872786051396e-03,-4.359728626507787703e-03,-9.804250490731172718e+00
2.827167621158322049e-03,4.387127167111836736e-03,-9.799987950036211259e+00
3.195554058520178042e-03,-6.087917994879150398e-03,-9.801136069870489465e+00
-2.137275389001613585e-03,-5.050776053350498375e-03,-9.782953770615508304e+00
-6.907560207072660323e-04,-6.713436573383377813e-03,-9.791908222654752691e+00
-1.560408539471966555e-03,1.392288011752790136e-03,-9.793503481992855697e+00
-2.966602134041303272e-03,2.049845874905042303e-03,-9.799226473037217389e+00
-1.811595176939696447e-03,3.498248513206533069e-03,-9.789283728434018172e+00
-6.596351924024941062e-04,-8.157889945772908756e-04,-9.799182078250879613e+00
-6.680692895639955657e-03,3.928118292673301801e-03,-9.799817704385775485e+00
4.608263125721315766e-03,3.488852967162415445e-03,-9.804268176072293173e+00
-3.784836297397269327e-03,-4.927156963353254617e-04,-9.794843628339004127e+00
-1.249982787343442529e-02,-6.430528127269434166e-03,-9.805745484068633999e+00
-5.196552674927246152e-03,-7.156009769480808024e-05,-9.777732874948030783e+00
4.163381075173794993e-03,3.207025104928186107e-04,-9.794223138472029078e+00
-7.821622619964833023e-04,-7.569708613245026453e-04,-9.790659854403498841e+00
-1.980750375859397731e-03,-1.012475973128292668e-03,-9.793476798052111576e+00
-2.045246250006376842e-03,-4.953988978299795655e-03,-9.792719631315046414e+00
-2.193656939369444201e-03,-8.388969830461199401e-03,-9.794941330711706584e+00
-1.699266813754830505e-03,2.603521393868246745e-03,-9.800455517004344586e+00
1.693285203632133502e-04,-5.782531650991669034e-03,-9.789863076837118427e+00
4.376781492296908695e-03,4.266137260670066836e-03,-9.785727977173140246e+00
-9.590342450917059298e-04,-7.659089031315197832e-03,-9.803566666195626667e+00
-6.833115613034012508e-04,-1.707549563517732523e-03,-9.790508187261915296e+00
-5.034480186419057089e-04,3.258161950537267256e-03,-9.791435225407461473e+00
2.007029730590616668e-03,4.191246678529850938e-04,-9.782777229456236512e+00
5.856111906368579798e-03,-1.250509507662786284e-02,-9.798185641783138777e+00
-3.365427929074590527e-03,-2.154259192209657210e-04,-9.793195993204195204e+00
-7.050589590108409521e-03,-7.287962464477120220e-03,-9.807820424008200533e+00
4.993157574367563731e-03,1.631892752381659123e-02,-9.788192540532756780e+00
8.069616416129697049e-04,9.872459375199211639e-04,-9.790337883441551980e+00
-4.744820853467331817e-03,-2.472362103088584628e-03,-9.803408206512944645e+00
-4.807006771218204702e-03,-3.112228229473799424e-04,-9.799317265616418027e+00
3.469298659687899467e-04,6.915796189256474304e-03,-9.788640277682755908e+00
2.803808854583695123e-03,-7.116828072389872265e-03,-9.797597563619808270e+00
2.961359966032364992e-03,8.793483399751470583e-04,-9.803273957173670894e+00
-1.792179113492661964e-03,-5.461200719640972069e-03,-9.803925283199124152e+00
8.788642711183793001e-04,-4.761273316035511891e-03,-9.794080130988326971e+00
-6.450017624407047498e-03,3.284542665417541918e-03,-9.803854010761016369e+00
2.471581600518414981e-03,-7.009679538128278480e-03,-9.791487764744822186e+00
-3.500093125057082005e-03,-2.298827672783722211e-03,-9.789754105553962304e+00
3.590923711004820763e-03,-7.850734972377083204e-03,-9.802461935363268708e+00
-3.190416228962916507e-03,-2.719567558070763312e-04,-9.792800078153410581e+00
-3.623923103213052936e-03,-8.367878002503824006e-03,-9.792377351538458896e+00
5.266858631523950451e-03,4.688191998673162803e-03,-9.797205405298827330e+00
-1.202659451356475869e-03,-2.590101470516712866e-03,-9.802833716440890299e+00
2.199647770516486873e-03,7.215003490597382378e-03,-9.798815505143213755e+00
6.767734782941683784e-03,8.633498674903315392e-03,-9.791592736233507566e+00
7.357557084384359555e-03,9.617585353788083574e-03,-9.799408370070969099e+00
-9.562628910048599079e-03,-5.470596817748977082e-05,-9.817252742914924113e+00
-3.017717443732133992e-04,3.684275823441871423e-03,-9.797595129950806836e+00
-8.263717451675259978e-03,-8.866514454518184193e-03,-9.790581240605206403e+00
9.511447913676047278e-03,-1.135654160599856161e-02,-9.814406130468784184e+00
3.352686495383417134e-03,-8.457057394978173895e-03,-9.780471361838710465e+00
1.766946307179221871e-03,2.396371298113594579e-03,-9.792898202080120740e+00
-5.795716034443741498e-03,-4.066491245050406385e-03,-9.791155936235430346e+00
4.977734040760613786e-03,-4.288339868838451441e-04,-9.800215222857262987e+00
-3.680459399259902991e-03,6.821676352228016760e-04,-9.805412069445079482e+00
4.101418586212934869e-03,-1.064866865268139290e-03,-9.798283679805962265e+00
-6.856704736374705060e-03,6.308376829372761528e-03,-9.785376104146546794e+00
-4.913349632818486863e-03,3.209176610368006462e-04,-9.808572906028434346e+00
2.277219824540266824e-03,1.085596118431846578e-02,-9.806311317309189590e+00
4.276373983902333718e-03,5.111754463315507958e-03,-9.795047572624733689e+00
4.040539276887521701e-03,1.990763131401005956e-03,-9.791669101970699174e+00
5.949184023883845145e-03,-5.879677560060190752e-03,-9.787116058399877971e+00
-1.390596278569243213e-03,-3.630659731689898397e-03,-9.794523214784810250e+00
1.662881370763584282e-03,8.901977442467250493e-03,-9.802455585550232442e+00
1.958571655776204269e-03,7.678807292187324633e-04,-9.785273561608864412e+00
7.368360815273869262e-03,8.093443964409759162e-03,-9.787615013319035384e+00
-5.592751869380381839e-05,-2.291922309758136732e-03,-9.794356739718157456e+00
5.197426870728064953e-03,3.928567056440082530e-04,-9.803423741005845571e+00
-3.222737352399710799e-03,-8.024031885168618136e-03,-9.805490136181106209e+00
5.412015320416098223e-03,1.623242497483858146e-03,-9.806658039200577548e+00
3.251135648280434294e-05,-3.141025871358387768e-03,-9.787691816651042487e+00
1.619045692230591154e-03,5.066579638804481517e-05,-9.794100722269362791e+00
-5.056829487430863565e-03,-4.836767792530673529e-03,-9.800745132844165042e+00
-3.850297269888472602e-03,1.058633171300232909e-03,-9.792651069448668366e+00
-2.012829105868185579e-03,-1.287281954373646880e-03,-9.803471730513800608e+00
-3.749939518041406957e-03,4.215226681819355184e-03,-9.793999185320375389e+00
9.074868821159653987e-03,4.782680853581520661e-03,-9.782148667131103537e+00
-6.372820462718008401e-03,-9.333005072731387006e-03,-9.773196910611133603e+00
2.352279119974710810e-03,-2.742144048655846024e-03,-9.798371168490799477e+00
7.877979847605957875e-03,5.609678556233667519e-03,-9.784973524930048683e+00
4.396160621521501451e-03,-4.466078867595832586e-04,-9.798029796294061455e+00
8.908362745883400147e-04,7.034811105010724264e-04,-9.781085131170629055e+00
6.075586808549125230e-03,-5.957584027312601109e-03,-9.784207613205856191e+00
-1.117561663490396033e-02,-1.077002266286355026e-03,-9.797883359147752103e+00
-1.870135219014146645e-03,3.416977112076196275e-03,-9.809632189950322712e+00
-4.205450697331128071e-03,-1.740575893125633411e-03,-9.795790459822963925e+00
-9.314430044938301189e-04,4.914445285132054177e-03,-9.800787714037602072e+00
-4.793166062081954774e-03,-3.062593625064396249e-03,-9.792990640699551719e+00
-4.554612779458306476e-03,2.031455395190608689e-03,-9.795554386607273401e+00
-1.689661533588135336e-03,9.889549300989850314e-04,-9.799872173782542717e+00
-5.917550437082576449e-03,9.184092736028385412e-03,-9.783625099971814620e+00
7.712195608375624865e-03,-6.067182226819603855e-03,-9.799792357324173864e+00
-3.153524456886202913e-03,6.253090843905141291e-03,-9.781546116178427397e+00
3.910835342817476322e-03,-3.704136857176344028e-03,-9.809427411080530845e+00
2.481898907966271356e-03,-9.324727909743818141e-03,-9.775076671450387167e+00
-2.766716377720220644e-05,6.057543438586785248e-03,-9.791886795457331871e+00
2.596904121273840068e-03,-5.755168099771946523e-03,-9.805119514114077006e+00
-4.186120931251404755e-03,2.890764569525345381e-03,-9.796501308493594351e+00
1.368101467254207153e-03,9.291211850149385526e-03,-9.812709186041557174e+00
1.014639353504897786e-03,-1.050587109957726653e-02,-9.801908369024369350e+00
4.660261504672922120e-03,-3.744213035098606346e-04,-9.799314267671370260e+00
-1.037745440534149945e-02,-2.548039708759088952e-03,-9.783488664037760074e+00
2.108561495220154496e-03,5.432342506580712001e-03,-9.806358951090125231e+00
2.097866867983422918e-04,4.146892953771071457e-04,-9.793763625246436177e+00
-1.654344862871579501e-04,-2.321517589935892176e-04,-9.798446225386639341e+00
-8.765686783572685867e-03,1.207196322047818975e-03,-9.804182316646254947e+00
-3.767940541675013875e-03,-3.991906821923774627e-03,-9.805271234338595931e+00
-7.043385201103595679e-03,-1.288923923444819071e-03,-9.796626079326872016e+00
-4.737726635139633859e-03,4.750035588509176829e-03,-9.792783893443683496e+00
6.642293121586444323e-04,3.268415320192128663e-03,-9.805788049652186089e+00
4.938366378288997806e-03,3.473447651133274201e-03,-9.787248636789071199e+00
-3.921102885876304699e-03,-8.648288943356504527e-03,-9.793806750861891786e+00
-1.871837803099326951e-03,1.804407112639865376e-03,-9.788526670673981300e+00
-1.119008163735166900e-02,-8.498847562255722578e-04,-9.786949754981115746e+00
3.744338475185829320e-03,-6.659866340804001736e-03,-9.796909122649816837e+00
2.972173826499152367e-03,-7.528615512632835165e-05,-9.793420646597366996e+00
6.446518065114435585e-03,2.235541968428970874e-03,-9.789569556824844199e+00
7.921486366389973851e-04,-3.360736820378376795e-03,-9.795477688186510434e+00
3.767535771875777945e-03,2.779405647780550104e-03,-9.772141957038778415e+00
5.164915520605557970e-04,-5.752261385052904324e-03,-9.789582755425822569e+00
-2.160196545148255907e-06,-4.152451531279011815e-03,-9.796759051029111376e+00
3.087317618104354171e-03,-5.161751917981757462e-03,-9.787337691630183301e+00
-4.223511787648745811e-03,-4.206915799945369801e-03,-9.795452595563835629e+00
2.766261562311645057e-03,8.286849193477871522e-03,-9.812421655728039482e+00
-6.445962745637160048e-03,-1.989375379630508385e-04,-9.775807489584112275e+00
-5.049320970491974481e-03,7.386042214334147434e-03,-9.790041818753138614e+00
3.793091461535491853e-03,2.734035563847480116e-05,-9.780846639598584247e+00
-1.529787325779133822e-03,1.157147971218029474e-03,-9.793783221494742008e+00
-3.782954559005315825e-03,-9.939520515835516962e-03,-9.777761203932936240e+00
-9.419658060587594861e-03,-4.533421216092671686e-04,-9.804878506677018990e+00
-4.014256189267639656e-04,-6.073260378484929408e-04,-9.807321819108485883e+00
7.835079552262645339e-03,-2.016179015102076161e-03,-9.799412803239141212e+00
-7.589251706331631188e-03,-7.640711919795379302e-03,-9.802007928681129911e+00
-4.274005797921728682e-03,7.223210647385570372e-03,-9.786417673035886722e+00
1.335102859154372332e-03,2.491380719923170627e-03,-9.780287833161771971e+00
6.828702591690894276e-04,5.836472522781602397e-03,-9.807764644492221962e+00
-2.277393587851186084e-04,1.937971819597593057e-03,-9.790655927781292789e+00
-2.902404798004664332e-04,-1.890016821955973233e-04,-9.800352092120483860e+00
-4.479277637843997496e-03,-1.097768552707180205e-03,-9.793935757333754211e+00
-1.049600312619960139e-02,7.420203444819147877e-03,-9.788339652877882102e+00
-5.388868393033085027e-03,7.654927783142129009e-03,-9.797041240988011879e+00
1.276873940908053928e-03,-3.348247902870712164e-03,-9.806734678498123969e+00
3.394322136600467013e-03,-2.624437421948047004e-04,-9.807588111986841994e+00
2.475151728291056022e-03,-2.837548855792467557e-04,-9.793450498190260589e+00
7.983334947560873432e-03,-1.538597634217688404e-03,-9.789515577359443554e+00
2.907743987969393755e-03,-1.075925619221813510e-03,-9.798337719524853995e+00
-4.931991057596781663e-03,6.902716752265684571e-04,-9.796926959832076065e+00
9.844887563333236044e-03,-4.264974649501097372e-03,-9.795336444513557339e+00
-4.033047482030217498e-03,-8.462868687311293076e-03,-9.799508850041226182e+00
7.685640325950805068e-04,5.457658662521108935e-03,-9.792110227941087430e+00
-5.189804186037114651e-03,-3.690063080543149344e-03,-9.798885871631046740e+00
-1.964372351143686430e-03,-4.636699675587148059e-03,-9.812320745848840176e+00
1.011319877534838999e-02,3.108475364522853717e-04,-9.786334222016007445e+00
-1.219282099228305829e-03,-6.075805425957168070e-03,-9.792302348476679796e+00
4.737455546567082183e-03,8.804110412955933745e-03,-9.783544580620997522e+00
2.271689895012113380e-03,5.511734427410922531e-03,-9.790270802087819746e+00
4.338999308512275256e-03,-6.860529370993820710e-04,-9.796036120252724189e+00
5.357994649325195646e-03,5.484280373059396106e-03,-9.803058079425190030e+00
2.497071921094458097e-03,-1.833003757876651993e-03,-9.809546490118673745e+00
-1.459461880190047675e-02,1.954624562548610851e-03,-9.806277684998043753e+00
-3.807008043321340835e-04,4.091458067576235480e-03,-9.785359720457497801e+00
-3.142233010919269313e-03,-1.244914141175208766e-02,-9.809301477389324120e+00
2.631881923214255455e-03,6.681556724207504683e-03,-9.799471131390074419e+00
-7.249094195854220192e-03,-7.237120634803312011e-03,-9.782351561815595176e+00
-1.198420105817326860e-03,1.115058300748530268e-02,-9.786209751670986279e+00
8.205606200634981556e-03,-8.545211330890211537e-03,-9.794798178690978574e+00
3.638264089681869998e-03,9.553067113346670747e-03,-9.807128378303463734e+00
6.476540499469265674e-03,-2.359755254054379803e-03,-9.782391425766936877e+00
1.099491849025257574e-02,2.605119296054520233e-03,-9.805753979495305472e+00
-6.019501792675695934e-03,6.188736182522297860e-03,-9.793498652346775302e+00
1.422783210356143475e-03,4.736166666352773294e-03,-9.799663353075482419e+00
-5.004356670952950920e-03,3.397405507090566412e-04,-9.799234442703189885e+00
9.754949985150467235e-04,-8.179151932354463556e-03,-9.809170210778592747e+00
8.470048737156491217e-03,-7.487185172963153716e-03,-9.793553055865956480e+00
-2.336581925249817744e-04,-1.265899713934352626e-03,-9.804259602031438092e+00
-9.229932099917279031e-03,2.675499548137026673e-03,-9.793250409164393488e+00
-1.398599531983395639e-03,-1.706304299377794269e-04,-9.796660206454543385e+00
5.125113429173599154e-03,-3.154284783788507442e-03,-9.795733260308015389e+00
-5.226139242114778184e-03,8.736295206498758889e-03,-9.784961943943521590e+00
2.065161347466423509e-03,-2.744008687076777021e-03,-9.801387343367924387e+00
-8.136218043479970241e-03,-6.093102640522122734e-03,-9.793604806302438348e+00
-4.478416747539839529e-04,3.083958010849783670e-03,-9.785720934333102861e+00
2.230786629898648659e-03,-5.050738167774222395e-03,-9.799375035609191542e+00
-3.343534487375513214e-03,9.162950723792544563e-03,-9.782992225932503061e+00
2.384926956382577186e-03,1.485493022716608165e-03,-9.799679422605141355e+00
-3.770180973950685872e-03,2.980651081908094416e-03,-9.791950471655429311e+00
4.901037275294716780e-05,-7.198627418137979080e-03,-9.801692496014364764e+00
9.474763798364054315e-03,-1.682827514467128641e-03,-9.807676751564690321e+00
6.851407697076023970e-03,5.550863105648210297e-04,-9.795817561119488204e+00
4.718464913329097586e-03,-8.297208062577820457e-04,-9.806671574927534607e+00
5.521738464435369496e-03,9.528131146121701991e-03,-9.802639310329213984e+00
6.435794932758684417e-03,5.220850167217710135e-03,-9.792780027408294785e+00
2.351469498304277852e-04,6.152932327272878782e-03,-9.808883013447696086e+00
2.696664360348746160e-03,-7.357153205910503882e-03,-9.803666788407547017e+00
6.973721324429298964e-03,7.916052601081515969e-03,-9.775429923172303859e+00
3.283544042758639297e-03,1.930928594254471310e-03,-9.802975131566658007e+00
6.695221918673556396e-04,8.316393641062718367e-06,-9.801698609190657052e+00
-6.184654217679872758e-03,2.268076109425587461e-03,-9.789473377694182687e+00
-2.747128431286847538e-03,7.544925700075122942e-03,-9.801532799491058157e+00
-5.201091197261585239e-03,2.211461442343863430e-03,-9.777597004462606378e+00
7.380998164654206661e-03,-5.032257083982282116e-03,-9.789286688051406671e+00
9.449824811229017452e-04,-4.947084027583479801e-03,-9.795275264787173697e+00
2.276111857301911685e-03,-3.888401659952594840e-03,-9.792918916694521414e+00
1.540623440073389918e-03,1.998497360085195763e-05,-9.797436179590270910e+00
-7.625618547112747708e-04,-2.692623184582267765e-03,-9.788739512324870162e+00
5.009019435985615637e-03,-4.149789552107830889e-03,-9.796545481023903434e+00
2.913453769422291815e-03,3.949947225341245323e-03,-9.799097744220521378e+00
1.122349415180962269e-02,2.644279451461659970e-04,-9.793844969684657897e+00
-5.087712154392647415e-03,3.621817359911034834e-03,-9.790920318262067212e+00
6.225087863617168689e-04,-5.857925346772313926e-03,-9.808320159576373598e+00
-8.517964385425414939e-03,-2.466201293152183848e-03,-9.805632213902667260e+00
-5.079748390442902217e-04,4.911810768951585526e-03,-9.783955150046699245e+00
-4.951613622312705382e-03,6.340783599633831313e-03,-9.800316144530135887e+00
-4.463786526724708090e-03,2.737088195031754569e-03,-9.773710195299841530e+00
2.336812299687220042e-04,2.862571759697817193e-03,-9.780025712653309000e+00
9.079439978573581455e-03,-5.304574733367374909e-03,-9.789177164572869572e+00
5.467199553294144719e-03,-6.604634953796382005e-03,-9.796662237311361210e+00
8.548011298661868998e-04,5.485548689830581359e-03,-9.798028500065953494e+00
-1.744203565688807805e-03,3.367587884255144812e-03,-9.798758815469176042e+00
-3.935445625754641443e-04,-3.290449172918989435e-03,-9.805383982798732134e+00
1.205120029441139693e-03,5.021487224887139986e-03,-9.797978956847156695e+00
8.221226862106530142e-03,8.185192238497774470e-03,-9.794114313785819093e+00
5.284682767169488708e-04,-3.279255767646792178e-04,-9.809155311877706396e+00
-2.482284340768267736e-03,-8.998401892205460176e-03,-9.806408017874778338e+00
-2.204148087211989758e-03,-3.639283674288277225e-03,-9.793346809239897865e+00
7.501057137947293122e-04,-2.284092245872174770e-03,-9.799803329445399669e+00
-1.272171113975362460e-03,6.650643527793132902e-04,-9.783939893197507232e+00
-3.702613480458747438e-03,-3.462619375849593749e-03,-9.792240380067511296e+00
3.497970488609753771e-04,-1.352434976384125475e-03,-9.785843189957047272e+00
1.595200179384008259e-03,7.167418216626572636e-03,-9.803223973218054610e+00
-7.620999490540018156e-03,4.339127344917655875e-04,-9.774503622821782756e+00
9.444964947974949327e-04,3.212185113559411654e-04,-9.788939785940312888e+00
5.980556929776485557e-03,-1.486977848208681410e-04,-9.790324157931252103e+00
-9.499735045234276865e-03,4.037791841200451086e-04,-9.790543352520012732e+00
-4.027364074158761888e-03,-3.258326730113351478e-03,-9.796616764453785819e+00
-3.562195224407157992e-03,2.356128138668692499e-04,-9.803716779758946842e+00
-1.294476983173344412e-04,1.049757903483853651e-02,-9.806245715435327526e+00
6.782996504754298592e-03,1.656985961056231266e-03,-9.788933942287597390e+00
-4.962467282222156155e-03,-6.940566312960992634e-03,-9.779702951416648915e+00
1.314135682621026674e-02,1.756512431845849015e-03,-9.786026392920621930e+00
4.825727284857305420e-03,-1.423068702041773662e-03,-9.787989693896493648e+00
3.467901377604706847e-03,3.398624578634477401e-03,-9.788267480686547728e+00
-2.057251018668434812e-03,-7.487129814503658450e-03,-9.811632969264708848e+00
-2.801546346033391421e-03,4.059404956364197001e-03,-9.794102826169817533e+00
1.118676433685070366e-03,1.918238932053303305e-03,-9.791731789024579413e+00
7.967623052260975128e-03,-1.559812719953032568e-03,-9.785710648407569323e+00
8.848697518291140027e-03,-7.696522854772670525e-04,-9.793233443301840424e+00
-4.480712867533644291e-03,-1.488778050535150780e-03,-9.799715107353028642e+00
2.370135679857619630e-03,-2.778131820252546531e-03,-9.787015304989074238e+00
-4.979678002466098909e-03,2.909873642475184702e-04,-9.794364842082453393e+00
4.011098618124707069e-03,5.248921754385205488e-03,-9.796102365790364530e+00
4.018314253296649541e-03,-3.304841441216609891e-03,-9.790408211847301700e+00
1.369034791907654562e-03,-2.925437435031806935e-03,-9.783650538809327557e+00
-6.083917771844930301e-03,3.465124067804183691e-03,-9.796868564471495233e+00
-7.485387989349027266e-05,2.628087168771846196e-03,-9.780049750007316689e+00
1.134352534298088341e-03,-1.400732165984691722e-03,-9.782811557320293616e+00
-1.487581697543203293e-04,2.566087999354340482e-03,-9.812804540132599840e+00
-7.312880141785734096e-03,7.712189514811412620e-03,-9.791797912219916356e+00
-3.920824320345832163e-03,-5.201577698097394759e-03,-9.794483285764320257e+00
-6.630301311636777051e-03,6.359927480223285211e-03,-9.777528522649067355e+00
2.088780458458340018e-03,-6.651418486656695932e-04,-9.806467374428084582e+00
-2.988094979917138919e-03,-7.751987384581594765e-04,-9.801059023124585323e+00
4.437762163268886735e-03,3.165738283995083065e-03,-9.781071574833854143e+00
-4.050299747970551208e-03,5.051049841260543162e-03,-9.808634703222944395e+00
-8.313512764251887802e-03,-9.460161475864358252e-03,-9.778876025737986311e+00
3.031936312991438589e-03,9.142463797638101380e-03,-9.812088818043863014e+00
1.060110553951872960e-02,-6.133872318574826524e-03,-9.795437107490153394e+00
-8.184866295121105348e-03,1.828334633978835448e-04,-9.798974275391323374e+00
-8.330750508156741126e-05,-1.853050187048303028e-03,-9.803336434747226491e+00
7.456809788735720189e-04,-1.176889643979890480e-02,-9.797085582897253175e+00
1.049650806782922215e-03,4.742138622602522398e-03,-9.791654445931666118e+00
-2.992654371162147865e-03,-5.976858007701380156e-03,-9.797055728572445332e+00
-3.031040676424305060e-04,9.535241306746201212e-03,-9.787550865694528923e+00
6.697113293725601331e-03,9.874107578980296021e-03,-9.786922831611914120e+00
1.556031069575141692e-03,-1.757149325389188201e-03,-9.796306469089184787e+00
3.404539043766802078e-03,-4.589950085045532008e-03,-9.804958433787980709e+00
-1.504682633027131823e-03,3.424056410203506987e-03,-9.794734094853527751e+00
2.465767460192796415e-03,9.662452327997207713e-03,-9.800962676516130401e+00
4.605361781089648346e-03,-3.790893816602541270e-03,-9.792169070322671587e+00
-1.117627997817686927e-03,-1.127300106769517710e-02,-9.794639488966412344e+00
5.036162325228416524e-03,-1.480975064625177215e-03,-9.784052700797193580e+00
-2.013952101841147337e-03,3.258563100449368786e-03,-9.784113227634149368e+00
3.314438534855913745e-03,-1.004116284418482899e-03,-9.806802100034795799e+00
9.602513020285760939e-03,4.298807228774803764e-03,-9.786961254067040983e+00
9.359700620363039895e-04,6.622972392190117595e-03,-9.787401451871881264e+00
-6.035344375189526794e-03,5.074603327616240139e-03,-9.802125408646508831e+00
2.277845031877880674e-03,-8.030963463057328930e-04,-9.796814252663041955e+00
9.258902733604358962e-03,5.858122690888900239e-03,-9.797464910611136446e+00
-1.109162524304495561e-03,-6.087100321368265569e-04,-9.807492212715800406e+00
4.336866328652716138e-03,1.393296253645805074e-04,-9.792272469637355314e+00
5.754143164141340468e-04,5.968155097154498583e-04,-9.801703187914558413e+00
-3.087032406396511466e-03,2.094639656848301581e-03,-9.811557293089721909e+00
-3.222434379539182865e-05,-4.948268568983613287e-03,-9.800534689347866646e+00
-7.348782560123659144e-03,7.243205776087045496e-05,-9.790793012654566141e+00
-2.422624721200548024e-03,-5.134288112852890967e-03,-9.809755517867484897e+00
-2.636054409761609280e-03,-1.609909098115507389e-04,-9.794817882276163346e+00
1.378193359676865111e-03,7.693152626908841656e-03,-9.809658184372674228e+00
1.190542244635392618e-03,1.804008493514185855e-03,-9.802220433397977217e+00
-2.440233523750079316e-03,6.724003383077237130e-04,-9.796961653549935534e+00
-5.226050414218731677e-03,-7.632552107504268855e-04,-9.780999090755157610e+00
3.738439324647498964e-04,-1.841773543297625312e-03,-9.809802288768560530e+00
4.063131456781418453e-03,4.005891477602307668e-03,-9.795763846391116303e+00
4.151316130116584555e-03,-1.709626930013417954e-03,-9.802338556042927920e+00
-6.279687976503072790e-03,5.856470999302172166e-03,-9.788313154773709002e+00
1.216794166575842955e-03,6.691925563403353311e-04,-9.808592458032714845e+00
-8.236743955275840565e-03,-6.529763835132562991e-03,-9.789285782175641160e+00
-2.105396182119773085e-03,5.337008307875750791e-03,-9.786956715796389261e+00
-6.836245778201932057e-03,1.856855187549341429e-03,-9.786390779210625723e+00
-7.714841092410709353e-03,-8.289768178088574579e-03,-9.801403549218360212e+00
1.212191078100846066e-02,-1.157800631254089253e-02,-9.794784808607872151e+00
2.347170638487389247e-03,-6.602511715427208938e-03,-9.788406645244837279e+00
9.350086773684758478e-04,7.903293981312369508e-04,-9.788244280575856493e+00
3.197900078405006494e-03,-3.892638622336400209e-03,-9.798841338746617780e+00
-1.003682249923404379e-02,7.323882401169474685e-03,-9.807596908941333069e+00
2.598371934324330505e-03,3.362623185719717297e-03,-9.794904262558468133e+00
2.401832568146674250e-03,5.006403049577385148e-03,-9.788522378033666982e+00
9.702142648038114244e-04,-5.462496482610062869e-03,-9.790599778848630308e+00
-4.777157242094421524e-03,3.873890595803968721e-03,-9.786455184452178102e+00
9.927342763416482398e-04,-3.291775495015910897e-03,-9.784660027048081687e+00
-1.428181183064960048e-03,-2.922272609000132072e-03,-9.804100549235981177e+00
9.111224697570335929e-03,-3.490722343755582515e-03,-9.801767023501939846e+00
6.445663209950342615e-03,1.186170059808637923e-03,-9.785391777568451133e+00
1.478014388681358950e-03,-5.982122380534079164e-04,-9.788459851408640944e+00
-3.671819791567746891e-03,-5.159497314890885804e-03,-9.798203987537840831e+00
3.985034949375341508e-03,-6.642343480337831348e-03,-9.817005284406134180e+00
-4.340741954691724504e-03,8.799735866549523045e-04,-9.795135314705659013e+00
-5.942300500135231159e-03,1.615142200679374127e-03,-9.793054737685658040e+00
-3.780801789706234733e-03,3.217684655391359408e-03,-9.778309277164481728e+00
4.496032530734986842e-03,3.186791223995959384e-03,-9.795229851488963746e+00
2.483897872495871226e-03,4.640760663190767778e-03,-9.795742966141220975e+00
6.198871958268774990e-03,9.180951530306454694e-03,-9.811336682258390951e+00
1.016869370149027681e-02,-7.963257982220212777e-03,-9.791997232521762129e+00
7.101761159359558373e-03,-3.016856256406322007e-03,-9.789009412223455442e+00
-6.085869349681816316e-03,-6.050510023516043542e-03,-9.820009977829505132e+00
-8.607179935850185065e-03,-1.049050677112778156e-02,-9.785165515607033626e+00
3.112366041943692534e-03,-7.956303470267713299e-03,-9.789600490760157925e+00
-5.563365057136360550e-03,-5.790443714636005906e-03,-9.784163421830344376e+00
3.449548661976562305e-03,-1.039769873820860051e-02,-9.791875831997009172e+00
1.768173643535913414e-03,-5.444581185588865009e-03,-9.789916567977806849e+00
5.004629453410226053e-03,1.783132016989916137e-04,-9.800948467499196681e+00
-3.026378407519421127e-03,4.463597038815937147e-03,-9.787048610031181539e+00
7.883896430100484354e-03,8.967516120321959022e-03,-9.801840252319225399e+00
-1.672754537235943703e-03,9.954211323699000899e-03,-9.796265705573384608e+00
-4.917640684429351768e-03,-4.723442808033672530e-03,-9.796996733311095440e+00
8.958949567028440600e-04,-2.916696341263665202e-03,-9.789292722872575681e+00
-6.196955193448250342e-04,-1.797813767722405932e-03,-9.794957043129555174e+00
-3.793482113034551701e-03,2.292385996682421573e-03,-9.783336948667521682e+00
1.153654643114520239e-03,-8.376694128895452104e-03,-9.788122380072300288e+00
-7.913468176022593961e-03,5.569959097236465602e-03,-9.790715861419561961e+00
-4.528565586592451717e-03,-1.114765478965013034e-03,-9.792991764617756445e+00
2.095329078357132736e-04,2.980766528834598653e-03,-9.807236280943895324e+00
-9.551009255898620931e-03,-1.457914058798529455e-03,-9.801381074152050843e+00
4.649672964765715760e-03,1.456082306949696599e-02,-9.798289935885771129e+00
-2.347307750448988407e-03,5.313276119317684662e-03,-9.780494152005466901e+00
1.280703454746271678e-03,-4.258006131252475087e-04,-9.793322713703291882e+00
1.436666317708946679e-03,-6.345047182212215295e-03,-9.792155845294434613e+00
1.631498083531693170e-03,2.193194997776414315e-03,-9.800764533522590582e+00
-1.232512470198524925e-02,-2.541208718439541894e-03,-9.807307773945231233e+00
3.634226805718243809e-03,-2.355706738585954928e-03,-9.775645133128193720e+00
-9.838811241391917997e-04,-2.545398254577182183e-03,-9.792503439701750523e+00
-3.213217506583498223e-03,3.516728419089680709e-03,-9.804009429738115955e+00
-2.557294432322964640e-03,3.697803286124723247e-03,-9.809639115205444071e+00
5.954265114616088574e-03,9.641764146982477121e-03,-9.798954806179768440e+00
-8.565040561975574692e-04,-5.220367674684306750e-03,-9.801060194395800451e+00
1.652529066130888329e-03,-2.815831373399784593e-03,-9.788535682390076431e+00
-1.419371245531954144e-03,-2.824982025742741026e-03,-9.784749263105503303e+00
-1.205666148893715962e-02,2.693120559399693904e-03,-9.789632275021123320e+00
6.435906794052587056e-05,-8.409353976952218396e-03,-9.797859161210961787e+00
-5.152983227387421261e-03,-9.264645577083133188e-03,-9.798582791521964097e+00
1.137146647416273056e-03,2.993227288746922853e-03,-9.792735220677117880e+00
5.948772106728293478e-03,-6.704902766157426128e-03,-9.814761740470522966e+00
-3.295972972379013124e-03,5.912451319969642786e-03,-9.786030188567943711e+00
-7.557669094927378498e-05,-9.253481497770825459e-03,-9.800931579872907307e+00
-2.614600070256350127e-03,-5.678272997647437585e-03,-9.795001218380404495e+00
-2.854202652924991653e-04,-1.724185813760038778e-03,-9.799565589623428608e+00
8.140868439956394881e-05,1.400069499450747566e-03,-9.794745965893097761e+00
1.549507171511231530e-04,-7.414714593152285302e-03,-9.804481112490675443e+00
2.426233407616881516e-03,-3.505195904422896830e-03,-9.792883502793124251e+00
5.757342560813190520e-03,-3.033211408570090045e-04,-9.801504557338626356e+00
-3.179783357789308859e-03,-4.823466150152004757e-03,-9.803885481545561831e+00
-3.535881974045939659e-03,6.812795145028760881e-04,-9.797139566687187440e+00
-2.031847265813712007e-03,-2.058089076004064513e-03,-9.791686325032783245e+00
5.265634321164944405e-03,-5.557207980873268664e-03,-9.784812825612320353e+00
-2.934433105094338685e-04,3.818152100262244691e-03,-9.782041161737614843e+00
-1.507407519844823759e-03,-1.236361242760869797e-02,-9.796322018540628562e+00
-3.653946557661333708e-03,-2.686431956044435868e-03,-9.798313561651738723e+00
-8.535060120902356832e-04,1.005450760595579668e-02,-9.805735519914204446e+00
1.000955191638975249e-02,1.531209798325856332e-03,-9.798029821063305889e+00
7.912477452989374535e-03,5.672832070658955948e-04,-9.796598571146287071e+00
-1.826894904019770848e-03,1.762951547541937518e-05,-9.789776251662162920e+00
-5.557036217737589467e-04,9.142750500918523076e-04,-9.798699393225184906e+00
-2.432689265722128252e-04,1.174700340616868094e-02,-9.788384020771294658e+00
1.060146127431190084e-02,-1.056574258689240396e-03,-9.794210238560312476e+00
-1.665595027380285722e-03,4.716789507146703850e-03,-9.794849556516656008e+00
5.813521583761607509e-04,7.180977375385795211e-03,-9.798656950160363976e+00
6.229471529933219148e-03,-3.699361859171336041e-03,-9.775945520200600924e+00
2.889255425735830999e-03,-1.298638950198797428e-03,-9.782620352164627775e+00
2.621255427298208387e-03,5.859392690139442065e-04,-9.794492261031168212e+00
-2.802784895153206338e-03,-5.913370818401972318e-03,-9.791569138949810736e+00
3.331888998121125545e-03,-4.557972244600055900e-03,-9.806351318620512458e+00
-8.793326269226294000e-04,3.258027723862999634e-03,-9.802069394422222359e+00
7.377713956231164282e-04,-1.370578478916503089e-04,-9.795187074063353094e+00
-1.236802900471527808e-03,7.469390738670739552e-05,-9.785301336558166696e+00
-6.219835606556159413e-03,-2.751380908681867483e-03,-9.802745601257491614e+00
-1.249754924186476752e-03,-3.586174878324668337e-03,-9.810978345642091369e+00
5.622823547766111867e-03,9.542998808625923184e-04,-9.786732895021629020e+00
1.134141560319623133e-03,1.008942361094708039e-03,-9.799509447630418535e+00
4.080606581776558862e-03,-1.335182362789993004e-03,-9.796960378075690201e+00
4.776781245216439944e-03,-2.537136735423114933e-03,-9.806873863938047720e+00
-4.311958959789068818e-03,6.510452067148441227e-03,-9.797931947789633611e+00
-4.193436381764709293e-03,-5.123427915883584961e-03,-9.800141265672490221e+00
5.685320337915728169e-03,-7.391184186739807073e-03,-9.796825586841698907e+00
3.271799296664156496e-03,-7.827357720685771542e-03,-9.810265403607711931e+00
-3.325491484617324432e-03,-2.361086780690440319e-05,-9.789617250436601026e+00
1.974319576880722866e-03,2.532935023310761355e-03,-9.795856823500196597e+00
-2.515400500909611200e-03,-3.921828562741387809e-03,-9.793490195459440883e+00
2.706284194081440796e-03,-3.130093827398070221e-03,-9.806634813489825575e+00
1.178334481559165960e-02,-2.456993528581438474e-04,-9.811998940730058294e+00
-5.143384210905507445e-03,2.512310252075319189e-03,-9.790276624922718440e+00
-3.559410893316297393e-04,3.453813860255349182e-03,-9.818372409287226432e+00
7.282335921587842521e-03,5.248319605049405476e-05,-9.798126646501353676e+00
2.400904230068953617e-03,-1.035241495039680888e-02,-9.790088708372584492e+00
-1.966311994954421036e-03,-5.778392564586008404e-03,-9.780322739911802898e+00
-1.860435579803521294e-03,6.198437457986119732e-03,-9.796174558917268627e+00
-1.522775393581505795e-03,-5.265854901388994196e-03,-9.789151334740349597e+00
-4.441465207898744137e-04,7.753485227601740470e-03,-9.809971069108554431e+00
3.635887660113731445e-03,6.316996196728095689e-03,-9.796062455014491022e+00
-5.761579028577801763e-03,4.994720121277038995e-03,-9.793262733264180397e+00
3.548083407071723171e-03,-5.740986451456768676e-03,-9.780844248619390058e+00
1.642752467451483699e-03,2.934302840089965652e-04,-9.810444006797609973e+00
-2.413036117234141145e-03,3.798809444735240601e-03,-9.808576538648397403e+00
-3.933663464089133012e-03,-4.330434591539222204e-04,-9.798909032382237427e+00
1.866466147634211932e-03,-1.158356240863314679e-03,-9.784402196133555663e+00
-1.960739194921389331e-03,-1.401438842400759468e-03,-9.792219648732329418e+00
-7.711860747492180852e-04,-9.710063999356501746e-03,-9.788198743089173703e+00
-8.065874982582807440e-03,1.010855466473420394e-02,-9.788938423506834852e+00
3.971646220980834877e-03,-2.663853355701120674e-04,-9.787878220647288074e+00
-9.953931034865776128e-03,-7.079741133841869517e-03,-9.792980362373880254e+00
1.035909055045681777e-03,-1.233521235130594909e-03,-9.786983140195298247e+00
-2.418160171724736355e-03,-4.502198558662064316e-03,-9.785109457396352184e+00
7.766975099716188829e-04,4.510395329287869050e-03,-9.797295191473892828e+00
5.898914571882861273e-03,-3.061540093613676020e-03,-9.793940433866239914e+00
8.542756008402843209e-06,3.551097937077987276e-03,-9.817065144758748474e+00
-2.121266812686590023e-03,-1.986031503785707676e-03,-9.809097476703930951e+00
5.234940365047529957e-03,-2.166859803416295444e-03,-9.806338767889766217e+00
4.878802617482454716e-03,-6.920231307013414469e-03,-9.791306155257512245e+00
2.136385262179604175e-04,3.060338708627291082e-03,-9.783397038047620953e+00
-1.432876283730307940e-03,-1.237918640013545811e-03,-9.805407559841098575e+00
-5.815692605630026074e-03,2.257838886967958574e-03,-9.791043603660966710e+00
-1.172816993543258869e-03,-1.173422756832367964e-02,-9.789387624517788211e+00
-2.675376632577184353e-03,-3.331089061240332435e-03,-9.808550553625940083e+00
6.587603680684655377e-03,2.068963024400738860e-03,-9.786959897358196159e+00
6.024345284702797322e-03,-1.007438708142278060e-02,-9.807941853209202421e+00
-8.027015259289850199e-03,5.233806476459132266e-03,-9.800836857517207790e+00
2.064700660301759926e-03,-7.247092691255175830e-04,-9.797534775071074620e+00
8.187434028366996630e-03,-6.443652847963807044e-03,-9.793633029266416656e+00
8.453738120781229340e-03,9.696645023367495703e-03,-9.796339994273692398e+00
8.597986055782639095e-04,-1.410718210110592811e-03,-9.800569001258200075e+00
-5.497485245771835047e-03,-7.315031224354194561e-03,-9.785665112634989171e+00
-3.453606223452834051e-03,-9.972532883569256053e-04,-9.781943464652895770e+00
-1.099388777701824221e-02,1.577682990895000557e-03,-9.813997736290557938e+00
-3.641139061010915663e-04,1.562341820317167569e-03,-9.788909571567089074e+00
3.703903560500632162e-03,-9.020601793310143324e-04,-9.775997167857520154e+00
4.578156575406639762e-03,-1.426313527265228240e-03,-9.802645552247426508e+00
-2.951412727205518938e-03,5.526795722839888785e-03,-9.784459054479308193e+00
-1.138786485446345370e-03,4.880061670858405927e-03,-9.795742838265701025e+00
-1.186367111694032299e-03,2.829269997617243730e-03,-9.806513475734409013e+00
-7.653280250100702019e-04,-2.144503230031191005e-03,-9.794716410414105567e+00
6.009318664560373349e-03,-6.317917198639010773e-03,-9.794417188104098670e+00
-4.627413444884454288e-03,-4.519738144119914494e-03,-9.798666563383232386e+00
9.223020029385999453e-04,-5.430300676571217771e-04,-9.800149167835437325e+00
-4.848139086651258658e-03,-5.750233826229763853e-03,-9.805214614045548061e+00
9.066614673104463409e-03,-1.009518600181724245e-03,-9.794087415002227459e+00
6.896046379032592932e-03,-1.353323999412623432e-03,-9.794070459219996749e+00
-1.144148573352588016e-02,-2.183066812679667918e-03,-9.807081118477080750e+00
-1.173790570249246337e-02,-5.046557813585364136e-03,-9.781609633937147663e+00
-4.378446862368044409e-03,-5.964463860473316224e-04,-9.802491434599721387e+00
-1.273383102753910959e-03,6.889418430182762693e-04,-9.781975908349384241e+00
7.793213207361379159e-03,-1.865958209989132663e-03,-9.795135384213008223e+00
1.120578372500877044e-02,-5.883739947205439760e-03,-9.782392185817563757e+00
5.861882072231316965e-03,-1.685852383512030780e-03,-9.811799168296786888e+00
1.038948728076809387e-03,1.819733590099029130e-03,-9.788360183999341047e+00
-5.830675703534725872e-05,-4.976446334627172147e-03,-9.808353160742013799e+00
-2.369636575761672765e-03,8.982510452573536780e-03,-9.787930989960274886e+00
-1.926026724917555624e-03,1.173834360694873784e-02,-9.794832092976090365e+00
1.657407944353813745e-03,-5.188648575303071372e-03,-9.816841578951422065e+00
4.523996778488126140e-03,-1.451110685667735510e-03,-9.803647949051986998e+00
2.110903781764766982e-03,1.530564320498892282e-03,-9.787355274578860787e+00
5.221504197970610467e-03,4.840833389049717904e-03,-9.785744256073302338e+00
6.062934607291720242e-03,-3.535171121497549473e-04,-9.798205706007006910e+00
3.149170068763150303e-03,-3.716827752609492327e-03,-9.786217783809584958e+00
-1.562542151119980169e-02,-1.001788282950812070e-02,-9.784724178413995332e+00
6.398455965054994192e-03,-8.048521611875806420e-03,-9.802731993369489416e+00
-8.581098699313836767e-04,-3.141980915332526301e-03,-9.790209938670543011e+00
4.402393843833577770e-03,3.074757481046797459e-03,-9.798453135931643132e+00
-7.708985426567002870e-04,6.065734141927539742e-03,-9.790879333836093323e+00
-2.454281794967446036e-03,-2.279531403593156296e-03,-9.792313478988273090e+00
2.199275300599968629e-03,4.126827849354651944e-04,-9.791561403262292629e+00
-2.941422482748423661e-03,-5.820960568625494803e-03,-9.804124997891609183e+00
3.565686187304592612e-03,-5.234923655283555549e-03,-9.781687372717735585e+00
-7.703629011098989815e-03,-8.084309458661634307e-03,-9.793797789230957562e+00
1.551709967597777150e-03,-5.556049841461368002e-03,-9.792332066414621394e+00
-7.587008888424798259e-03,-4.876583025971011238e-03,-9.801473369519900558e+00
-2.680336339806754092e-03,7.809753610423273568e-03,-9.784749578091576083e+00
-1.382739446942673209e-03,4.527716592967148028e-04,-9.786639873047647598e+00
-3.750255383682587411e-04,1.073618630014033353e-05,-9.819829758970428202e+00
1.351680340581210655e-03,8.755047701611959679e-03,-9.785621797131009103e+00
-6.904156210712750902e-03,6.096499524621757510e-03,-9.795386495286628303e+00
-9.205914770853674775e-05,-2.248635809911778832e-03,-9.797521807670594995e+00
1.763984980899812888e-03,5.481648771229787054e-04,-9.806045062837140946e+00
5.208268707518983777e-04,3.160416169328345709e-03,-9.777511523096759305e+00
-6.645018376129125173e-03,1.710229141210101080e-03,-9.790188820914142553e+00
-2.488071844185746600e-03,1.527572874207321161e-03,-9.790889893303740266e+00
8.864231551040904465e-06,-3.612867790995768526e-03,-9.786147108851940501e+00
6.752662211808702075e-03,4.322648909907538320e-03,-9.787347828028080343e+00
6.097927419019397687e-03,-3.509544922812828181e-03,-9.795402688891526211e+00
1.266223855323293660e-03,1.244804357774690262e-03,-9.792775463618053067e+00
-5.674308364753308589e-03,-1.248892644828407394e-03,-9.800091309039954623e+00
-4.878330067331142997e-04,-4.423683869233059965e-03,-9.786828774397729802e+00
4.578270758165142382e-03,5.808774624587973194e-04,-9.793364926030589501e+00
1.675250727611268418e-03,5.803271006617539453e-04,-9.782077746804167973e+00
4.253076194406461147e-03,7.002829362992078581e-03,-9.786307540512344971e+00
1.313593736216221719e-02,-5.734798796774459063e-04,-9.776558025573226729e+00
4.837314554301137652e-03,2.046437103816990070e-03,-9.797396946799878492e+00
-5.400397535301153587e-03,-1.852561608630326657e-03,-9.789989179526910945e+00
-4.031426659071757519e-03,-3.539277685683193671e-04,-9.798081898542758239e+00
5.850090842129452608e-03,-1.978664004154667266e-03,-9.780020825029813736e+00
7.102643264206539089e-04,-2.542394266149714151e-03,-9.790517710754807368e+00
5.624644645637383658e-03,-4.638175367882077689e-03,-9.798335791849654086e+00
-9.326319815650983835e-03,2.270291870906682510e-03,-9.802946800564502183e+00
1.307095906891642990e-02,7.660308952956567177e-03,-9.782019210911238716e+00
3.977300316478686593e-03,9.705764677838743873e-03,-9.790135340540768283e+00
2.384133473186637962e-03,-9.837629815668273887e-04,-9.801605988441957962e+00
-8.132199441352138541e-03,-1.810369615740587248e-03,-9.787900695878922974e+00
2.622456525069315290e-03,3.380726335850110439e-03,-9.802170583393808201e+00
-3.376696840485119214e-03,-1.099207447913447266e-02,-9.795952814458580349e+00
-4.694313208532902189e-03,5.238207943696606035e-03,-9.780737086648025880e+00
2.769280675381420326e-03,-4.089426188464371018e-03,-9.787554606215016051e+00
-7.056496230193808235e-03,-2.368191829939505534e-03,-9.790882322486966771e+00
6.610922584136882073e-03,-8.860628855826790246e-03,-9.793535427012438177e+00
-5.322153217080453046e-03,1.914721364036073726e-03,-9.793557371713097481e+00
7.053042761707446068e-03,5.696582105431062699e-03,-9.776980505350117312e+00
5.417054143010866310e-03,6.220581265907181023e-03,-9.788627381836343844e+00
4.269202334428900307e-04,1.108689858959024943e-02,-9.809563410748245005e+00
-5.079946162366264645e-03,-1.999834701469282647e-03,-9.794217321654901554e+00
-4.014794466026312507e-03,-3.019945792103982240e-03,-9.798935402816232099e+00
4.331711756846857130e-03,4.113086130352488524e-03,-9.786096919920771242e+00
-8.876505636371771063e-03,1.636288024966977769e-03,-9.797033029253908509e+00
-4.569154983463814476e-03,-2.071451941782498970e-03,-9.788994075010979401e+00
1.107046151026137501e-02,2.346959513283557609e-03,-9.789888594773906050e+00
2.285366279572497578e-03,-6.765826864354665925e-03,-9.804993258944321610e+00
2.848253436138976739e-03,-2.052461944779094584e-03,-9.788517158305861443e+00
-8.692344614799663721e-03,5.875378781555281975e-03,-9.792842089446720522e+00
-9.961816055526203501e-03,3.687133835505510254e-03,-9.790685829913250871e+00
5.101391266714144952e-03,-8.000271757157971508e-03,-9.789798093487682706e+00
-3.425110111004998469e-03,-2.966614378886220805e-03,-9.791103454695178954e+00
-2.257463400313232784e-04,-7.069684190496064793e-03,-9.793808427908613723e+00
-3.770780796524951083e-03,-8.562976830787237970e-04,-9.808969291870301532e+00
3.304147814263903491e-04,6.504466760964501462e-04,-9.801328535709719958e+00
1.103496727980586394e-02,5.510248770957681952e-03,-9.791143501282437711e+00
-5.103443546696131983e-03,-1.423193912125686293e-03,-9.786039064486784511e+00
3.505022307092750967e-03,-3.709448962540049573e-03,-9.799313170676031248e+00
-8.620604867196601448e-03,1.228238209440972364e-03,-9.811270605308900272e+00
-3.661086321659791712e-03,8.345740288094831774e-03,-9.793384330239355506e+00
4.756345229757171118e-03,-7.758711034530949664e-04,-9.811653264143556541e+00
-1.945715724139192391e-03,-9.188189865077939222e-03,-9.794158933239584641e+00
-3.524332886545492646e-03,-1.168471911965799671e-03,-9.807343561605032178e+00
-7.721259139143650009e-03,-6.713388919923164375e-03,-9.780754259300206144e+00
9.839289171881329676e-04,-1.693720754984802662e-03,-9.797298736094901983e+00
-3.806083127228095716e-03,-3.630152568582721041e-03,-9.804555521909392724e+00
2.561624280906302752e-03,4.049514928772330463e-03,-9.793898767405448069e+00
2.320361583177699171e-04,-7.840411796730584540e-03,-9.790163713606608198e+00
-1.163885904378480357e-02,-3.697135633646609406e-04,-9.794190740403708517e+00
-5.031017617552055975e-03,-9.288652795552541919e-03,-9.797023833590300157e+00
5.600816759306359322e-04,-1.636092686787782692e-03,-9.802726502747526993e+00
-8.586899258766966456e-03,-4.394104681140800252e-03,-9.807514317806868220e+00
-7.999895847144233157e-03,-4.435596809832458888e-03,-9.797978559162048739e+00
3.463881487963396937e-03,-1.996436820510344868e-03,-9.793670003046099026e+00
-4.662869739439266803e-03,-2.896364690729554079e-03,-9.801516289573331875e+00
3.113035325166307779e-05,-3.097800308845841209e-03,-9.792664552939806200e+00
9.912746650660494291e-03,2.976878152434727243e-03,-9.789115900232200573e+00
4.251007972601851710e-03,-7.166427401497978697e-04,-9.795925650025656850e+00
-4.382867163631232513e-04,1.956595801785159525e-04,-9.798732674264739373e+00
-2.113009305974934519e-03,2.719368400822854293e-03,-9.791670220199332419e+00
-4.803049389664509200e-03,5.492161151074216900e-04,-9.788232478347294929e+00
-5.789601229717106570e-03,-3.811484607261558929e-04,-9.785538948965076145e+00
2.514659663961182727e-03,-5.002431584452055220e-03,-9.791182191326072370e+00
-6.659555917989242943e-03,2.147942969005067499e-03,-9.791092501730531694e+00
-2.640373822047032554e-03,-2.097695323528139724e-03,-9.784870295462962275e+00
-6.088314761989723108e-03,2.789953140267477285e-04,-9.795059864864867905e+00
-1.629727800689146147e-03,-2.669912184732549116e-03,-9.804193478877968104e+00
-2.370316788271769823e-03,-2.745817544907250187e-03,-9.802524043315099078e+00
2.974953635637378035e-03,-4.271982852892482890e-03,-9.806021252597567184e+00
1.482092499939013106e-03,4.719876680275277535e-03,-9.802273385756414825e+00
1.613928961037643551e-04,5.830338407913128636e-03,-9.795789921860974303e+00
-3.304806564818937691e-03,-2.048882822750243936e-03,-9.808363105457095443e+00
5.493562660041837603e-03,6.752241728552291385e-03,-9.794804671337516311e+00
-8.328289075876998753e-05,-6.651847746824325266e-03,-9.794092424238501238e+00
5.719650964128884102e-03,-3.008373376552878780e-04,-9.806280557027356792e+00
-5.252345533485028133e-03,-6.544215136153476008e-04,-9.787720992683516030e+00
-8.048346601032650032e-05,-9.670499347320424960e-03,-9.806686332045527976e+00
-3.190925966621453291e-03,4.793756734760191637e-03,-9.794984603892034514e+00
8.024222574189677701e-04,2.059798749282957132e-03,-9.784464445486781514e+00
-1.605901762372716896e-03,-6.329727615385976822e-03,-9.788740670805150756e+00
-4.083071239885490561e-03,8.577821081616195803e-03,-9.795417807370247587e+00
4.553286938256921081e-03,1.336429345221418381e-03,-9.773949078001882285e+00
-3.833468696409773630e-03,2.525599127273393113e-03,-9.789856275209411152e+00
5.853434324550027936e-04,7.885235082182312158e-03,-9.803360632367438043e+00
2.139223802705344894e-03,-3.390756653981830907e-03,-9.793812221638683368e+00
-7.930818861851139569e-04,-2.531970427021390611e-03,-9.801876016935246128e+00
1.338665105057739151e-03,-4.469322532008823678e-03,-9.810853936716155133e+00
1.392561133363694496e-03,-9.088677226223338757e-04,-9.795888079390424608e+00
1.069445132300383093e-02,-2.322556520666197149e-03,-9.801619151978307798e+00
6.477846872908344343e-03,7.017742976403573002e-03,-9.804156699752715198e+00
9.440110093668999461e-03,8.933139879198742335e-04,-9.785218889958608557e+00
8.035527188287960518e-03,3.758277766686111705e-03,-9.793105024332865227e+00
-4.726468399335759067e-03,6.044140249830583234e-04,-9.802602970231109936e+00
-5.703684147192909434e-03,6.188798506206927633e-03,-9.800477118047432157e+00
5.560318094125014932e-03,-1.187934984911118890e-03,-9.798123159934897686e+00
4.158442032228469283e-04,-1.816378316955510885e-04,-9.805982429367427144e+00
1.401656990732119690e-02,4.384786628465202514e-03,-9.804127273487885930e+00
1.119245388255705326e-02,-1.042696812386568464e-03,-9.769124978553012539e+00
-9.254145999692946559e-03,-7.652858261470858433e-04,-9.809333804932183654e+00
-1.725128364197460852e-03,5.587208417444158859e-03,-9.787268548881582930e+00
6.437630044779928421e-04,-8.662388710025632071e-03,-9.773455875660106429e+00
1.236886177965170787e-02,8.960469165778358258e-05,-9.806404496727550324e+00
4.612518782613055437e-03,-2.926605289276682995e-03,-9.792769812469394708e+00
3.696014518876486986e-03,-1.442649518860187004e-05,-9.785045987402773093e+00
1.079939935754723433e-02,-2.130250098700746993e-03,-9.791446410433783498e+00
-1.316998524430127576e-03,6.686835524906221268e-03,-9.784904640657192232e+00
6.068873219565630237e-03,7.994363398185325847e-03,-9.791986775064481563e+00
6.832548673744601262e-04,4.727753280142549036e-04,-9.803589280744242629e+00
-3.193098513249279131e-03,-1.080397288660160529e-03,-9.806343928820560052e+00
6.289101481631622888e-04,3.246117128061107911e-03,-9.794522309011945538e+00
5.743933527112248492e-03,-8.196282063534874457e-04,-9.790525103025759179e+00
-5.992639887034960800e-04,-4.198630780603430056e-03,-9.808793443864471939e+00
-1.710437532956545197e-03,-2.146195446167637009e-04,-9.793533651254415773e+00
3.782692088698881398e-03,-1.148115485968830181e-03,-9.797924396992193863e+00
-2.909338102571815653e-03,-3.122398964480432339e-03,-9.809561499111335792e+00
-2.793562471448329462e-03,-5.619403684565151338e-03,-9.786759870440535636e+00
7.560055996758529434e-04,6.794795819173548830e-04,-9.799620645444237610e+00
2.890158658167804422e-03,-8.380759263526629116e-03,-9.808445828490475193e+00
3.244575699301800904e-03,-2.256842628197737542e-03,-9.799808510034315745e+00
2.177053987457940368e-04,-2.506125536693297549e-03,-9.793585688275515011e+00
-4.857635672467032484e-03,8.292048317970309584e-03,-9.794901587060527604e+00
-9.955380944984012700e-03,-2.366824643855494972e-03,-9.795231102586940963e+00
4.545759790263488240e-03,-4.453691967494827382e-04,-9.803379605678966158e+00
3.697321127276274530e-03,3.769398202685732540e-03,-9.786450967870747419e+00
-3.311354849418692795e-03,7.695329295344451037e-03,-9.787445667625156887e+00
-5.974651435430283070e-03,-1.422451379937358191e-03,-9.800990585817931589e+00
2.082514213777999796e-03,1.760032774545221713e-03,-9.783920934421693971e+00
4.653258122689812697e-03,-1.001049614873430679e-02,-9.787228581300661645e+00
8.625122778566959424e-04,2.476778901807415861e-03,-9.787078457259310582e+00
9.208392704459180040e-05,1.184961093299398763e-02,-9.792194308585980167e+00
1.057864876299597148e-02,-3.759922230317927667e-03,-9.789820719386332470e+00
6.713908959897953860e-03,4.612153288796438932e-03,-9.793963038511861896e+00
-1.213562396516575277e-03,-4.234884679761622382e-04,-9.802571706590468281e+00
2.313736496227538925e-03,7.447042536706399013e-03,-9.801113125449708363e+00
-3.031789961218798145e-03,-1.167985013169537886e-02,-9.800731043471898829e+00
-2.233138073269899659e-03,-4.382583379222450976e-03,-9.783617744523754212e+00
-1.033682621850628112e-02,5.461588981038666829e-03,-9.807118337082167514e+00
2.921771005618484501e-03,-1.559904331454257248e-03,-9.797168676614644411e+00
1.894231454206593036e-03,3.257480276520403461e-03,-9.784846183246724394e+00
-2.441689957869904197e-04,-5.377974409218815727e-03,-9.815881624119255022e+00
2.124204629430765951e-03,-6.097256260006770137e-03,-9.800243205497315202e+00
2.182418690615567543e-03,-6.189551437635385997e-03,-9.800901659222507334e+00
-5.820901260850545877e-03,3.570543390821718111e-03,-9.797197262823130970e+00
4.262389363868182221e-03,3.392959365254566255e-03,-9.786898005725834793e+00
6.079619139141153109e-03,1.489181713288147959e-04,-9.786817601107177467e+00
-5.422769942837254477e-03,1.837043863530260761e-03,-9.788108132078278345e+00
9.839863592321534611e-03,-7.159116306081656856e-04,-9.789059302629610215e+00
3.968220978425454431e-04,-4.749931325675159355e-03,-9.791856323675977691e+00
1.139731042131613033e-02,-3.868258156842542279e-03,-9.790225152342426185e+00
3.665489764562968999e-03,-2.884939242108029798e-03,-9.804519517391996786e+00
-5.156329164994695284e-03,-2.708238820338674992e-03,-9.795867270674486704e+00
4.006207515519665495e-03,-3.833226980878458984e-04,-9.788877551558437418e+00
-7.565031733914436224e-04,-4.251255278150679363e-03,-9.793810008441692361e+00
3.496163709771590074e-03,-6.516198017168000484e-03,-9.785257669963957738e+00
-4.165775230262471450e-03,-4.667911186083589033e-04,-9.790149286160376718e+00
1.039541833892795039e-03,1.352017890799505620e-03,-9.800895875989937167e+00
3.172231388926785491e-03,-1.382588321814884336e-03,-9.793029785468474913e+00
1.766485635615625167e-03,-1.055393025687024859e-02,-9.809671965870000676e+00
5.390599863333712938e-03,1.001268640219163571e-02,-9.792688487569328970e+00
-9.439042088761711441e-03,3.524196315899736330e-03,-9.782135892797821697e+00
-1.248160108398576685e-03,2.917670815672749642e-03,-9.771966215551229240e+00
1.405865744421018763e-04,-2.470435464309962866e-03,-9.791321348597403329e+00
3.772602627536841835e-04,3.983452783049422352e-03,-9.787328716962434783e+00
9.251787665204781914e-04,3.079766634574382031e-03,-9.789795013311039185e+00
1.715604580216863184e-03,-5.591066698560355833e-03,-9.781864393520232071e+00
-2.151949576247225073e-03,-1.254346497333040026e-04,-9.795561623028884668e+00
3.417468384251727987e-03,-4.040714158482218389e-04,-9.798232669118696947e+00
5.226888929691781739e-03,1.253316461616071084e-03,-9.815998536186636869e+00
6.817379030890776195e-03,9.454200525688169487e-03,-9.793451008764058940e+00
-1.007581377798683628e-03,2.654295150649505549e-03,-9.794671301601717062e+00
3.336160280247961029e-03,1.309287960498467128e-03,-9.787893832135406313e+00
5.091350273115849076e-03,-7.926172269500826595e-03,-9.800233617182589896e+00
-6.167617608259187180e-04,3.408632034581675287e-04,-9.796547987239563327e+00
-1.403549389979072935e-03,1.442770942314065873e-03,-9.800757833219725157e+00
1.654208025927467966e-03,3.891564357889576182e-03,-9.795754910137477012e+00
-2.042017994755842506e-03,7.703325088787446595e-03,-9.812725659059527317e+00
1.227156396763831939e-03,-4.415842851009604483e-03,-9.779796124136383995e+00
3.091453470283412556e-03,4.733385987482069531e-04,-9.791159500984221609e+00
1.337291831579379359e-03,4.740121399354420111e-03,-9.788559136328727206e+00
9.566480891513277516e-04,5.017944101213793300e-03,-9.799844031097105557e+00
-4.501229190224297939e-03,-2.442669876803109028e-03,-9.797857635133032872e+00
-7.785296521359704616e-06,1.740378083381558384e-04,-9.788557361709774085e+00
6.993841262718959208e-03,1.609061073594729224e-03,-9.811785493750479148e+00
6.086530106323587239e-04,-5.613097146987330996e-04,-9.786823933229253925e+00
-1.198351424995349737e-03,8.450521024654109384e-03,-9.801965891623448002e+00
-2.883186700405494275e-03,-2.216704245833354871e-03,-9.794076271528185273e+00
1.492913543137210130e-03,4.007796944161760161e-03,-9.788718326113677648e+00
-8.549020840751627066e-05,-5.653033755062479571e-03,-9.792823770240136838e+00
5.134782308192435175e-03,-1.147968067908440408e-02,-9.796174294863497778e+00
5.266127785125367285e-03,4.836592942413446561e-03,-9.787675909274732078e+00
6.333567874175380537e-03,2.252705050340118604e-04,-9.795566948803598351e+00
1.106645703101820106e-03,-1.079217095342554014e-02,-9.801921735325269225e+00
9.777247218046973901e-03,-4.969592523468893339e-03,-9.792949551190314850e+00
-4.956900767001784329e-03,6.780887890755996072e-03,-9.807126618687853181e+00
-2.463155645134713304e-03,3.495216675404134738e-03,-9.776000565971235901e+00
2.201928772248156613e-03,4.566540725187106554e-03,-9.787737011151396160e+00
1.771334623318437940e-03,1.048465620233834722e-04,-9.793279081031418087e+00
8.707419501619441393e-03,-4.574473796052884976e-03,-9.804216488740419067e+00
-6.544329485905981021e-03,-3.943332708081523884e-03,-9.783136663014651901e+00
-4.498687752966276480e-03,3.280731314332642652e-03,-9.805757075637048459e+00
-1.247756450598397696e-02,-2.586002361496875842e-04,-9.796635544883018909e+00
4.465886595056203605e-03,3.080307725604679650e-03,-9.792166834153121613e+00
-4.707565070408962007e-03,-5.216123457547424021e-03,-9.794439394375787700e+00
-4.489883183338398351e-03,2.017682607250628605e-04,-9.781934541488302770e+00
-1.117401715835798694e-03,-7.874235629262855626e-03,-9.794378570385227079e+00
8.101497194957943491e-04,6.527929826657979072e-03,-9.790321018394323005e+00
1.272831078184519715e-03,1.685198835230707461e-03,-9.794079042527702228e+00
6.917249531044079684e-03,7.729849786365641448e-04,-9.793584073012342017e+00
2.532344997123989021e-03,2.143924788786627338e-03,-9.789562634256316898e+00
6.862718377917674875e-03,-1.196413461378807719e-02,-9.789769826847582124e+00
-1.326232599814987931e-04,-6.656152718556109828e-04,-9.803845448511864902e+00
-1.025314212971072461e-03,-4.405142834518678031e-03,-9.798822273807141769e+00
-4.417352216781110681e-03,-5.929599242592157975e-03,-9.795216218979692968e+00
-1.301467784762247448e-02,9.601388294324992743e-04,-9.794182857557943933e+00
-9.246651117999798997e-03,-1.676548909714251556e-03,-9.785604648994617349e+00
-4.208254341964539616e-04,3.830573256461365476e-03,-9.807056587053539332e+00
1.526673847070954054e-03,-4.319955038464191356e-03,-9.795139554062872733e+00
7.965262263709008486e-03,4.979462854816769056e-03,-9.798255003816237263e+00
4.644459517123209792e-03,5.815832460618461722e-03,-9.784662769539744787e+00
8.201964340090470498e-03,3.376221051290773708e-03,-9.790632056605261369e+00
-1.681174219907362408e-03,-8.952455513950187752e-03,-9.798156501811417840e+00
-5.757071980156566911e-03,1.285063669499169128e-03,-9.781192250068308169e+00
-4.965969969688192138e-04,-5.865038572402569343e-05,-9.799986802429353716e+00
-8.022794830742131095e-03,-4.852144468372690967e-04,-9.791234989658166299e+00
5.709790531730958921e-03,5.938005469213741318e-03,-9.792950212026177326e+00
-7.591077725509492655e-03,-2.572682799306245938e-03,-9.787256673987997146e+00
1.834326821537037456e-03,-1.924888895121997824e-03,-9.793723561994111648e+00
-2.656353768762111447e-03,6.507411980485970464e-03,-9.794582596076791603e+00
5.439321510111773568e-03,3.679910884615136889e-04,-9.783735352640803740e+00
1.842486082496919402e-03,4.300616518280929619e-03,-9.793420307763783583e+00
3.566592168156027236e-03,-1.462711892214223946e-03,-9.796395861709267905e+00
-1.175390666783972986e-03,1.997251250549290751e-03,-9.792308497046162685e+00
-4.022122186817041374e-03,-4.921607820817942847e-03,-9.793825263782609980e+00
8.204048201576564711e-03,6.261565035553606252e-03,-9.791534520003079223e+00
-4.550102675308789020e-04,-4.243133522117460005e-03,-9.802835241507745323e+00
1.093801690170747958e-02,1.414064173346119176e-02,-9.790920316045024663e+00
7.911076940137257499e-03,-3.003785772613542723e-03,-9.798006722793823897e+00
1.226817436162166639e-02,-2.399885163971204709e-03,-9.808680687572724821e+00
8.181628187067259070e-03,-1.299308925201073843e-03,-9.783745438299479957e+00
-7.659965354998504901e-03,4.142703050470444848e-03,-9.785629590573341474e+00
-1.984184985419260028e-03,-4.713893420860800453e-03,-9.797275754708104856e+00
2.613232784018044118e-03,-3.548061230683590968e-04,-9.803675415547496996e+00
6.681443610563890696e-03,-5.318403819102574155e-03,-9.787984701159309964e+00
1.291178245348982697e-03,3.274139943151363561e-03,-9.784278480077446716e+00
2.995585380329715899e-03,-4.836819358224132663e-03,-9.774013872435466155e+00
-1.786390906776778994e-03,-2.831579499243212176e-03,-9.793624001039018978e+00
-2.398538762947526742e-03,8.854465492984172096e-04,-9.794601059533780685e+00
-1.431156119312578748e-03,5.558183928249123794e-04,-9.803374606035333727e+00
2.945238555967865691e-03,-5.121259581938847338e-03,-9.791089656103350691e+00
7.687475524245445703e-03,-1.367172299927710754e-03,-9.783800493990215230e+00
4.088519455169616068e-03,-4.775580458948176094e-03,-9.785335600900662456e+00
1.981054296614334111e-03,-1.819394995906908593e-03,-9.783365484557002389e+00
-6.749328742657107437e-03,4.888034008523393231e-03,-9.792162382164971035e+00
6.949837916839343753e-04,2.072679221275975855e-03,-9.804824359240704723e+00
8.730748682820923048e-03,-1.240605355023668283e-02,-9.800743876341186933e+00
4.416000288380355840e-03,3.421652126963269178e-03,-9.805187057904454662e+00
3.866360870631096840e-03,1.338927620182578317e-04,-9.792831256965502718e+00
-1.712738547994793531e-03,-2.385862162779602610e-03,-9.817156918458355364e+00
-2.534206383095353836e-03,-8.305947421004185663e-03,-9.791414066661136673e+00
-6.460939457431185556e-03,-3.444076809185804208e-03,-9.792964801649100437e+00
3.397249412610248674e-03,-8.532143256113034271e-03,-9.795829663189316250e+00
-6.446324401157201012e-03,1.677632268852736162e-03,-9.782547043613504911e+00
3.551928654598873140e-03,6.643836241267879125e-03,-9.793237596965095548e+00
7.923667156506190509e-03,-2.689032410442242747e-03,-9.802380459658715850e+00
2.082737878539627635e-03,2.895971246733958573e-03,-9.781554811417407791e+00
5.146024779621456713e-03,-1.801641711482794865e-03,-9.796514995563260442e+00
7.674276664711070315e-04,8.097129282332995309e-03,-9.794420851355333468e+00
5.504294124297068151e-03,-1.259192942070885618e-03,-9.789154846615739203e+00
3.726393675826242778e-03,-3.373865940272364073e-03,-9.793361793653794223e+00
-7.068010220906858349e-03,2.079332061957082402e-03,-9.781196751695247826e+00
-5.413089732418513260e-03,-2.645245642647029403e-03,-9.797462378698025276e+00
-4.664131715679548790e-03,-4.196660199949736082e-03,-9.803851618468868878e+00
2.634879244631024332e-03,-3.718817971256951731e-03,-9.795182708509667435e+00
2.357616449062108991e-03,-2.189511703558710744e-03,-9.800053924024055618e+00
3.947523344980895937e-03,-1.828283602916360709e-03,-9.804984784578001822e+00
-1.569399451570980880e-03,-3.817069806483703795e-03,-9.798532345159346235e+00
4.181973282140245157e-06,-3.932212171898598688e-03,-9.792646738975438581e+00
-2.850983196759230946e-03,-7.662792891429080593e-03,-9.792446455139875994e+00
-9.379378901629242902e-04,3.404734347421762772e-03,-9.795268027148624768e+00
2.677240440231252929e-03,-1.009585399845982015e-02,-9.796227053951533037e+00
3.358688496204807576e-03,-1.654841935526820719e-03,-9.780720214751575270e+00
5.500263253669300870e-03,1.160041416697837587e-03,-9.802660794768319974e+00
-8.704513893451856429e-03,-8.274157198701575025e-03,-9.808531978462545098e+00
3.614436641569249067e-03,1.211195594389670623e-02,-9.792543668464569251e+00
-3.220841071282276851e-03,-2.841318475618676617e-04,-9.797504326207386427e+00
-3.646984763891776473e-03,7.267217556141096144e-03,-9.802548142678192633e+00
-1.733096159956516074e-03,2.669577533336090804e-03,-9.795108362434051585e+00
1.004866917461021310e-03,1.978330051010460111e-03,-9.795446629742320610e+00
3.700447818500984809e-03,1.601476180352223505e-03,-9.781624359616058584e+00
2.416514682196166776e-04,-1.679311738196420396e-03,-9.797120654305349063e+00
-1.975411937405447804e-03,2.355831716895399452e-03,-9.801416163941972570e+00
4.270735523167735158e-03,1.314232686153138721e-02,-9.788189847161547164e+00
3.093016997153590682e-03,-8.034554233459872269e-03,-9.801088803273303895e+00
-6.421603734005056074e-03,1.614010907343947296e-02,-9.803679526203579186e+00
5.764482939009206788e-03,-2.049579937022957214e-03,-9.797100675974959927e+00
-1.659919938241094560e-03,2.381696400565329590e-03,-9.790399577773110096e+00
-4.421233560386934880e-03,3.787723603944859619e-03,-9.800576894239460657e+00
-3.426249536082470650e-03,6.250048747597210068e-03,-9.791727053949990989e+00
2.898840183153566716e-03,2.706777694955492133e-05,-9.800111414654491426e+00
-2.284796316061556230e-03,-1.022299544744775975e-02,-9.785923402034214291e+00
5.780548129407286906e-03,-3.503691754543120009e-03,-9.787125257828567015e+00
-3.363677374337208613e-03,-4.299530199584146277e-03,-9.792382764773412518e+00
4.354747434646348385e-03,4.419501622854298136e-04,-9.790700832777931240e+00
4.774233267083961840e-03,4.184889240450439737e-03,-9.798470738807477431e+00
-2.884266064601812528e-03,2.245948764685018213e-03,-9.795257603950988212e+00
-2.794898631282450446e-03,1.655729133589528752e-04,-9.812909334674888129e+00
7.221004514527058814e-04,3.745355352916932457e-04,-9.782208367897730739e+00
1.861779363837180311e-04,3.237999854601308642e-03,-9.797567225036951655e+00
6.408707301603725967e-03,4.508261373399647526e-03,-9.792520557718070506e+00
7.498284141055776460e-03,-1.774009748100879586e-04,-9.783618146767373958e+00
9.487478371710680175e-03,-3.397707917994129633e-04,-9.799442407140849909e+00
9.447121202654580781e-04,4.881627889939427201e-03,-9.795842631623623120e+00
-2.552332952667441500e-03,9.044281331375299965e-03,-9.802836780177225151e+00
3.257812425834768176e-03,1.906662827437929312e-04,-9.796470456927982795e+00
8.086040362582806729e-03,-6.380653771969462549e-04,-9.807000661460270052e+00
-8.416638883900439544e-03,1.812823852630665589e-03,-9.794395739814969915e+00
-4.044926448492416719e-03,1.305388388440081740e-03,-9.795341560814605941e+00
9.754897995325356209e-04,-3.649475191419259031e-03,-9.788264253196743425e+00
-5.570263586701126694e-03,-5.990383641395859767e-04,-9.789177098057361803e+00
4.921491664797037792e-03,-1.101556457360584797e-03,-9.792740693137760744e+00
-1.803985759272997910e-03,4.513698799251571192e-03,-9.799720092143767047e+00
-2.198474068313725077e-03,-7.899874734518993677e-03,-9.795722163774561508e+00
7.097151736709643270e-03,-1.054916999608525655e-02,-9.799389034635682449e+00
4.613646625415004400e-03,-5.425778301986401188e-03,-9.790620607983369084e+00
-5.483315600986729457e-04,-1.146244042442910336e-03,-9.799243108106963973e+00
-1.646903373789289577e-03,4.323227299074650261e-03,-9.802511031581747858e+00
-6.104396775457063794e-03,1.364434861610046420e-03,-9.808473345452323855e+00
-7.887165319183831944e-03,6.289139548218854008e-03,-9.790456563097505338e+00
-5.647877835755430722e-04,-7.467685878555109904e-04,-9.800281493398115273e+00
6.515350712655337134e-03,-3.320401776077612499e-03,-9.799784364232939637e+00
-4.028759639234523633e-03,1.893219996981302007e-03,-9.793671539856438457e+00
-1.011389147831051084e-02,2.325191212578216638e-03,-9.785494293439370495e+00
4.241736988244277501e-03,-6.483705124007813764e-03,-9.784594909912160077e+00
7.419743100528055843e-03,8.737118874198394327e-04,-9.800405283943863566e+00
-2.196282727730094423e-03,4.584149425559209436e-03,-9.796787714367885869e+00
-1.871390677550011008e-03,8.087482026533860183e-04,-9.783438852194571211e+00
-1.846658923651604573e-03,6.738291226331147386e-04,-9.800660874381906140e+00
-6.405760037994477282e-03,-7.497815719571819569e-04,-9.801610812227664837e+00
5.470215615490276427e-03,6.421367406397249927e-03,-9.791590931190938818e+00
-5.081387414065252281e-03,-4.587770094609461453e-03,-9.777500653033747824e+00
2.353983805612807397e-03,-1.073006713476010090e-03,-9.802852630521842414e+00
5.279203824865309411e-03,-8.406565487408101250e-03,-9.787566566639466004e+00
-4.064236835806689201e-03,-5.258259319773369612e-03,-9.791578227024231751e+00
-5.722065591711695404e-03,1.838102311908728324e-03,-9.799396178730484408e+00
-6.275980329245233955e-03,-8.550326905722849605e-03,-9.801820614660810449e+00
-2.917307957921248460e-03,-1.371176176316045740e-03,-9.794467261311091022e+00
9.965748995535031549e-04,-3.775292245745906668e-03,-9.818631268568001502e+00
-1.686461423183457237e-02,-3.831576160769066628e-03,-9.783949324820852667e+00
-7.387177674688264004e-04,1.915092256715583639e-05,-9.808217542516016962e+00
-9.988329847996934609e-04,3.081959996833640806e-03,-9.795369952070986486e+00
-7.139240930196575838e-03,1.588682075338384778e-02,-9.792476289401820466e+00
8.007583481883328788e-03,2.710651354853521253e-03,-9.786003574359412482e+00
-1.309994413119099565e-03,5.197897517211276346e-03,-9.775190189049206779e+00
3.867805626828038136e-04,5.056196700639818513e-03,-9.810517692529268530e+00
-5.194426966600227194e-03,-1.027455607978675252e-02,-9.793436978327111575e+00
-2.601909068109706149e-03,-3.174099006904285841e-03,-9.785852725660639351e+00
2.519403856309746989e-03,-7.466008427961141891e-03,-9.781880414776210841e+00
3.385941726574713106e-03,-2.332032990111702203e-03,-9.789727632065609697e+00
7.575441729998899469e-03,9.520598030297788492e-04,-9.788914416608971436e+00
1.350273211410618537e-03,1.177535272507236781e-02,-9.811024192770034347e+00
4.613932584109140672e-03,5.981251684664832570e-03,-9.801200466391037480e+00
6.238627291790007148e-03,-4.011776725743917103e-03,-9.801972696504764215e+00
-3.678401018805535234e-03,-8.713875561706543524e-03,-9.802999754982071323e+00
3.996056268438302403e-04,7.540440149897740738e-03,-9.786348601386333002e+00
-1.453225576977710013e-03,-1.277275227162557019e-03,-9.786942279977411729e+00
-7.963523292697876482e-03,-3.035422583587611255e-03,-9.796490418550138912e+00
-1.093045112207604056e-03,2.093877761531223129e-03,-9.805953414777048849e+00
-4.492683401478271554e-03,-1.363059427660580792e-03,-9.795866957176414758e+00
4.052221397556010629e-03,1.131315122543760437e-03,-9.789230050450681730e+00
2.919322741337713675e-03,-9.728574795487461308e-04,-9.789480764711687044e+00
2.925204137850979155e-03,5.592712843176801500e-03,-9.795313480316533372e+00
4.017193539677913969e-03,3.736096147425475855e-03,-9.789261600226044635e+00
1.720932039407589275e-03,-5.700801549151601928e-03,-9.778228190635591233e+00
4.804828798393131692e-03,-1.497078055371987588e-03,-9.778249365316934671e+00
4.039043775246532741e-03,-4.414665509761055325e-03,-9.772181770466033868e+00
9.876523930712217264e-04,-1.307626399089983731e-02,-9.790304920425413115e+00
-3.781403902431781233e-03,2.823387182269760601e-03,-9.789203116621358447e+00
3.141271055516100565e-03,9.562278066077578315e-04,-9.806780388967602846e+00
-5.018395860402216635e-03,-4.836855896812740536e-03,-9.790749617666117288e+00
-5.593756598196645072e-03,-5.968607229751391428e-03,-9.783614680708089040e+00
-7.095606320083719908e-03,-2.559586173285040810e-03,-9.789723498028566340e+00
-6.754599140842653532e-03,8.602570774185741911e-03,-9.778965565747920863e+00
2.021029071289696510e-03,-1.802146699273361567e-03,-9.796512302796758220e+00
5.114525121704973330e-03,-2.976382991850460777e-03,-9.774998987982357335e+00
7.683347875054995571e-03,-1.123633479439789919e-03,-9.803031781842362236e+00
1.700756585033693681e-03,1.283641588129246554e-03,-9.800277105601686856e+00
4.076588130767771633e-04,3.284393376444109426e-03,-9.784953487528573746e+00
-2.874253594649110776e-04,9.342083651349799341e-04,-9.798536915094809174e+00
2.451702988555892575e-03,1.306815145364822192e-03,-9.791244039054113557e+00
-3.031683197756717546e-03,5.884811876507680881e-03,-9.796509888511437225e+00
7.830962609573926397e-03,-1.054759275994495435e-03,-9.797182974659232713e+00
6.164003829881380993e-03,4.137230638728972044e-03,-9.794322739990821702e+00
-8.276198501943460989e-03,2.750587304099885548e-03,-9.801810896836858689e+00
-3.219114400179482784e-03,-4.109577862141984214e-03,-9.784522349399120245e+00
6.419773096699199141e-03,-6.133445440271982456e-03,-9.799277706002900601e+00
5.791562426961748174e-03,-6.538320539384558094e-03,-9.779598842127871450e+00
7.723306799629672467e-03,1.253705841841224258e-03,-9.799385379013699549e+00
-3.405692740643916517e-03,1.358047839382278557e-03,-9.803520840669001757e+00
1.173521411439243031e-02,3.734184889657039645e-03,-9.800272008904405752e+00
1.241223789350650664e-03,1.033910116968781399e-02,-9.793328277109473845e+00
1.880966277980087491e-03,-7.392517355194883413e-03,-9.791274433421127910e+00
-1.413610493247781201e-02,-6.024177124299851145e-03,-9.789688683472364872e+00
-4.550323666861003265e-03,4.044140660799919011e-03,-9.789983512552884903e+00
5.657037229507014264e-03,-5.034031800664085822e-03,-9.800479802213803993e+00
-2.114307578291610076e-03,-7.003718182687016913e-04,-9.808858109325869989e+00
6.685435738563115168e-03,-2.035198054314383068e-03,-9.805668983669560745e+00
-9.717188041839316601e-03,-8.058128273410998174e-03,-9.808071725580465028e+00
-2.299841784245848335e-03,3.276130692304361335e-03,-9.788206926771950478e+00
-3.159783861553982012e-03,8.436290053353723284e-03,-9.776176457785556551e+00
-1.974048015853799125e-03,-5.561655994509846421e-03,-9.800286557966288115e+00
2.163006533040573356e-03,1.661909106228648099e-03,-9.799037101272579875e+00
9.623030971804425859e-04,-3.390720372562472905e-03,-9.784371313450931140e+00
4.701387477110609281e-03,2.477460902980288971e-03,-9.794178066625251589e+00
-1.114546402923107318e-03,3.954850259758019120e-03,-9.795618277239571015e+00
-3.236997745097356348e-03,-2.872642805597719080e-03,-9.796099681610304089e+00
-2.966356908820070269e-03,-1.010435575368562669e-02,-9.783666903642933121e+00
2.098649498184008977e-03,-6.770802250380340837e-03,-9.809368568744325501e+00
4.210443636717467290e-03,-5.052364959380750567e-04,-9.792170918759801168e+00
-3.460408348462365620e-03,4.282290521833434331e-03,-9.786348185577709913e+00
6.956678996762267336e-03,-8.051272186496488334e-03,-9.785101089104063732e+00
5.596047995531882452e-03,5.606088365565604220e-03,-9.806442929245045903e+00
-6.359521355283298365e-03,-9.234459144156883029e-03,-9.801202422277169646e+00
3.965801886253599723e-03,4.782715020565020056e-03,-9.809129187474361800e+00
9.400359666764111430e-03,-1.547490801825377035e-03,-9.805528035151457544e+00
4.425421435751075543e-03,-8.180726330292835760e-03,-9.786661213580750029e+00
8.742194331755499814e-03,-4.029533458630786444e-05,-9.798676154873424693e+00
8.517452027982378359e-04,-9.366086065088980242e-04,-9.785145190665394566e+00
2.313475274341339309e-03,-7.898066649680790530e-03,-9.793652286810949903e+00
-5.366671986897252229e-03,-1.751729190399204045e-03,-9.800877709945496008e+00
4.768106359736823049e-03,5.886884635369910544e-03,-9.779329948273840500e+00
4.251371910067792276e-03,-1.806793624192866345e-03,-9.804269231528699891e+00
4.554765551349338262e-03,1.059552895968593651e-02,-9.792919282902939671e+00
-7.824024649659966617e-04,-5.716345391279518615e-03,-9.791701332076618414e+00
-4.922721524669639893e-03,6.999405931306230911e-05,-9.798275204539201866e+00
-9.444113024925855941e-04,4.008370176340733497e-03,-9.788762560025656256e+00
-1.819254968973088365e-03,-1.293070064916458130e-02,-9.797018019194387861e+00
-1.558053022331118073e-03,-7.272286182000509483e-04,-9.801707620413880662e+00
4.157477004943054347e-03,7.363713426768558456e-04,-9.797459254584273580e+00
-2.837829625159266848e-03,-6.869139507264746501e-03,-9.802274729270372688e+00
-5.359283055568831930e-03,-5.318694782048612180e-03,-9.787095126207786322e+00
3.552248681802737135e-03,-9.239306675668215903e-04,-9.797061263585510105e+00
5.035962602574706008e-03,-5.940088753201596197e-03,-9.784578404448872391e+00
1.969844853528170993e-03,4.372579637735365087e-03,-9.799074050536423997e+00
1.004443452625099154e+00,-3.318697044593502295e-03,-9.803365118268493106e+00
9.880882761856673024e-01,1.044497440874879619e-02,-9.785145064228066403e+00
1.002851149288950916e+00,-2.713378324845476270e-03,-9.811556095409221356e+00
9.930971833973437635e-01,1.143150184673191131e-03,-9.789451947448119640e+00
1.000278688007674832e+00,7.265691829455488138e-03,-9.792315836645357763e+00
9.958952440380198778e-01,-6.700274330907269454e-03,-9.802795284980676982e+00
1.001144858061731036e+00,3.318232252738064804e-03,-9.786782465501140393e+00
1.007823037115911813e+00,-1.034441738054897759e-02,-9.804137196626349748e+00
1.001381786613599889e+00,-7.655115807677606750e-03,-9.808006420432793249e+00
1.003793435980566251e+00,2.779300429453858065e-03,-9.811112976262831964e+00
1.000985765389787785e+00,2.207819165524357863e-03,-9.796920050748639142e+00
1.002163000758806932e+00,4.835615091034808737e-03,-9.803938761377139599e+00
9.957174621776557766e-01,-4.198685624380073429e-03,-9.797919091992373097e+00
9.906598553516233752e-01,-4.942469597329129309e-05,-9.805929331117663850e+00
1.006953985732580659e+00,3.882152018729092754e-03,-9.796955996755455587e+00
9.932826803441596741e-01,-2.640199869938997333e-03,-9.792159293549856258e+00
1.002898863751912062e+00,-5.914723282564591286e-04,-9.780267115678274337e+00
9.983511493284360494e-01,5.409923705804644406e-03,-9.800399015438671313e+00
9.996260767817393145e-01,-6.542794498291984277e-03,-9.801274152364513270e+00
1.000245692979278900e+00,-7.762583345321567331e-03,-9.793509569957610239e+00
1.000190907110020122e+00,1.499873606829748326e-04,-9.811066601544286669e+00
1.002396781213600319e+00,1.120059544662562519e-03,-9.791056138768137629e+00
9.936403613317157379e-01,3.294930729414366315e-03,-9.789555903172526996e+00
1.003738713286719042e+00,-1.488455868338224748e-03,-9.782991872390596200e+00
1.003756185891220953e+00,-4.517497289794151008e-03,-9.783834145048686537e+00
1.001620098030417294e+00,2.717411417629943520e-03,-9.791304404484169055e+00
9.967334526933756544e-01,-3.806149373374201773e-03,-9.798393041189203956e+00
9.934651116680937033e-01,2.354048674100053199e-03,-9.796621002983021853e+00
1.000482479851676709e+00,1.663758696853174721e-02,-9.770654114947493696e+00
9.916254971675249053e-01,9.489644535755346541e-03,-9.802513284947888650e+00
9.989918300369738935e-01,-3.327066660801821733e-03,-9.779220915992629770e+00
1.002737416034323648e+00,-2.657723590676395672e-03,-9.800928104434618149e+00
9.975077445894235950e-01,-4.030396454370999484e-03,-9.801084015575323605e+00
9.991756999218844859e-01,3.881979295180519596e-03,-9.792662012505839897e+00
9.986729177094594290e-01,9.088414299152820092e-03,-9.780687279249107746e+00
1.002435751733872671e+00,-1.838158467461194863e-03,-9.795684721437908138e+00
1.005629631878910413e+00,-5.780730736292852626e-03,-9.784126026805644472e+00
1.002204694601253943e+00,-3.794451654651290217e-04,-9.805704304503723989e+00
1.001878473437443073e+00,-3.053544455426261857e-03,-9.789682723322432167e+00
9.979444227309008930e-01,-3.740534536841456925e-03,-9.786196415917025604e+00
9.979627739910149620e-01,6.534561490394752946e-03,-9.805375726591583074e+00
9.963854864484712470e-01,4.001429361642452019e-03,-9.791070992369737880e+00
1.004763024049857290e+00,1.009084966699777194e-02,-9.804615130510352827e+00
9.945761346422313798e-01,1.992126902927828305e-03,-9.782707210014031318e+00
1.001991590271430477e+00,2.273948613306976414e-03,-9.805938321587779782e+00
1.003195538026965039e+00,7.416048374079082552e-03,-9.789614018253439909e+00
9.964671465354565383e-01,-4.173116908565065349e-03,-9.797584362776982303e+00
1.002572409422147981e+00,6.882230779519773849e-03,-9.787403951079543418e+00
9.994397101822690699e-01,-4.735316952460883431e-03,-9.798805012347809651e+00
1.004224147917858634e+00,4.224095566575108637e-03,-9.788952586105645892e+00
1.001653441649415166e+00,8.473099274989162946e-03,-9.797074791610253186e+00
1.002510859822908884e+00,1.862271007840800470e-03,-9.778196453472892458e+00
9.986287730914249483e-01,-3.994914477988650847e-03,-9.797113088309098217e+00
1.006327348816536515e+00,-3.637775226117378937e-03,-9.793668840032280443e+00
1.004339131198713098e+00,-7.350302896412095992e-03,-9.792611142961948900e+00
1.009633791042519713e+00,3.229017270838110444e-03,-9.785954649455746335e+00
9.945221571589073495e-01,2.140017686914707541e-03,-9.796373300868264522e+00
9.976262830635561629e-01,-5.409074440230039749e-03,-9.798504225261842393e+00
9.980801983930699395e-01,1.804114960029408726e-03,-9.802628575677021061e+00
9.998869152148559536e-01,-4.600296573985620564e-03,-9.787039758896574071e+00
1.004089427055153028e+00,-2.927256781688486117e-03,-9.810642284140685732e+00
9.974100194885570092e-01,4.081465050951062212e-03,-9.797322135715139879e+00
9.994500966186428137e-01,3.291778588073334798e-03,-9.795981349029247554e+00
1.003763898849277414e+00,-6.879639593750004785e-03,-9.807116392300322616e+00
1.001381732785978418e+00,-1.490075006023086537e-03,-9.805816198390999716e+00
1.004770018960446487e+00,9.450696560997002074e-03,-9.799565828594946737e+00
9.933428011215932329e-01,-3.083077494397767990e-03,-9.793104520324684259e+00
1.003602587947668656e+00,8.477396923570594892e-03,-9.800423932433908192e+00
9.984560192093139275e-01,-1.133473852199216002e-03,-9.804463960367066022e+00
9.925210249587416156e-01,-1.733651946952801445e-03,-9.794594442944530854e+00
1.005732866688677118e+00,3.559212914094808059e-03,-9.794153164451090632e+00
1.005118299518528158e+00,8.565781825785663550e-03,-9.792722310630104232e+00
9.980477144255234245e-01,6.516311058016818238e-04,-9.803116136503973621e+00
9.988243139846736396e-01,-5.892328218609822581e-03,-9.798300704728697852e+00
9.989372135062063451e-01,8.120593764856489510e-03,-9.787146624550409513e+00
9.937973864512424926e-01,1.450226869843875520e-03,-9.780660434883955645e+00
9.939949452552739873e-01,-4.186017226721328553e-03,-9.797847383001277777e+00
9.958802341119930013e-01,-9.438947885072389993e-03,-9.808305549484680697e+00
9.973531299997888677e-01,-9.114067123271901369e-03,-9.803934182369744121e+00
9.993192727645289208e-01,-5.558168641929788888e-04,-9.792006257607976494e+00
1.000593460793522294e+00,3.562309995494346293e-03,-9.794357144236322199e+00
9.912303035158889220e-01,6.688647358471301943e-03,-9.799850181343925826e+00
9.948062660360234011e-01,-3.759192660143658229e-03,-9.807130922047569754e+00
1.008532773181667563e+00,-2.935539783532109016e-03,-9.809742935918196238e+00
1.001147375271232320e+00,-3.081160995588394166e-03,-9.784243533670284876e+00
1.001566809513780187e+00,-8.977058280638033211e-03,-9.794038552857644575e+00
1.002267763028835690e+00,4.386422409525190733e-03,-9.801089261857363510e+00
1.002912650430259456e+00,-3.962085483047024861e-03,-9.804385908824114537e+00
9.935974195346640725e-01,6.367199692720986078e-03,-9.788315675932908633e+00
1.002758357028358027e+00,-9.597957724469868487e-04,-9.801678416465437138e+00
1.002043430725478412e+00,-9.918772865998056864e-04,-9.786236507748382607e+00
9.926814015407645631e-01,-2.497070998025265401e-03,-9.779778374821024300e+00
9.946200155994554537e-01,-7.009686744402937077e-03,-9.807385594482678215e+00
9.964305115116209866e-01,4.563378172936376903e-03,-9.771358892104647254e+00
9.994172621261578904e-01,-5.341541024264356147e-03,-9.788147363861588346e+00
9.968050595076894949e-01,3.335586353761123128e-04,-9.805934919044640097e+00
1.003820748757675130e+00,-9.693287867682974165e-04,-9.785439833871270920e+00
1.001550393549295759e+00,-7.236976360291835645e-04,-9.794384626017185624e+00
1.006210973782337259e+00,4.963834807548546564e-03,-9.798628676154139683e+00
9.986827145780778903e-01,-6.150066561828947988e-03,-9.790091365809008295e+00
1.000301411954707120e+00,4.736938740963425815e-04,-9.769103306962403366e+00
1.001593090011634102e+00,-1.939042978700073437e-03,-9.786049388825972528e+00
9.973686874236991073e-01,2.643844670936279419e-03,-9.810635357044743543e+00
1.010788843587058672e+00,9.181836888850616885e-03,-9.789462387544968891e+00
1.003265938427148063e+00,2.839922027273191884e-03,-9.806986290950508334e+00
1.005684123914611705e+00,-4.085650623896997131e-03,-9.797247020891232339e+00
1.004305092230793006e+00,2.794662027019946451e-03,-9.803046027649504168e+00
1.002724293914147191e+00,-5.664772556879967697e-03,-9.793179339841369568e+00
1.001520913413696423e+00,3.050393471157674275e-03,-9.790785282533500222e+00
1.002604657447049963e+00,5.008069769833800632e-04,-9.788474771650875539e+00
9.969140636052431503e-01,5.870281162599007806e-03,-9.796485744237696025e+00
9.983764357916979915e-01,-3.429731752661096741e-03,-9.793056917345253964e+00
9.945360821779288818e-01,5.242603885867602558e-03,-9.795297381867047903e+00
1.001480321602067125e+00,-1.307841166985582876e-04,-9.778159541074902705e+00
1.001176827473646114e+00,3.805325687127400903e-04,-9.796281167600751516e+00
9.922438661606178822e-01,-3.018768165429951654e-03,-9.808760869051935671e+00
9.959377870900785190e-01,-2.454845991204370956e-03,-9.794048445213030973e+00
1.008524034638653255e+00,5.709348136146164161e-03,-9.798020435063481415e+00
9.960426588510469248e-01,-7.432620304332312848e-03,-9.790169786784177930e+00
9.997301185501948906e-01,-3.155346939173815386e-03,-9.798569519971820796e+00
1.000963924503146529e+00,-2.300420640898568660e-03,-9.803071603633211950e+00
9.931148690977450455e-01,1.720787219606392630e-03,-9.807243579364051556e+00
9.940422049887611688e-01,5.860061706729462888e-06,-9.793021713573665465e+00
1.000425512948296625e+00,3.859957274840640495e-03,-9.783599859604331428e+00
1.006811598758585502e+00,-5.398589932866774792e-03,-9.785065615639219061e+00
1.003266236651570775e+00,2.177480961628561369e-03,-9.791572285019121580e+00
9.945380975679799507e-01,-3.041965145291866852e-03,-9.784115094333991181e+00
1.002225174165320531e+00,-3.177733164382234247e-03,-9.796824015765855265e+00
1.001881991445316089e+00,3.403671363507891146e-04,-9.791062192048118007e+00
9.967174929543932693e-01,-3.838639641445106693e-03,-9.782945357971922107e+00
1.005738022401953868e+00,-3.472227962379990842e-03,-9.796039431828484467e+00
1.005176316087110999e+00,9.053360288587950291e-03,-9.801193751243697960e+00
9.976685257201135526e-01,3.844182141270750439e-04,-9.777782941219191670e+00
1.003462819250666493e+00,5.288898406745001172e-04,-9.806220954142048640e+00
1.003287344234342848e+00,5.726190283896058795e-05,-9.798989926079942236e+00
1.002260267821772688e+00,2.485589609574473651e-03,-9.789470639515739592e+00
9.917502946234152406e-01,2.627419101056487159e-03,-9.810812205309096257e+00
1.010275088670288257e+00,3.499699304114717671e-04,-9.797268014145412707e+00
1.004230825968858598e+00,6.342740487361798844e-03,-9.777884674127149012e+00
9.995483026660746395e-01,-5.245996122262665436e-03,-9.805352693897678051e+00
1.000138734271060370e+00,9.317993609069074798e-03,-9.798343225309951166e+00
1.002366328635879711e+00,3.523045608768369738e-03,-9.788233647855877351e+00
9.997924999100009646e-01,2.713890077887943543e-03,-9.802801071931899202e+00
1.005829266339033579e+00,-8.221755310449139348e-03,-9.786717298212151306e+00
9.934653504850251560e-01,1.196825333220682052e-03,-9.796519422155364865e+00
1.001335960878239062e+00,-3.632148156764718910e-04,-9.793468835638206471e+00
9.963492267263232005e-01,7.472903289665083944e-03,-9.792484183663360042e+00
1.004070034184598503e+00,4.005729229750479466e-03,-9.794276113400806949e+00
9.971248166166906124e-01,-5.237670006557157421e-03,-9.778531705093483239e+00
9.977044224373494696e-01,-3.273368252116601058e-03,-9.789882745630253069e+00
9.963169208227009577e-01,3.254761217107527815e-03,-9.783934012641360312e+00
9.985049390063657215e-01,-8.642390362796733422e-03,-9.786131725212214860e+00
1.001249686722828214e+00,8.571905699288628628e-04,-9.790059087755965450e+00
9.979631213828815683e-01,1.777527647381265449e-03,-9.793774321955469375e+00
1.005335472568693600e+00,4.792839488399609944e-03,-9.782188822854211097e+00
1.006898893300041120e+00,3.516061715642731719e-03,-9.794477959638618003e+00
1.006855146761549413e+00,-1.895446248406809186e-04,-9.791516805200163986e+00
1.003270091591920599e+00,-3.231362825801796079e-03,-9.787668250481289078e+00
1.009036826515725460e+00,-4.516467762409792121e-03,-9.795752724656361821e+00
9.992348469973502123e-01,-5.213366980868189282e-03,-9.774236796007103933e+00
9.994668761097180720e-01,4.967933821461181093e-03,-9.785970762424049951e+00
1.001115723384815581e+00,-1.338286158464839287e-03,-9.803357132963029130e+00
9.922946905865274170e-01,-2.061219648121176504e-03,-9.779454688351737701e+00
9.981520764882556573e-01,-1.415245823568696184e-03,-9.792444929515138341e+00
9.953768787520705930e-01,-6.406445809733552973e-03,-9.777830674116914977e+00
9.961532640608961042e-01,-1.714717339492819207e-03,-9.808691402316416230e+00
9.969209951155939553e-01,-1.261319452148014150e-02,-9.777044608361403988e+00
9.993437928040324048e-01,-4.091274915995615075e-03,-9.796095421752884391e+00
1.005886611726060309e+00,6.207550926806536945e-03,-9.791376455664291711e+00
9.962562307481119817e-01,6.653799722127742757e-04,-9.805296115075361030e+00
9.951326289114424961e-01,1.119586717252561876e-02,-9.794544376780041972e+00
9.908657458179251920e-01,-6.854330343290548390e-03,-9.784037896041793303e+00
1.004814103909410061e+00,2.589924162844883695e-04,-9.798789833845219732e+00
9.998385634800726063e-01,1.683851942990558567e-03,-9.788582183496824740e+00
9.952369794595413710e-01,-1.976358721583138835e-03,-9.802801264050186703e+00
9.946253031452887416e-01,1.095620878435439463e-03,-9.796981859251427949e+00
9.928248192731686794e-01,-1.565026184746526631e-03,-9.797723795556590787e+00
9.998002305940185686e-01,-1.765259307227833594e-03,-9.781846419406159399e+00
9.967175900297194913e-01,2.404193606600816668e-03,-9.796483937102872019e+00
9.983442965318833906e-01,4.323336601922231348e-03,-9.785890542828253658e+00
9.980913457862810034e-01,-2.098565990714225057e-04,-9.790431458136676923e+00
9.905030452880840830e-01,-9.111812092143154601e-03,-9.789658930799690850e+00
1.000062992978172138e+00,7.319639560188266614e-03,-9.787175345265866966e+00
1.005685249790639446e+00,8.686577958636520005e-03,-9.815889015053519628e+00
1.000113995259100275e+00,1.445407262007033155e-03,-9.789053396459104661e+00
9.992952445245680826e-01,1.111262899638678454e-03,-9.800004328077667637e+00
1.002728184732730732e+00,1.293157078788037149e-03,-9.792590494747090091e+00
1.001366130674937294e+00,8.955880455882317404e-03,-9.776787633896237395e+00
1.004242826482430129e+00,8.381738169225941976e-03,-9.788363055170075100e+00
1.004363188899039860e+00,-3.816545700424070920e-04,-9.793413011749176889e+00
1.002348103142410185e+00,-5.028666754088459423e-03,-9.792905564334269286e+00
9.930106328830008433e-01,5.862746193821590131e-03,-9.787301029578996392e+00
9.887635475071688829e-01,-8.213242808766218865e-04,-9.811511581108167235e+00
1.004545821533208372e+00,-1.208802330038197649e-03,-9.797793606619352502e+00
9.930120644367013139e-01,7.875083194371478175e-06,-9.801453569504088748e+00
9.973807273646418947e-01,2.829213585081512012e-03,-9.786339183564971123e+00
1.007827158079213747e+00,4.472722099604314536e-03,-9.791268236663629665e+00
9.912560768695447555e-01,4.846377145877480037e-03,-9.781131253107115953e+00
1.007177372860236675e+00,1.964218564047615686e-03,-9.801128432668980039e+00
1.001562543091250479e+00,1.376209650982692864e-02,-9.781303371603536689e+00
9.972964775073409616e-01,-2.480503696118590510e-03,-9.805831851246844977e+00
1.005497544304976287e+00,1.365306247063617770e-04,-9.788018301200381188e+00
9.952163083868701410e-01,-2.904022554765399444e-03,-9.800011020065840128e+00
9.976748309200846876e-01,-5.878552257475107637e-03,-9.799451634160739388e+00
9.943729577027214939e-01,-5.823495516900476995e-03,-9.781076379569507040e+00
1.004800127934871723e+00,5.873743242890468869e-04,-9.795271287429544671e+00
9.999859405005918633e-01,-4.656774499826404901e-03,-9.785711691931808787e+00
1.004619448798768078e+00,-3.122009834546327252e-03,-9.798567189526886878e+00
9.953409740513584625e-01,7.558786063622845337e-03,-9.786612169219754520e+00
9.915765711666874038e-01,8.073571065552747131e-03,-9.791861198003877220e+00
9.970772716176576900e-01,6.477683383938798861e-03,-9.804712203899592637e+00
1.002340018637951635e+00,-1.698636163335913484e-03,-9.801787747239888660e+00
1.000090622407469265e+00,-1.608929130499241016e-03,-9.773665264339332026e+00
9.976423368750860776e-01,-2.220515774549797292e-03,-9.793001537231946330e+00
9.963229156321529167e-01,-6.279950957649100066e-04,-9.791934304474340323e+00
1.009556532162129150e+00,-4.792838187840088755e-03,-9.799941757426358535e+00
9.992045653606012046e-01,3.814121548908277950e-03,-9.795730805967279409e+00
1.004433396353369812e+00,7.417809998034746461e-04,-9.794333242043837373e+00
9.887313864590643320e-01,9.629601564335505846e-04,-9.806990265054988498e+00
1.003162839142223373e+00,1.003120300438189137e-02,-9.804996263937457712e+00
1.003884521575458599e+00,3.191422268937491383e-03,-9.787968134186533220e+00
9.993624942265526556e-01,-8.393140456865861004e-04,-9.790969307956812528e+00
1.009731421776464577e+00,-9.154859109788673812e-04,-9.801228211232027476e+00
9.967935007268888814e-01,-8.464646163329713618e-03,-9.812909988925344607e+00
9.990634933664935824e-01,-6.936046235448609792e-03,-9.797167528894176414e+00
1.003597930857882181e+00,1.648672067272803979e-03,-9.795541070336929224e+00
1.013242144502574105e+00,-5.251356179847347511e-03,-9.801023468911060021e+00
1.001175239158573316e+00,-3.399816928310834836e-03,-9.795536609016952667e+00
1.005748091941561118e+00,-3.318645076096681315e-03,-9.791601889090868482e+00
9.906037999127154103e-01,2.828761186074724696e-04,-9.783217123703696672e+00
9.941740429832622850e-01,-7.064405255525885337e-03,-9.787361325754378782e+00
1.004437885331985525e+00,1.704311855644300225e-03,-9.790176213427578489e+00
9.919340660790494368e-01,-1.497203081707442146e-03,-9.791548640454875496e+00
9.951670526604532441e-01,3.157480986798614012e-03,-9.797583265982245493e+00
9.859922953586908179e-01,-1.048346382620504638e-03,-9.796508391621491896e+00
1.005329628355911664e+00,7.619914633879232291e-03,-9.798320747655802521e+00
9.917054046158116920e-01,2.586787948098549436e-03,-9.799444034677295079e+00
9.884003273822907776e-01,6.431236960600649269e-03,-9.794989911765672019e+00
9.934617836499169963e-01,-1.436608891846259412e-03,-9.796651030310195907e+00
9.995230403479371528e-01,-1.578011843604405556e-03,-9.799221846770011624e+00
1.000418326206401254e+00,-1.341995976017537964e-03,-9.792205064294227768e+00
9.979582118725465190e-01,1.905625965258936350e-03,-9.796140802432134365e+00
9.969133898529937143e-01,3.170694075296221891e-03,-9.802816684687469362e+00
1.000573198617776383e+00,-6.945916227213503116e-03,-9.801515917347119355e+00
1.006715147944994726e+00,9.122930707109842483e-03,-9.795514281655508526e+00
1.008987616429606993e+00,2.178247022158055247e-03,-9.785359047250171471e+00
9.948627845199788933e-01,-3.593415759683531337e-03,-9.797186991655111754e+00
9.973171024647855543e-01,-7.472151353644584763e-03,-9.798584792085796025e+00
9.978454236997956750e-01,1.420477920903326970e-03,-9.792808052983389189e+00
9.967229717866685768e-01,-1.147741538282663620e-02,-9.793065052277217575e+00
1.003581466192112304e+00,-6.671200719245808271e-03,-9.789846902770868553e+00
1.004266175283173634e+00,2.182960706240678200e-03,-9.785855647773274768e+00
1.000855485562567315e+00,2.198434803161163856e-03,-9.806569807272444095e+00
9.956592910555713827e-01,-4.183980085984760448e-03,-9.803264359610468048e+00
9.964032090218635229e-01,-1.338004150084656351e-03,-9.788564301945926971e+00
9.943986893516245651e-01,-1.228837497257274057e-02,-9.791081298659952026e+00
9.983222380723032474e-01,4.982025424015096640e-03,-9.792736903401721094e+00
9.945304746114285166e-01,3.377618149081758857e-03,-9.800135053215594638e+00
1.006265655574277718e+00,-1.791766731620799726e-04,-9.815085018172643672e+00
1.003169432705015351e+00,-3.266259378615809367e-03,-9.802436513769714921e+00
9.999135047945775234e-01,1.677903547722233357e-03,-9.788110681268182844e+00
1.001806563380625681e+00,1.931989441928456833e-04,-9.798602538618711222e+00
1.004438874252567837e+00,2.464623305244567457e-03,-9.796110149811310563e+00
9.964534246528684580e-01,1.989327249054332215e-03,-9.781221578037230913e+00
1.002955611274719772e+00,-2.190714481442132544e-03,-9.809997932012080923e+00
9.968827457490496702e-01,-4.620112661126193725e-03,-9.795371893494339233e+00
9.997065491954739702e-01,-3.577650269782248552e-03,-9.792928139874883087e+00
9.967101784432741418e-01,3.176185953488904791e-03,-9.802949478078893719e+00
9.990649667682595103e-01,-2.064693104674405387e-05,-9.790214495570330300e+00
1.002372928019268139e+00,1.757608256776311065e-03,-9.806282115954473966e+00
9.983665925945111042e-01,4.855542703944635240e-03,-9.793393866153577321e+00
9.896543148407733748e-01,-4.093460099675138956e-03,-9.776027955825275839e+00
9.962964241429788093e-01,-4.007530528271427070e-03,-9.792967858178542429e+00
1.002684971556053739e+00,2.730855599651885353e-03,-9.796147655736346493e+00
9.937826961847368024e-01,-4.843763413516085151e-03,-9.799886753886712043e+00
1.000764396504638221e+00,3.064955272276132046e-03,-9.791169106222850971e+00
9.984017369028415079e-01,4.312185726976709363e-03,-9.797662236471825992e+00
9.980772925555758679e-01,-1.895773396323934728e-03,-9.797223461600999883e+00
1.007129165413402250e+00,-5.680338403725681412e-03,-9.784862332814920904e+00
9.961004352290291353e-01,6.390935124131882222e-03,-9.795606483780488816e+00
1.000808693365279556e+00,7.350005924555654858e-03,-9.802406295190584373e+00
9.953570556988591278e-01,-9.616470128653556784e-03,-9.789469903600156897e+00
9.939565551212019567e-01,-9.010601299725411618e-04,-9.797990668908884260e+00
9.973847344878711274e-01,-1.834537039132476790e-03,-9.799311734598520118e+00
9.973322599088842999e-01,-1.663858693686196422e-04,-9.787528262244757471e+00
1.001627066785218290e+00,-8.500504978290438982e-03,-9.798279600215636265e+00
1.004023484826084944e+00,1.506123468374001313e-03,-9.794932674991411403e+00
1.002185314712629172e+00,-5.604437513103690052e-03,-9.786084053649359404e+00
1.005299905162401419e+00,2.897071320593099571e-03,-9.795320004710374562e+00
9.926830069869662099e-01,-3.144218474778433421e-03,-9.795590930361589344e+00
9.972323710315317280e-01,-6.353883643310367056e-03,-9.794312001018559144e+00
1.009524176974113896e+00,-5.637876808328231605e-03,-9.797194342358263697e+00
1.002898215391555103e+00,-7.887285523991854203e-03,-9.808450329197761164e+00
9.976330518419290749e-01,8.650281122136073073e-03,-9.798627960314959751e+00
9.978720394687708994e-01,-4.254947922919416372e-04,-9.784528420523182390e+00
1.010401896784813403e+00,4.983971953080137181e-04,-9.788562276960163899e+00
9.967751293817934677e-01,1.070568373562499984e-03,-9.778917215319019363e+00
1.009527000297094856e+00,-5.657779517343138748e-03,-9.804350095976001711e+00
1.001053424889110310e+00,9.303114246883167904e-03,-9.785015261136205567e+00
9.926063727556351246e-01,-1.379374883663908157e-03,-9.806347334241118929e+00
9.939274251431923224e-01,4.307404021614389018e-03,-9.783696546128334504e+00
1.000063143780800301e+00,1.277773210463805081e-03,-9.793385955425419453e+00
1.005783299313567580e+00,3.568581548231872149e-03,-9.784678856685674830e+00
9.982914585663591467e-01,3.684649072696577401e-03,-9.788128558377788835e+00
1.000967488675608585e+00,-2.066423237092742098e-03,-9.801515262693389019e+00
9.965084567124961046e-01,-2.905306743918808360e-03,-9.805955902398729052e+00
1.004595441478274065e+00,-8.098105386595705075e-04,-9.801500218578762968e+00
9.988896028798908144e-01,-1.087856936773552718e-02,-9.796404802486767593e+00
9.995367724124888387e-01,4.587833210751849494e-03,-9.779206761199761289e+00
9.956227850774312937e-01,-9.518595380967337025e-03,-9.804967122969880933e+00
9.960240668980377965e-01,3.129458121234259828e-04,-9.798875475517178302e+00
1.002098726361193570e+00,-8.473230107802997430e-03,-9.789919811855515519e+00
9.963544567081249470e-01,1.155826061191754343e-03,-9.800952158440782824e+00
1.004622486480958310e+00,-2.285359114042572089e-03,-9.785094730103100602e+00
1.003611618432276087e+00,6.811610429557957841e-03,-9.795174718940794278e+00
1.007469231732620818e+00,7.940105735613715160e-03,-9.795633150857366189e+00
1.001352017358079438e+00,6.449505772021166955e-03,-9.802745430079406574e+00
9.932621681151021509e-01,-2.871884329489740942e-03,-9.805059397375851304e+00
1.002866236917737464e+00,4.810683858282874953e-03,-9.789709803679178535e+00
9.962601041730760887e-01,9.915763669943532255e-03,-9.787022570028019786e+00
9.944607191726183570e-01,8.248244088045215278e-04,-9.781639488029085783e+00
9.980352761095099279e-01,-8.805504849599498848e-03,-9.785018630495702752e+00
9.958441951300349704e-01,1.576049374170593971e-03,-9.786333726821073498e+00
1.009298690901747397e+00,-2.044572314111122238e-03,-9.794286431472624344e+00
1.000393155963324787e+00,6.381955467839880471e-03,-9.791837073431564065e+00
9.975833315109107202e-01,8.011109488504381676e-03,-9.796744149219511755e+00
9.933066392070196704e-01,9.273255479731394146e-04,-9.794187158033629714e+00
1.000522565533372044e+00,2.260496969225491391e-03,-9.789326179311540699e+00
1.003453080257327601e+00,2.054275702100407698e-03,-9.803466737723814717e+00
9.972188536272450499e-01,1.941838796763532794e-04,-9.804955849442269056e+00
1.004629318653873282e+00,6.958900978226409233e-03,-9.803847088556599587e+00
9.965884876034836193e-01,-1.908755269634146434e-03,-9.785298680652077863e+00
1.006367231085735670e+00,-5.817378647916765597e-04,-9.790011594405591211e+00
1.004415839298952173e+00,-4.955004084922853304e-03,-9.789669884821194046e+00
9.986028642826634272e-01,-8.641325299647052444e-04,-9.789605200385354422e+00
1.005283988588330679e+00,6.589721702353320892e-04,-9.803413542859408025e+00
9.978492109376543295e-01,-4.557166580695628383e-03,-9.811871735065109235e+00
1.000789519609502687e+00,-2.653669085209891653e-03,-9.786671859278380126e+00
1.003447319427133166e+00,-4.824380515315752384e-03,-9.796238794697062602e+00
9.982628061192551083e-01,2.184815716132295065e-03,-9.796061762742827028e+00
1.002119182528272923e+00,6.664443079504386511e-03,-9.783898533776410389e+00
1.003738588741719173e+00,-1.718112619440018748e-03,-9.798620500536195266e+00
1.000319743147997764e+00,-2.498490028860719282e-03,-9.796251377450925446e+00
9.942141305555542985e-01,-1.037624994633993582e-02,-9.785192570525602207e+00
1.009350640052949943e+00,-3.424152316129978175e-04,-9.788400196333366665e+00
1.000545911019866896e+00,-1.973505501563711535e-03,-9.801388296992074700e+00
9.961508220391767088e-01,1.066457034649048372e-04,-9.787710665273078092e+00
9.943730131416133045e-01,-3.560236538931985020e-03,-9.784963490734206459e+00
9.903552456986984831e-01,7.489226143249499805e-03,-9.799345525878660368e+00
9.955736819970930629e-01,-5.509119251449791366e-03,-9.791054476430723241e+00
1.008143337042865850e+00,3.091952988739993333e-03,-9.794757524821424255e+00
9.941484654514397556e-01,3.248689373655172258e-03,-9.803170414017015943e+00
1.007223258660275622e+00,3.371099582527349939e-03,-9.788097771908979894e+00
1.001340089749007456e+00,-6.084799444229515263e-03,-9.792128852897949542e+00
1.005599677924208013e+00,-4.089053580036056124e-03,-9.786710442892973205e+00
1.003051281327490551e+00,-2.689820695018354819e-03,-9.793630703511745139e+00
9.960070574379359387e-01,-1.269564015838636544e-03,-9.791089795536953133e+00
9.945984995503704962e-01,-2.075670000762486807e-03,-9.805465646340408625e+00
1.000875759229344242e+00,9.696688500189969487e-04,-9.797297838620787402e+00
9.906876730463152203e-01,1.379071522507705882e-03,-9.794838525994347123e+00
1.008449923197299425e+00,4.569670316833903366e-03,-9.797574930308753594e+00
1.011228270203700763e+00,2.565710772793294001e-04,-9.814341351820843329e+00
9.993308424130472600e-01,5.141783291795933367e-03,-9.797379495204591393e+00
9.953707747840507825e-01,3.284462871304820539e-03,-9.779726172382263272e+00
1.002745372486537612e+00,2.146189778647636555e-03,-9.807432165793779077e+00
1.001275271297059399e+00,-3.739724044376600419e-04,-9.793862367394416069e+00
1.003153447827360711e+00,-1.515262880695293244e-03,-9.793599796742876507e+00
1.014330346079031164e+00,-4.483178357407064003e-03,-9.806185386340834143e+00
9.958951612414543852e-01,4.240079760543248935e-03,-9.815373341510792216e+00
1.009690290166763704e+00,2.885222425964454685e-04,-9.774842330697254056e+00
1.009672973225868242e+00,-2.224185677327623727e-03,-9.789732153958913941e+00
1.002311155582119362e+00,-3.671305033877434853e-03,-9.786921247334371188e+00
9.989040024216090385e-01,1.428829201342361787e-03,-9.798259474378358647e+00
9.988616694477150393e-01,1.286004898522212329e-02,-9.801124685138024262e+00
1.011134799259272077e+00,-2.989834193282067676e-03,-9.786598864123060793e+00
1.001411253267377788e+00,-3.922691720100329911e-03,-9.802491689600650204e+00
1.001558436520724849e+00,7.819552422234877717e-03,-9.810401249389261835e+00
9.997733780070221510e-01,8.228365248229072351e-03,-9.785944571562074756e+00
9.987971719090140699e-01,-1.388570565596334520e-03,-9.798336829043410745e+00
9.907110794584437219e-01,5.356647631337875179e-03,-9.803832672525059522e+00
9.972942339592629768e-01,7.014821390051580955e-04,-9.784670810140447372e+00
9.975893988728922190e-01,-2.250960396676205484e-04,-9.803661224920658057e+00
1.007789330329809774e+00,-2.766974678896787481e-03,-9.801177090933480329e+00
9.938044060676254343e-01,-1.887169370812723799e-03,-9.789641424316737783e+00
9.981778752715501080e-01,1.114646660398109675e-02,-9.795900369112018780e+00
9.914811517005096553e-01,-1.001257139163996054e-03,-9.799264189481112552e+00
1.010315719638823495e+00,-5.002226448779876350e-04,-9.783905246674036604e+00
9.985308793372210667e-01,-1.785484462833396985e-03,-9.789035432121306002e+00
1.002236923746697261e+00,-9.154010965846318256e-04,-9.796436849006388670e+00
1.002228571859969497e+00,2.708030378845507641e-03,-9.787400099024138100e+00
9.955932660016264535e-01,-4.175409796091403454e-03,-9.793610405774227701e+00
9.978496091097296405e-01,9.061391957539153890e-04,-9.773120919945368357e+00
9.962207465944505902e-01,6.556354005597283402e-03,-9.790593581447909699e+00
1.003465330355483465e+00,9.722567120838822990e-03,-9.796930539454550058e+00
1.000584438865406600e+00,8.344841308033784655e-03,-9.795248298039444634e+00
9.959138819112031138e-01,2.291324018871536677e-03,-9.787825559352093308e+00
9.928170476119884125e-01,-2.634822585923738119e-03,-9.792396988816088665e+00
1.007932838873440540e+00,-4.128681546511465787e-03,-9.800976237585535600e+00
1.003752396067757680e+00,4.241568772463619359e-03,-9.780078661828817133e+00
9.987424236486293072e-01,-6.198507675366910635e-03,-9.805202153656519926e+00
1.008738522360591805e+00,8.509748786826222154e-04,-9.788145772337198736e+00
9.918021998770778502e-01,-6.440456419296042984e-04,-9.807488961384578374e+00
1.002307371075561004e+00,-1.204336402918369103e-03,-9.798939816693744476e+00
9.980803507431008637e-01,6.047270819617814363e-04,-9.798670553129884553e+00
9.999363584836441499e-01,7.468579702014823372e-03,-9.796092926302405246e+00
9.935813256653213132e-01,-1.035536724536740161e-03,-9.805742273897847028e+00
1.004805891278592656e+00,5.062080148797841071e-04,-9.789502205000005119e+00
9.954245182880693266e-01,3.131411713880615823e-03,-9.799016464004495219e+00
1.006090273233641863e+00,2.783248871156324589e-04,-9.788974004186227873e+00
9.983069203867903640e-01,5.232495466640295183e-03,-9.792932430004544386e+00
9.942433890018180787e-01,-1.589150476722604212e-03,-9.791292556479957554e+00
1.005073334607761604e+00,-4.068138662550616590e-03,-9.799156474420721352e+00
1.002780322844605720e+00,6.882478435848970663e-03,-9.787590510311002134e+00
1.000705517020777924e+00,5.696302563106365666e-03,-9.791950823555213290e+00
9.900192665616174281e-01,-1.182064893209353214e-02,-9.803472854447687013e+00
1.002891329245197749e+00,-3.489574258893127050e-03,-9.787902662698487077e+00
1.011396301003586462e+00,5.217025202158642391e-03,-9.802596139953134724e+00
1.000443207347815555e+00,-2.710049987260577508e-03,-9.781203485232461858e+00
1.004412997583659539e+00,-9.678997049086857140e-04,-9.796738353904499874e+00
9.982703159551172822e-01,3.075003404270615880e-03,-9.790218299662964085e+00
1.005814085030976468e+00,6.866818802145965329e-03,-9.789528114574146400e+00
9.959057223697288519e-01,8.461913218031518781e-04,-9.798774377261350921e+00
1.007049591585195580e+00,5.605357161892591394e-03,-9.791572686871091946e+00
1.003336046446587249e+00,1.492720771620590454e-03,-9.776557560401245794e+00
9.949584217939468900e-01,-7.809863718062964345e-03,-9.798809942826464336e+00
9.987157676113426197e-01,-1.083487367316560146e-03,-9.792154325558827921e+00
1.006609341827361614e+00,-2.114593373004460875e-04,-9.787508044270225582e+00
9.968451322962843530e-01,-9.772060530164430533e-03,-9.807091577684088790e+00
9.911675993780172389e-01,8.719293392024948450e-03,-9.793540319488540646e+00
1.000143802877023314e+00,-7.647802694348052564e-03,-9.807887416962195459e+00
1.009742214303673613e+00,3.203352035459959644e-03,-9.774979259493571604e+00
9.956777632616286011e-01,3.588621087705076446e-03,-9.793478229710411043e+00
1.002335317514943647e+00,-7.800506800578962951e-03,-9.787358711816015244e+00
9.964838091831528244e-01,-2.584068462346913054e-03,-9.801258276662942137e+00
1.002850207431299490e+00,9.049927292641490179e-03,-9.782310730475243687e+00
1.002987683072331437e+00,8.272487058626369627e-03,-9.802617255290940079e+00
9.981803968334185262e-01,-1.083634706255561913e-04,-9.794698962375827378e+00
9.948292470797657217e-01,4.752590099065074833e-03,-9.800953677204759629e+00
1.001345799533607694e+00,-1.061233140143105639e-03,-9.800360599622560898e+00
1.001500666182531640e+00,5.882713061595753155e-03,-9.790360839709244090e+00
1.002683334951008920e+00,-5.472256998002694370e-03,-9.798855870439277638e+00
1.004187762292488628e+00,-5.054066667446651187e-03,-9.780133719457502650e+00
1.004551432576556547e+00,3.973934204852183107e-03,-9.792737278918561827e+00
9.993328468097281148e-01,-2.187923275380673598e-03,-9.794765566693175884e+00
9.933461306893028864e-01,-8.957572183496654086e-03,-9.803400025394223505e+00
9.948679296925567739e-01,-8.947033825856532535e-03,-9.783360069846064988e+00
1.002160951565159719e+00,-3.652564027847019033e-03,-9.808096846838367355e+00
1.002449792544489515e+00,-2.300536004155720525e-04,-9.805770258144777429e+00
9.958408092589946525e-01,-2.504528482345526157e-03,-9.783800309524051997e+00
1.013413529178840644e+00,-5.165185375862670937e-03,-9.806130545598033876e+00
9.974220774922432087e-01,5.118501863053515934e-03,-9.789378305371531752e+00
9.928373788319663218e-01,-2.334124998103486066e-03,-9.798953610381159862e+00
9.999673614477565531e-01,-2.275515296009642235e-03,-9.795683178038485650e+00
1.005437745859893317e+00,9.901332733553195285e-04,-9.796031846946783972e+00
1.006056721521069841e+00,1.074664044543232515e-03,-9.790661186396034665e+00
9.978512610974081820e-01,6.268711187059427571e-03,-9.797639035699555521e+00
1.005014066647097692e+00,-2.735841568271584878e-03,-9.799123344388343426e+00
1.002833267102216652e+00,-1.919969506693289859e-03,-9.799035809299089905e+00
9.976106582686116164e-01,2.116862000389904859e-03,-9.806828421549276698e+00
1.006701997792176728e+00,-7.814904931638007313e-03,-9.802388532992152292e+00
9.969227203015375016e-01,-5.806284706211776656e-03,-9.792914823523990009e+00
9.924603364487222246e-01,-6.381273919022298173e-03,-9.795160532166521605e+00
1.004972901351075087e+00,-5.328500324251007891e-03,-9.793158580089940557e+00
9.999282817292313164e-01,1.017358619014791980e-04,-9.788125707435288092e+00
9.980429808697584004e-01,9.919537580332093984e-03,-9.809758423591732779e+00
1.003523541018801701e+00,1.520643437253640104e-03,-9.797855410333632165e+00
1.001727644540203466e+00,-2.040283933493658181e-03,-9.785955653767290485e+00
9.941893108830333059e-01,6.719107456929247898e-04,-9.800023514527982371e+00
9.965014052141317746e-01,-7.098176722638304976e-04,-9.796571587257634661e+00
9.996786798436287924e-01,-8.983340488363583329e-03,-9.790886038261945146e+00
1.002998609810697106e+00,-5.211280689937576246e-03,-9.801848813031218910e+00
9.972180902666337721e-01,-3.651279432067986645e-04,-9.802603949121737159e+00
1.004846044459607679e+00,-6.623952539540858180e-04,-9.792028814386979363e+00
1.005216606729769424e+00,1.967419172942564114e-03,-9.811306299676278542e+00
1.002970141857744135e+00,-2.580749905577495607e-03,-9.785600879966578347e+00
9.949350763966329225e-01,9.311718114340844163e-03,-9.789841189145272793e+00
1.004128862737728722e+00,1.272467772778945218e-04,-9.806074164469128718e+00
1.000548376428589403e+00,7.599411846059939482e-03,-9.780681544634630242e+00
1.000309301403349727e+00,9.556982803244197175e-03,-9.798859187544875837e+00
1.000999901970320405e+00,8.881445533961697739e-03,-9.789244808780933838e+00
1.001248941619405031e+00,-3.754002677562066122e-03,-9.798978293719518007e+00
9.997783250989015214e-01,-1.126278656437806110e-03,-9.800985065535840590e+00
9.908205555102744810e-01,-8.458344949923528311e-03,-9.805380499691334961e+00
1.000746174139557798e+00,-7.957833691030726658e-03,-9.798076290664647914e+00
9.981860293112976290e-01,1.399258037129637918e-03,-9.797123088228508081e+00
1.007219904177215630e+00,-4.236991990724335751e-03,-9.805454161986004280e+00
1.000476287735639680e+00,-7.667240899869642856e-03,-9.787328398239869998e+00
1.007912185801389970e+00,3.434911177823779700e-03,-9.789675654013986872e+00
1.016582652236989182e+00,1.323186408431054582e-02,-9.797011298216830255e+00
9.977279359001395287e-01,-1.402682130639998099e-03,-9.803646254656444015e+00
9.903951061752138685e-01,-1.004692809848360679e-02,-9.785136897121001098e+00
9.977568474471707471e-01,-2.167146821616618060e-04,-9.793108510222747753e+00
1.003858984505117347e+00,1.187976436551461956e-03,-9.784388736045389834e+00
9.993869791073028974e-01,3.186442059906342741e-03,-9.786949859381293138e+00
9.988550267844997776e-01,1.368534800936798204e-02,-9.798315715545992788e+00
9.984254073969228704e-01,2.817871502902218571e-03,-9.799934233851979926e+00
9.951200680647215302e-01,2.713590907011528483e-03,-9.801822189805458052e+00
9.912800544221970211e-01,3.571330076687324190e-03,-9.800207685373511168e+00
1.010126910366806241e+00,-7.478676371235808661e-03,-9.790598616602697035e+00
1.006548394741953345e+00,4.236555134821663737e-03,-9.798286333086116073e+00
9.991745261732396521e-01,4.391122768952773758e-03,-9.799335525422449678e+00
1.001340639828873558e+00,3.147572478411996173e-03,-9.798037539674391283e+00
1.002638154983110708e+00,-5.765615978053706576e-03,-9.790427284258559126e+00
9.992170657008031531e-01,-7.655632096739854731e-03,-9.782532763810555920e+00
9.958068489227348552e-01,-4.341707247804294650e-03,-9.789909542164865641e+00
9.961057655946089495e-01,-6.123154596222152822e-03,-9.795578833114074513e+00
9.974490385110277302e-01,7.159895419303519311e-04,-9.796143878923542658e+00
9.957017592488278668e-01,-1.850799335015677937e-03,-9.808006555204386245e+00
1.002737132785739727e+00,1.194579153465316276e-03,-9.787031621914374924e+00
9.971144121664845539e-01,-2.258097865413316238e-03,-9.803546318213665955e+00
1.001775813000581605e+00,-1.344128965514436620e-02,-9.796788062357402183e+00
1.004820937035936668e+00,1.214222930626042071e-02,-9.789383189556597031e+00
1.005890697691089297e+00,4.301618545753679336e-03,-9.798069571792986210e+00
9.988268043999122270e-01,-4.141897117194176525e-03,-9.791808616992351944e+00
9.979150317944757154e-01,7.343667000560394516e-03,-9.800992450776876197e+00
9.988386543210144852e-01,1.380252285702133607e-03,-9.779877317084173072e+00
9.939324742716401095e-01,-3.950884412969092076e-03,-9.796966269714824094e+00
1.002246351158679660e+00,-7.598937974500959147e-03,-9.801824242923446562e+00
9.967578026745642639e-01,5.581675262900667733e-03,-9.801699464419188601e+00
1.002965902345894555e+00,-4.227418932077028554e-03,-9.791033250424600709e+00
1.005655039982815691e+00,-9.927517441791549810e-03,-9.795160129687868533e+00
9.957206364372552798e-01,4.277475763644142913e-03,-9.782819307171585876e+00
1.001803059740532742e+00,-2.064119163307484399e-03,-9.797668496223513657e+00
1.002383691563786261e+00,-8.240994303936178059e-03,-9.791434950651382252e+00
9.932039933391544340e-01,-2.885342201299378583e-03,-9.795711796877217381e+00
1.001507869436087494e+00,-2.285166348862448845e-03,-9.799221944307470622e+00
1.004738975703954873e+00,4.035311481853059816e-03,-9.803710990339753906e+00
9.978443909570700043e-01,8.900733352756163771e-03,-9.788946706247235952e+00
1.000155660898829346e+00,1.148811481095543194e-02,-9.799125641176029688e+00
9.963680596104833587e-01,2.387279136309304953e-03,-9.797568673739963430e+00
1.010739384807485708e+00,-5.020444880573292010e-03,-9.790342197552675430e+00
9.895126267242159157e-01,2.838137194672923740e-03,-9.797969712961961619e+00
1.000688119550701805e+00,-1.474605858541520355e-03,-9.799473923474685932e+00
9.929392034588649940e-01,-5.444765091484984366e-03,-9.800446331852285198e+00
1.000062935184450108e+00,6.328810162253561099e-03,-9.781960344163497467e+00
9.974086615174180270e-01,7.129777639333367834e-03,-9.796619344594102330e+00
1.002385384343362773e+00,-7.826669868119726786e-03,-9.789237396182015161e+00
1.000739351699211133e+00,-1.984144849778902379e-03,-9.797737789439237233e+00
1.002465513287239540e+00,-8.918976156391257267e-04,-9.797035252064414834e+00
1.006990427669622656e+00,-8.889631158024022956e-03,-9.794324160633243181e+00
9.986406789141700768e-01,-1.110238771648238326e-04,-9.798883090953907526e+00
9.942182478333749795e-01,-6.204289383437491812e-03,-9.797111211127347730e+00
1.000551313067037151e+00,-7.138938305249622020e-05,-9.795369471589783217e+00
9.999609303683857364e-01,-2.226470724139514336e-03,-9.786852302877028009e+00
9.894076086372806111e-01,-2.251611126220771399e-03,-9.797962391214383615e+00
9.972897742128796761e-01,9.439251293980464169e-03,-9.802250831536118980e+00
9.937791106646187700e-01,-2.457767047446432658e-03,-9.787198042675120391e+00
9.956379640488085547e-01,3.775226067894180745e-03,-9.792046643735774936e+00
9.985137900407200506e-01,-8.011147412412676638e-03,-9.803609569101379151e+00
9.981018013096206731e-01,1.579525349201901102e-02,-9.796521715975156752e+00
1.000516930897448642e+00,1.742323281371202428e-03,-9.802706504439123947e+00
1.006714104086032124e+00,2.284903344643274877e-03,-9.793007256779134195e+00
9.971135320949900960e-01,-2.329902398552574205e-03,-9.792448931187729855e+00
9.996097651322204403e-01,7.079532134012105592e-03,-9.789513276843699430e+00
1.003085419105640863e+00,2.105980222701997820e-03,-9.814404966268385877e+00
9.903870559540467466e-01,-5.153864371903687722e-03,-9.788200533431306027e+00
9.998117351382275197e-01,6.423240814934034950e-04,-9.804487390878170672e+00
1.003573157139726835e+00,3.162170089909472834e-03,-9.792463162644006403e+00
9.980833274398521748e-01,6.315047167059484583e-04,-9.796173684138375748e+00
1.000346860348777733e+00,-1.837331016951217330e-03,-9.810344178010900862e+00
1.000380911799133354e+00,-6.058187685557974572e-03,-9.782942710512935847e+00
