gyro_x (deg/s),gyro_y (deg/s),gyro_z (deg/s)
-3.707517126166335469e-02,2.995110906144983140e-02,-3.878308374128720121e-02
-7.084932491422466470e-03,6.991708057253330499e-02,5.879403524645547552e-02
7.474882118481136761e-03,7.574599490320695072e-02,-1.925136650529662638e-02
5.350979836598673128e-02,-4.516678217848180132e-02,1.145246392562022063e-02
5.539336404613883630e-02,-3.709177714235534218e-02,1.580245094541923162e-02
-3.697589939682005555e-02,2.688246957180661506e-02,-1.512163687977591438e-02
-4.980268070151232240e-02,1.934935121520301934e-02,-2.553130396403746963e-02
-1.470103385472069056e-02,1.667500568869504166e-02,7.373800119952189647e-02
-9.303877614617248049e-03,-1.026996499186015772e-02,6.311095243647339703e-02
-2.535264987305529613e-02,-4.959425643011156765e-02,5.731901938983054168e-02
5.138710509569530127e-03,-3.154136742157201238e-03,4.346628280373951436e-02
-2.311664943070684819e-02,3.398149944102828862e-02,1.188946201329999230e-01
4.126721932569326484e-02,5.048271820087943743e-03,-3.089267152187663568e-02
-3.765565791708378601e-02,-2.024261498410133767e-02,1.222757924060633404e-02
2.002746616076600018e-03,4.995596641090110229e-02,1.056855550122332531e-02
4.986682235289048581e-02,-4.347587220293955973e-02,-6.794162331503465768e-02
6.905504858130570751e-03,1.486319981352529802e-02,5.765282500226982278e-03
2.924239166151307648e-02,5.621997519795236820e-02,-1.597771494266864503e-02
6.251479772210673247e-02,-2.637151730015496048e-02,4.896692857226417339e-02
-4.309214501641417221e-03,-1.274499994704923062e-02,3.964925686296506130e-02
-5.655672695411787659e-04,-4.417808814602160877e-02,3.354778141220358945e-02
4.442586545136192888e-02,-1.016682626451596155e-02,2.623111791836572892e-03
-2.276981986415890433e-02,5.691576562886283691e-02,-7.493821566348664309e-02
2.212777617052905446e-02,2.982522257900014837e-02,1.290947977531573844e-02
4.686597257348857314e-03,4.834017228401232130e-02,2.031400532096493475e-02
3.027166893882704546e-02,9.241979856940654714e-02,-2.755575730098447015e-02
-2.608408820223070620e-02,6.525887939308644414e-02,1.268890221913718079e-02
3.581063995199589706e-02,6.438810340366775409e-02,1.227577248194290128e-02
4.234165409605513374e-03,-5.201155232886151697e-02,-3.084724481915867428e-02
1.738572214732092905e-02,3.014134922502647099e-02,1.324577323805923787e-02
-6.066762820244579572e-03,-3.354868084492226149e-02,4.943323385324176894e-02
-2.710981248755473319e-02,-4.955818155889066962e-02,5.108259314480360566e-03
4.306182919300181183e-02,-4.810125638350108701e-02,-4.258250006792336367e-02
7.748509942186165844e-02,-3.190444525487601962e-02,4.655163640401832614e-02
-4.447041758896254533e-03,-1.730925124746043875e-02,6.419610494452407910e-03
-1.932850739389117833e-02,-5.032555900931870094e-03,4.011880707710113736e-02
-3.139627686603021356e-02,-2.959907284639562430e-02,1.353111186931689816e-02
3.079216712354245628e-02,-3.029409469068455873e-02,-5.637405197093390413e-02
3.152340785541091900e-02,-6.585829629587601486e-02,-2.458506106739014735e-02
-1.916965958123844141e-02,2.247508098511066463e-02,-1.870276352714003981e-03
-6.147683191363672445e-02,-6.418154938565949486e-02,-4.535982294199961129e-02
5.886447723887579253e-02,2.516577947270801086e-02,4.678482142434794988e-02
-5.073205776803390438e-02,-1.235565485404301229e-02,-1.475051772975234481e-02
-3.047324218856891156e-02,2.020134953355653615e-02,2.212659070057238983e-02
-6.026939986833237776e-03,-1.228059584512195858e-02,-2.181467096810324816e-02
1.212612086527135695e-02,6.292676539034587624e-02,6.156255565507943658e-03
-4.536203288948384427e-02,-1.017115000006552073e-04,5.872463473238532378e-02
6.734038856913599456e-03,5.936325244054366235e-02,1.763575010547640751e-02
-2.645589892302272622e-02,8.236927440598031114e-02,-2.587537179723027950e-02
-1.674532715340089351e-02,2.493389046025134767e-02,2.592043788269359633e-02
-1.067039565961327985e-02,9.167709146022832295e-03,-3.863659541550759635e-02
-1.601057491120171572e-03,-5.042622489040564371e-02,2.773372479777969427e-02
-2.061224399543927846e-02,-1.434901133060167110e-02,1.530474816984660029e-02
4.965188162203625771e-02,-5.267573454868599431e-02,-8.009914221883672816e-03
6.988967019591588170e-02,-2.924816971035151814e-02,-4.995048568702400299e-02
6.681227520108134164e-03,2.959765074371739288e-02,-4.297983679518334321e-02
-2.019424994251652408e-02,1.140244357860672846e-02,1.316666283373224902e-02
-4.903912983032115286e-02,2.900076878216052353e-02,2.616682220271317888e-02
-2.428408825621079792e-02,-5.615877561569807691e-02,-4.685395872722202676e-02
-1.078833388582711716e-02,3.789281373457522965e-03,6.979501972794267817e-02
2.714240146637175721e-02,8.245551644506096678e-02,4.147524905351111096e-02
-4.964331608399192436e-02,5.913939426356240592e-02,6.535332206589322679e-02
1.414349638371690566e-02,-3.176987456554805633e-02,3.093770871213559828e-02
3.163565353017459142e-03,-2.324536008424062800e-02,4.691573477216998654e-03
-8.625711828539076031e-02,7.612914488104952082e-02,-5.405684835824046269e-03
1.459267399591762443e-03,4.559355795670145400e-02,4.474139133332290241e-02
3.104960700729555295e-02,1.416929099906534019e-02,-1.524345596595849846e-02
3.861197360669542389e-02,2.525451903963390685e-02,-7.542318887044804909e-02
-1.272896357962569405e-02,-4.544992766048660572e-03,-1.184266078986225120e-03
-9.517984681053977703e-04,-1.601067159587965310e-03,-8.808739003981212387e-03
5.381064225435919918e-02,4.346450516225736777e-02,8.888399180649492193e-02
6.286354812491641575e-02,6.077744150453629965e-03,-1.965060197179627210e-02
-4.955772525714786242e-02,-7.351994892949899330e-02,3.197638063913813694e-02
-2.664227039066659197e-02,-9.836475289973887690e-03,7.329598899923048250e-02
5.314550529232501402e-02,5.193720951275650893e-02,6.502555680361639390e-02
-7.219804719104805021e-03,-4.145367755521229408e-03,1.912339430851927105e-02
-3.854768971511980842e-03,-2.924357440151684022e-03,7.661025521034470209e-02
-2.553353777902358027e-02,4.425758688419640513e-02,-1.687977704870881682e-02
5.376492513934495038e-02,2.533187502208421663e-02,9.399709316171594997e-02
3.581940197558377680e-03,-3.273500897251049868e-02,-1.091572943737994551e-02
3.129491602573845205e-02,-3.172761787935105687e-02,2.657889922758842512e-03
6.542576001439655287e-02,6.236201627523530605e-02,1.542195772203458493e-02
-7.250226991972710811e-02,9.417539394946805587e-02,2.965635808126818040e-02
-3.622682068867568578e-02,6.087145647619270072e-02,-1.491305545068921136e-02
4.459711525552811917e-02,3.127684318248113993e-02,8.976149957040293476e-03
3.731633323806834296e-02,5.594230257697717368e-02,-7.724583756137111401e-03
7.352212777104676078e-02,-2.863271871316199965e-02,-2.454826779336682571e-02
-2.437834658305704227e-02,-4.856687690131269303e-02,4.226340484296286538e-03
-8.824754926395684748e-03,2.988430938893934727e-02,-5.422681160687671011e-03
-3.075620610872298669e-02,3.773459313960946665e-02,2.090313808359656536e-02
2.530439085894153201e-02,-5.972177199780614315e-02,-1.060714904143531846e-02
-4.364880199388005040e-03,-7.309433597562242646e-02,-7.207297723919639174e-03
-1.538894157984332760e-02,7.250610575906564839e-03,-1.541530414903567216e-02
1.239685391636103327e-02,-3.671095062974880086e-02,2.602520362714527344e-02
3.244294818868163205e-02,-3.638923930178363658e-02,4.313988959942358786e-02
-8.659792750191828287e-03,1.495836388920501010e-03,-5.031283793234004632e-03
-1.194857823183584876e-02,7.154685198024789139e-02,3.671984561892949195e-02
3.472458917391614552e-02,-2.839271930936431224e-02,-3.555259211070759678e-02
-1.745365634331525265e-02,-3.773912542981598672e-02,-5.497738341300233145e-03
-6.656351085089405595e-02,3.862264214224075953e-02,1.535296165339643942e-02
1.100428955113780249e-02,7.933781034080307146e-03,3.803818974315485019e-02
-2.531393835223929353e-03,-7.215950881196787903e-02,8.207390229641616658e-03
-6.612951041552755926e-02,4.702789868210593277e-02,-2.840032891134131390e-02
-1.063901604166913040e-01,-3.180116277475963926e-02,2.748163436913244120e-02
-2.023898279402022021e-03,8.248444960622474537e-03,-1.790297892075772349e-02
4.146888280432425161e-02,-8.526424762972324711e-02,3.381294233069830069e-02
1.650475155288087803e-02,3.216067358807001009e-02,2.017826832053486175e-02
-3.128303287351081111e-03,1.418413648599251009e-02,5.641061127655837976e-02
-2.598542640194269684e-02,-2.002438796740336688e-02,7.230325130482871676e-02
1.094551835657020175e-02,4.193005570109740315e-02,8.601694298064314556e-03
1.724989649134890668e-02,-1.023038839131933525e-01,-1.151743946015850034e-01
7.717136557573257838e-03,-3.671114573238075125e-03,4.325657528101393978e-02
8.073208862033884325e-02,1.918435393458565660e-02,2.188568201474616615e-02
-4.051646452082315920e-03,-2.173896719710246769e-02,4.699043504616585987e-02
-7.081644942177716708e-03,-2.793871954058495255e-02,3.181571721744559655e-02
-4.039585276258630259e-02,2.739202240406966860e-02,9.041208103536696461e-02
6.405540439291985966e-03,-3.144201443994278089e-02,-8.558355826322147641e-02
-2.457393212333077587e-02,1.153541496834178297e-03,-6.386176607838439656e-02
1.454647671268155702e-02,-5.963242607796653827e-02,2.009546429697780731e-02
-4.608704218514457496e-02,2.361144558810025079e-02,-1.966961672440592848e-02
-2.179663454653293225e-02,-2.438007479997439733e-02,-1.915993690748638706e-02
7.269474460451347264e-02,-3.109874989870872741e-02,3.964821702853100691e-03
2.734800755043540268e-02,-7.161126666169713439e-03,2.559259052071632956e-02
-5.844367600485150804e-03,-1.005319033672393003e-02,5.306713244731236373e-03
-7.675028098703780277e-02,6.300434984902911206e-02,-3.510867476733262743e-02
-5.314563816805395469e-03,-3.822960333045560127e-02,2.203832906120736790e-02
1.651797087132245850e-02,-3.113154424393820008e-02,2.324869838051865992e-02
-4.236548580255859037e-02,-4.776631768612869117e-02,-9.125256453180694352e-03
-6.771757232304401186e-02,-8.528653794035782193e-03,6.065882759635829458e-02
-5.110114714835534838e-02,-3.610326566661710250e-03,-4.367841586141103793e-02
-9.433457288845939048e-04,-4.865439885657984326e-02,-3.288681087227725286e-02
-1.475770960787619289e-02,-6.375432943296177601e-02,7.631170206703934145e-02
2.147371052277884454e-02,-2.389318375980064094e-02,2.834332180862760009e-02
7.900248078952179509e-02,2.526839889653227644e-02,8.637866422786984189e-02
-1.768319875790189816e-02,2.355311357930188650e-03,5.385227533537936817e-02
6.269066840939871432e-02,5.893506563241345669e-02,6.714990542466120482e-02
-5.260021779613422571e-02,1.538905569388661701e-02,-3.290696939402247036e-03
-2.900347595478479021e-02,-1.824430972300239429e-02,-5.437042098152492647e-02
-4.204351867838534984e-02,-2.136604024372976141e-02,5.532813846159480298e-02
-3.252479062176759361e-03,-2.047164508915517989e-02,-6.465198613755342681e-03
2.414658343444026772e-02,5.825503365007719814e-02,4.157496233241061295e-02
5.930637796290579369e-03,1.969787279492110632e-02,2.356211919864078033e-02
1.233879979835100955e-02,2.959757726991373711e-03,-4.893529598373441702e-02
6.304519493350875525e-02,2.045688909221730217e-02,-3.171245705946128257e-02
1.866008587011503544e-02,1.000464549951049845e-02,-2.725342746207482479e-03
1.070754591590440197e-03,-3.102665562789927445e-02,-5.837307030280946066e-03
4.018068881486229482e-02,2.754008020647683019e-02,3.246965384484105238e-02
-1.700437200283301531e-02,-4.307715222883110560e-03,8.368541985240215975e-03
-9.827242248405466257e-03,-2.096360309163970009e-02,4.216160734590466974e-02
2.788659221328805907e-02,-3.072952798008455125e-02,3.048780046975132010e-02
-2.665092056849885024e-02,6.918644464704711006e-02,-9.533814649102974326e-03
-7.432498096403096499e-02,3.724860669836956018e-02,3.580525284867094177e-02
2.474752559599656052e-02,-4.720896359525932062e-02,4.775256437596501341e-02
1.759543693574436296e-02,-5.541209980733328988e-02,3.973871195731153855e-02
-9.062510836509717060e-02,-3.453846780592219334e-02,-4.962107217291491373e-02
3.285953019643609446e-02,-1.064321735742422038e-02,2.832877526789094949e-02
-5.815907353995709156e-02,-3.409868315603480082e-02,4.570041344000684222e-03
-2.668413170479409444e-02,1.154513162884750026e-02,3.537595412445167925e-02
1.792406345270272303e-02,-1.546944348659745096e-02,1.466886817660478272e-02
3.244040410366931526e-02,-3.693055453915071451e-02,-8.971368791009602661e-02
-1.001749336101990656e-01,-8.405321567171547895e-03,6.974876067893962667e-03
1.651287046339140058e-02,7.185276932821021804e-03,-6.084800164639114772e-02
-4.431857317169520666e-02,-3.242551085029805186e-02,1.998668456189959391e-02
-9.079239410194991922e-02,-4.161153347272857940e-03,-9.890755382131435208e-03
3.805234425177968921e-02,-1.145423646250576244e-02,5.356574884937393560e-02
-4.606182984270002639e-02,-3.949476007267487682e-02,-1.019372139530537978e-02
1.520060513940351896e-02,3.685003398883781450e-02,6.830009200646317002e-03
2.521449869806293223e-02,-5.259790631171557679e-02,3.656294769676551870e-02
-5.421761645792549239e-02,2.782404127779986025e-02,2.485969242943993768e-02
1.305483725961628476e-02,1.600370080235923151e-04,6.682563156854559594e-03
8.975964138011087445e-02,-2.658540128371262440e-03,-9.123470061004345516e-03
4.698748465150234810e-02,-2.424936831759279005e-03,-3.502186434960997356e-03
-6.925437359286716610e-02,-4.517772367322397259e-02,2.714440044980808917e-02
-3.604768143584256412e-03,5.437646739668836049e-02,3.075016485390139748e-02
-4.390390988253609246e-03,5.371664503244181349e-02,2.065509792949924567e-02
-1.904175334747690643e-02,-3.614946309521016587e-02,5.007958507999069053e-02
9.548826582238555821e-03,3.123918714207400346e-02,-6.256462231488732484e-02
-6.094367476185599125e-02,-1.229824572765122331e-02,1.329465525902380658e-02
1.618024896319190248e-02,-9.489917083573712678e-03,6.322360824489571540e-02
1.552030766007928128e-03,-7.618140112052286528e-03,3.095551333179069955e-02
2.284638891035009958e-02,5.034885676639933548e-03,1.969703072987632683e-02
-8.976164803897039232e-03,6.803718566181141125e-02,1.280807598402468675e-02
1.961853500133611122e-02,-6.905434003736392323e-02,2.801632418629887086e-02
-6.359401421196339554e-02,-4.875010843061581417e-02,1.004616021600050410e-02
-3.519703588340699490e-02,-2.742227453291756767e-02,-3.455293802452991114e-02
-1.183492396434862072e-02,-2.401661326111550684e-02,9.152144699775845160e-02
-1.714158124942201031e-02,1.275911445062572480e-01,-2.251385551350990749e-02
-5.854355348702412060e-02,-7.174236755104465568e-02,-3.684554269130888016e-02
1.937386020595023919e-02,4.866836427375461488e-02,-1.303210921369251860e-02
8.571057202028997679e-02,-3.987336063969706274e-02,-6.164018116392682572e-02
2.689415715216630920e-02,-3.797105597925200075e-03,7.179429534396757073e-02
3.209181596676825322e-03,-1.331139438687731907e-02,-2.422049449585387745e-02
-3.647733599053902542e-02,-1.712639878150091707e-02,-1.897066394701264411e-02
-1.935041008628715295e-02,2.371844615457166516e-02,2.668990851876607007e-02
-3.703836966080828463e-02,3.419127082253776290e-02,2.847139044211276226e-02
-4.424726445446144907e-02,5.786632388091382485e-04,7.162052217672759506e-03
-3.501239446610343283e-04,9.219341655398559029e-03,-7.244971313199875980e-03
1.750624573976755638e-02,7.102037139212655226e-02,-1.770856850296055607e-02
2.964717158898331692e-02,-2.231409372938642985e-02,4.690427770460155188e-02
3.874297722483064504e-02,-4.497960439475213318e-02,8.359488465474605029e-03
-2.355304957156656095e-02,-8.663062402609667846e-04,5.447106699639796962e-02
-2.598759869224989347e-02,1.454065057052239367e-02,-5.340874689243071266e-02
5.982778301666060589e-02,4.254866980196660153e-02,-1.060518547296935774e-02
2.991386563785986344e-02,-1.315459253663195105e-01,-2.253708568654674144e-02
4.723516025486835385e-02,-4.187082477422247179e-02,7.449157016199041415e-02
-1.122810685797028842e-02,-3.008217021081455687e-03,1.299703070749832568e-04
6.516111837571062632e-03,-1.740131603414738284e-02,-1.244142103318372078e-02
-6.479601777717756972e-02,-1.009267480503574649e-01,-3.197057286931179187e-02
-1.153654308054168423e-02,-2.854810991588847130e-02,6.452953320696041759e-03
-1.934625784288134323e-02,4.857141762426180065e-02,-5.433526181792233331e-03
5.604760278900736831e-02,3.928341626803354136e-02,-6.764545917193126590e-02
-2.939677946404860992e-02,-3.473719367335457997e-02,3.894934019299577110e-02
-2.742731344929183468e-02,-1.739009579335291239e-02,-1.797553731119147166e-02
7.390597829089391377e-03,2.374784498343575356e-02,4.283262401525407548e-02
-3.620846705900124946e-02,-2.645248664390882631e-02,-2.375522515193836601e-02
3.671820669743192794e-02,-1.287430369974471717e-02,3.639738865273188517e-02
-5.836269023143857843e-02,7.272514445989503029e-03,1.946305532513568221e-02
-4.116566221219895849e-02,-6.809247200556678425e-02,-3.426940422326159308e-02
-3.302515699843304193e-03,3.664201514380580754e-02,-3.610334305044399922e-02
-1.808442130138516318e-02,8.322167873868488094e-03,2.746499832270431554e-02
-5.259128895543552923e-02,4.973988482332127037e-02,3.609884761061248754e-02
-3.188560051132192669e-03,-5.141674911186897359e-03,5.743108100710447167e-02
1.195012176013414071e-02,5.572260536831002281e-02,-1.340842477679829578e-03
4.651082922214998944e-02,-8.120140595226471580e-02,4.449988661202889523e-02
-3.171558351696412981e-02,4.409865637713798747e-02,1.097145371163650573e-02
1.080665976181064379e-02,2.122369988104292129e-02,-3.754073864109600672e-02
3.052110817377314683e-02,2.612219192814926524e-02,-3.503656714938079009e-02
4.271180816767992938e-02,-6.589816146757856985e-02,3.289072568726407464e-02
-3.377070697169156505e-02,-7.471874945795171918e-02,7.859001046336713814e-02
-3.242334018258283962e-02,4.382500230356248076e-03,5.618270118700018079e-02
-1.730159654710663325e-02,5.145721818831049121e-02,4.803372635390191353e-02
-1.121454261446054312e-01,3.018480141849816389e-02,1.573422042285662487e-02
8.276751300480340856e-02,-7.048201682038866822e-02,1.410865836847745823e-02
1.300424641239188162e-02,3.178532371270380297e-02,5.977128961565249948e-02
2.981108234794134504e-02,6.676901571462721952e-02,-2.237027099323561988e-02
4.024392066415717617e-02,7.892935995599449639e-02,1.360125060503331908e-02
2.957838376343181752e-02,4.115123724223506557e-02,5.725471692266381057e-02
-4.437842809361224744e-02,1.532781155355309767e-03,-6.166129826096027750e-03
3.631477273569493763e-02,2.031858181558794663e-02,8.146147368586721671e-02
6.667961652757370405e-02,5.087292421946998378e-03,4.748246820671805229e-02
6.346760245933789901e-02,9.014008664336818633e-02,-2.161602692097222729e-03
-1.010585558188323990e-01,6.826818954996861921e-02,-4.023117427983329691e-02
3.222749413745910896e-02,-6.602803964674970605e-02,3.958596986646398946e-02
2.233684775206535092e-02,-3.809398987085661076e-02,-3.295856224132131911e-03
-1.346315431158251648e-02,4.483812941244311179e-02,-3.990044431591130425e-02
5.767013552552338607e-02,3.504097236886961897e-02,-3.466882609298835034e-03
-7.127027517755708808e-02,3.860154966856360614e-02,-3.977594050054113900e-02
1.502499939228627707e-02,-4.035509758445095935e-02,2.414170983593364513e-03
7.542576855373413214e-02,2.439413226342797628e-02,5.290960992625151627e-02
-2.040746912722398929e-02,2.554576723184903697e-03,4.206250659979816897e-02
-3.135607856643136265e-02,4.499969593091354692e-02,6.617935152187987002e-02
4.493647941008193508e-02,-2.523430702541024778e-02,-2.476561157350668646e-02
-2.009690450445811988e-02,-1.965370291733918931e-02,-7.757978724278344340e-02
1.239921757656266971e-02,7.795521197077283880e-03,4.489637309610861743e-02
5.347132550311427951e-02,-5.686210925261674792e-02,6.515847289997445113e-02
7.472711660225987533e-03,-6.079394599471479171e-02,1.098612070549328662e-01
3.159223875321996722e-02,-3.588080596400974875e-02,-2.100548653867976082e-02
2.913870083079915865e-02,3.926038738082945206e-02,-1.332160791495207858e-02
-3.365453141039280970e-03,-4.375574757055726571e-02,-1.229978437835146064e-02
-5.108650861538496790e-02,2.639950562855380642e-02,1.564367507984732591e-02
4.310875768727814861e-02,8.442979829679011020e-03,-1.613508054298767522e-02
4.787503892542871453e-03,-1.248266184642921918e-02,2.528887036028530915e-03
-2.450931784793706700e-02,5.376970066211726740e-02,9.276913823156313424e-03
-6.828564520316911593e-03,2.069376535788338203e-02,-8.546635024282296655e-02
-8.926950279317748954e-03,-6.034459646605067062e-02,-5.513272189989323890e-02
-8.304034509655654553e-03,2.070016188873710639e-02,-4.702131536399051064e-03
-1.112081394906307835e-02,1.556872409188410009e-02,-8.459453620738565174e-03
-5.387845690097454489e-03,-1.705667536905166801e-02,1.675041350455009140e-02
-2.158663471924423746e-02,-4.200949393667637033e-02,-4.561005990284925510e-02
7.708379165713996617e-02,-1.673455488615424244e-02,-9.211688330583245668e-04
-5.624350862416533509e-02,3.506841675456723664e-03,-4.538677171264360322e-02
1.098026647287157591e-02,3.320674144486052137e-02,-8.201736438329047807e-03
-1.674238036312220360e-02,-1.800122350864236109e-02,3.750915715433634362e-02
3.779806261163006637e-02,-1.293869028772013340e-02,6.100537239516724136e-02
-1.335691663221754907e-02,-6.655042333527258491e-02,3.628988885853885737e-02
2.184685884535157024e-02,7.809910048145369404e-03,4.212830768546581284e-02
5.900019414082249836e-02,1.172937999136549128e-02,2.368390326665960333e-02
-7.929290139153388761e-03,-6.464851581118288837e-02,-3.361685587536622499e-02
-1.090166371061883702e-02,3.315692711410666432e-02,-3.588344038647032358e-02
-3.867487938175864781e-02,-6.984496539284494425e-03,-1.096718003403675430e-02
1.125044543454010830e-02,-5.840327322836900981e-02,2.184915231191731852e-02
-3.888604659544880882e-02,1.910906842077079049e-03,-1.069498034648280471e-01
-8.256382050774443287e-03,2.138087832393001722e-02,-1.933663661867795688e-02
-1.006654353534187224e-02,-1.085865543415150472e-02,-2.637535403493000002e-02
3.741244653329641595e-02,3.078431601782218030e-02,6.169085017038280008e-03
-1.295630942841595294e-02,5.905228186243612065e-02,-3.362643151374936079e-02
3.479055056040643301e-02,-3.196910160606728640e-02,-3.004208600711765625e-02
2.339440407704340696e-02,3.595272714343888260e-02,-4.186382118467459577e-03
1.296025528325237160e-02,5.408464241380006587e-02,-5.742570953321547711e-02
-5.386633245140453469e-02,-4.102002222889770261e-02,-6.383579737020458889e-03
4.346316583666914174e-02,-3.828490402658336206e-02,-6.549330529517337351e-02
-5.516722964043450222e-02,7.844101471499384526e-02,-1.684691746451976238e-02
-2.566744451511326214e-02,-4.990913564819224844e-03,7.111063604287888584e-02
-4.387823976243224872e-02,-2.130982000836961418e-02,-3.963824959570719231e-02
3.774613670659246467e-02,-3.977968872182877785e-02,-4.663107695648077700e-02
2.467969293085240864e-02,9.899319032088016446e-03,1.381024103860078490e-02
1.994968017298341320e-03,1.651198547189975871e-02,-3.424874349928724859e-02
-5.682466890160879636e-02,4.890361121884739815e-02,-6.073479598313653166e-02
7.501720552339283254e-02,-5.540413922598883684e-02,1.782887437997488986e-02
-5.278528489014308600e-02,-6.143142651119117698e-02,-2.919684065498996325e-02
9.359860671303513874e-03,-2.531569097449773431e-02,4.013171468441312228e-02
-1.392266311531973992e-02,1.736320897023044957e-02,6.129368600467575978e-02
-3.409935228209742819e-02,2.367338189054357667e-02,-1.164806484520307037e-02
1.640201562267766620e-03,1.582035468845044771e-02,-5.586690902869758529e-02
-8.048858436620649759e-02,-6.047562834062547577e-02,-1.207208751215757200e-02
-1.755694696741112726e-02,5.742484580787880072e-02,-3.387434967559918575e-02
-4.663683752818407330e-02,-3.630298716128723541e-02,6.301448230222918279e-02
3.888497543227636272e-02,-2.851075275108624213e-02,-1.341142976515299727e-02
1.651001333492244094e-02,-5.385312198795846883e-02,6.061644576408607016e-02
-6.965107782304762532e-03,-1.952041893908764564e-02,-1.273493825435356372e-02
2.505830399696157632e-02,-1.869609587294753308e-02,-7.886546251476264646e-02
-1.587097090177717884e-02,-9.862557045925098020e-02,-2.526214363968627957e-03
2.966415929176134062e-03,-5.932068385139271233e-02,-9.561698222838291295e-02
4.801373547232493794e-02,-4.407751562807071810e-02,3.680909793572317845e-02
-3.984633571474335140e-02,-8.496011011543045527e-03,-6.065320902509913070e-02
-3.650693429889185354e-02,-1.190434607257328387e-02,-1.161009004872451816e-01
1.929746873437396260e-02,4.666569162952462907e-02,6.755658987831925089e-02
-3.723791096853625721e-02,-5.891562428524870030e-04,-4.028090892724428551e-02
-4.619120292940839811e-02,-2.332135970038064568e-02,7.028633224315042338e-02
3.817176008458350589e-02,-9.526717243279288943e-04,4.734901814136451698e-02
3.972745707684037508e-02,-2.090754944985472041e-02,3.119470887949927010e-02
1.843170508717000260e-03,1.822958131795443006e-03,-2.651602703476733935e-02
-1.927898264510102475e-02,-3.149757077001520689e-02,3.949619340645177390e-02
6.189263442060936871e-02,1.393538331400610321e-02,-2.584561955520732826e-02
1.083960790619310603e-02,-3.989592366654032274e-02,-1.303186091366638835e-02
-4.443880460361084028e-02,3.641244264182719181e-02,2.351188804766066176e-02
7.106512610221478454e-02,-8.926761999220560531e-03,-1.918139968065292467e-02
-2.840150121189705459e-02,1.280818063023208588e-02,2.518111176806228993e-02
6.713985662510760233e-03,-2.670550795294337684e-02,-3.221810278785811749e-02
6.233206167213864446e-02,9.786728588127582840e-03,4.159872213415383851e-02
-1.142087285975829647e-01,6.274418883800423827e-03,-2.033089754782313810e-02
-2.436241979496932275e-02,8.060713709583769079e-03,5.499918504902587962e-02
-2.022587995478510991e-03,-9.648651407979073544e-03,3.054682378377681154e-02
-1.536861979030520672e-02,-3.866060748091951910e-02,-4.754070578663293495e-02
8.396748843537696350e-02,5.576461716609829727e-02,-3.243807615619104939e-02
-1.824335578718629808e-02,2.023193592202842186e-02,-4.486576025172896165e-02
-8.852994419682701233e-03,7.289580766014966233e-03,3.614862382020658099e-02
9.710370468438084268e-02,5.158665566293686201e-03,6.553175098216966477e-02
7.881355104080335627e-02,-3.648984594190432529e-02,1.420389281583631091e-02
-6.224449152155086228e-03,-1.002591242367513874e-01,4.229711077852622847e-02
3.188563857010597719e-02,-3.146449392806947853e-02,-1.513429012372550543e-02
3.331153313387869019e-02,3.802741717182357446e-03,-8.249285568497369270e-02
-6.221096476219298288e-02,3.499314450318400521e-02,-5.321064315120390548e-02
-1.592811820266253758e-02,5.435155154029058799e-02,-8.227411105684260401e-03
4.796821319324372224e-02,2.337506662074727293e-02,-3.511348457227928682e-02
-4.038595727067438579e-02,-3.143093022395554437e-02,-3.563842175021601777e-02
-4.054630248855460584e-03,1.005869684979127793e-01,-2.845140730218534073e-02
-4.852388369061042678e-02,-4.579066324868843324e-02,6.266581990948337511e-02
2.984173828924066921e-02,-5.044978704907360917e-02,-9.379947771140681456e-02
-2.826804091275511577e-02,1.016849260538349800e-02,-2.279323567874988812e-02
3.108053415258705404e-02,2.475244270339364491e-02,-3.366208732962922695e-02
-4.765377614808926493e-02,-5.723604643967228692e-03,-2.264624213076288708e-02
-2.670566247718368300e-02,6.151451409747660942e-02,1.367534706453016682e-02
-1.290507637828985574e-02,2.894573567471909678e-02,-5.959487580099691317e-02
2.497299654713940054e-02,2.274600094470563896e-02,1.822819481970686800e-02
8.773135063355870511e-03,8.011079716662329250e-03,-2.249412542318487973e-02
-2.635699624734240062e-02,4.738131360183291813e-02,-2.912216494097253847e-02
4.547252131162654587e-02,3.935984849108279532e-02,2.123463291215348450e-02
-4.886512975265764822e-03,2.190173538598208253e-03,4.269555018893948437e-03
2.034432508404952766e-02,2.993133801130058377e-02,9.601890913948205389e-03
7.293471875576745811e-02,-2.972314179346394658e-05,5.444734949235481569e-02
2.429991144933809841e-02,-4.848414455945902063e-02,-1.617504189636156595e-02
-8.474147677411045243e-03,3.335811699774535177e-02,-2.617245573271938935e-02
-5.368299467097681701e-03,-2.950137749223119207e-02,-3.717336652196503305e-02
-3.012822030820140259e-02,2.998435787007934158e-02,3.227788126606751656e-02
1.180214221147611771e-02,-7.596487218751678955e-03,2.398204159937256802e-02
-1.278971718552255991e-02,3.239095672311507329e-02,-2.193979381013248797e-02
3.637837127351235822e-02,-2.181067626086307179e-02,-7.552582429877746639e-02
2.782148111591880614e-03,2.315016002166660203e-02,-5.386201790032792841e-02
5.640547108216918681e-02,-4.880552619000690096e-02,2.724773153207639062e-02
-2.214826445447596812e-02,3.842547939175090105e-03,2.634723555486960869e-02
-1.621657288961784668e-02,5.163108913429131919e-02,4.049188439143113633e-02
4.646579986727825823e-03,6.829008865084805480e-02,-5.678607358150953438e-02
3.207437302474271112e-02,8.557748674373433229e-02,-3.701686312864541084e-02
-3.224402535436808083e-03,1.163465197080085223e-01,-4.254794886000325127e-02
-2.131315933777069935e-03,-1.367170400053539445e-02,-4.919220468875036556e-02
4.473102173235489823e-03,-7.718726213059072527e-02,1.101366708461165231e-02
7.068344050496283559e-02,1.020656764894587454e-01,1.697518899855965380e-02
3.695507594176113911e-03,-3.712079089790476516e-02,3.872076365740053511e-02
8.709740759208871308e-02,1.169979342856296116e-03,-5.520173196680211794e-03
2.484587744567046813e-02,-1.656886745999884211e-02,2.455789584267686551e-02
-1.794611353102337423e-02,-1.164640325908291273e-02,-8.927650707328418575e-03
1.502330174554857706e-02,9.246646436809486877e-03,3.087194611377133344e-02
3.211124570930842803e-02,3.437747278340538143e-02,-3.342899482534664179e-02
2.228070073576935220e-02,6.168162558187812589e-02,-1.807033604456306439e-02
7.070619716412541479e-03,9.722235939232065638e-02,-3.752355888668891526e-02
-3.015932618405091359e-02,8.379681915860946045e-03,-1.459441674117158833e-02
-4.313735993378094852e-02,-6.384926863734559366e-02,3.606146356854636470e-02
-2.612971977680927232e-02,-1.081226169519089106e-02,1.343975477988378553e-03
1.539934892801676954e-02,-2.116485893362798215e-02,1.356315339929345665e-01
-1.721309458986438126e-02,1.797539210100446497e-02,-2.072644038795432367e-02
5.570267248076011396e-02,3.550442408320692717e-02,-7.505775790215364618e-02
3.907086208035762120e-02,-6.900833282479685790e-03,3.306903748383139240e-03
4.621224408259909378e-02,-6.281318385491722889e-02,3.675101816463240828e-03
-1.087394677060576492e-01,4.346407641303752338e-03,4.521748861457952628e-02
6.005724717662588689e-03,3.391729662562557868e-02,-1.322634434752390474e-02
7.115852795319800583e-02,-8.646474140402257702e-02,-1.516617282302280996e-02
5.828204614153009722e-02,2.640768701091872860e-03,4.450788923822447153e-03
-2.811475566138532667e-02,-6.109723568088374496e-02,-4.941603529315674766e-03
8.030881462295537399e-02,-1.531261417352943084e-02,-4.096226301176651013e-03
-4.352676076221684287e-02,5.929684501881691411e-02,-2.488404481354184600e-02
1.418050328764458058e-02,3.199397135516900831e-02,3.572897747151670272e-02
-1.750025372533966714e-02,2.015360561017452354e-02,5.410803912905382679e-02
4.394052519009945118e-03,-1.036373712408547067e-02,1.218536150140225177e-02
-1.119608162039724061e-02,6.479933651143610085e-02,8.669007725527363983e-02
-9.051721521507694046e-02,7.465554665125067116e-03,3.034513468474092819e-03
-3.391614212338862899e-02,4.787397776570800900e-02,-2.338215271269889969e-02
2.536309251996251603e-03,-5.197400429048796948e-03,-4.144337088479704834e-02
-2.828669716396327999e-02,-1.197541130482309910e-02,8.113496117955504294e-02
-8.664139200075089697e-02,-1.907469758575935231e-02,-7.444081264312774060e-02
-2.677638679576789874e-02,-3.226877536265830571e-02,-2.874584594509682275e-02
5.996488600320680484e-02,1.190900514250984449e-02,8.023080409548948022e-02
-3.447391532868665509e-02,8.963030329793784598e-03,1.797911682420911747e-02
3.573315042808902081e-02,-5.235461551224822145e-03,-3.157123667035596770e-02
3.627631139240410085e-02,5.606570101544646606e-02,8.739588193018264783e-02
-5.785672312605258383e-02,-4.050704734876225954e-02,-7.198362057636135264e-03
-3.483382527254190539e-04,-4.027763581968894779e-02,-2.866004883176196533e-02
3.326173475759676423e-02,-1.866241967679907812e-02,2.934141295294777699e-02
1.674102552810905961e-02,6.631923593833678743e-02,-1.063105603668370591e-01
4.188372537123616346e-02,-4.341274586267730023e-02,7.886752901052011128e-03
5.447666058363140329e-02,-1.541629502099567568e-02,2.476426305920712695e-02
-2.760097498604725808e-02,5.143181999353680506e-02,-4.374160275098437634e-02
1.126199295427883669e-02,-3.181911257417641137e-02,8.899193875088898600e-03
-3.185951773189082958e-02,-8.522368118567562323e-02,-1.696295660841488917e-02
2.511778350697111643e-03,-2.547033216974971259e-02,-8.796390863041064767e-02
4.073431147048715839e-02,-4.596998226547615446e-03,-3.835538831853124459e-03
-2.112746563757801274e-03,-1.563296290249651527e-02,1.166760564603978034e-01
-2.810422745161052574e-02,-1.604833917614327185e-02,-2.423733787107315574e-02
3.103668423274854107e-02,2.919114623084830690e-02,-5.194223167395587565e-02
-7.014672751537547046e-03,5.271799764866726828e-02,-3.703994077173976968e-02
3.192599045750155184e-02,3.247361882242892628e-02,-4.963946512892539187e-02
-3.592349469057266875e-02,-7.820060315594541678e-02,6.289527261910855815e-02
-3.170106647591473120e-02,-7.622171358046337004e-03,9.870123387292064482e-03
8.069912286312311278e-02,2.391839814268481232e-02,5.105336158615796094e-03
-2.897724511931509470e-02,-4.150051829884992410e-02,-4.863704719480450855e-02
-3.561029220209483565e-02,-3.969287701796087725e-02,3.401247276892724325e-02
5.010408170942217548e-02,-1.449495084454160802e-02,1.876253871263663942e-02
1.962537950401589334e-02,-3.287432865725651437e-02,-2.391925636021161386e-02
-2.646254655807571757e-02,5.807508008841495012e-02,-4.533733590811292458e-02
-2.447135721191998764e-02,-2.433365355997961412e-03,5.031022330747467880e-02
-1.519826540908308932e-02,-4.603032861420628535e-02,-3.007389845460444952e-02
-4.441572860768148133e-03,2.043550567542467417e-02,-8.861206524440073951e-02
-3.788284223272457649e-04,-4.420791839435334047e-02,-4.023273191640087260e-02
9.414842617914897724e-04,-1.162153170551899614e-03,8.011321101825755187e-02
-9.695759721965622677e-03,-3.415670402167946614e-04,2.422941856905732813e-02
-6.207101652525996369e-03,-1.002915878097302045e-02,-4.241527521671790112e-03
-4.430075150974782487e-03,8.624522842186967131e-02,-5.976003154306124693e-02
-2.399080137563207316e-02,1.864233755620695867e-03,3.893632625639932565e-02
3.026456609028752368e-02,-2.344511445433908325e-02,-3.783735572734866354e-02
-5.778130025291664841e-03,-6.022968244987997322e-02,2.157464706726898093e-02
6.099268795640536839e-02,-5.035215365309072405e-02,8.943015711132507387e-03
1.783469173987468209e-02,5.798285822260482170e-02,5.680306245699501093e-03
-2.356804001342570343e-02,2.437391305229203581e-02,-2.049291707801019838e-02
2.264359183379515209e-02,-8.224481925724865319e-03,3.695744956428123618e-02
3.843650822853941079e-02,2.745162850827536499e-02,8.111373060692725432e-04
-1.310224166133246715e-01,-3.435343657236414154e-03,-2.464341455778870649e-02
-2.607672533834547515e-02,-6.339821477344727285e-02,-1.299780262300960151e-02
-1.128870678015588035e-03,-1.590887945665463502e-02,4.692411885175618025e-02
2.880637290131536979e-02,5.518883264620332019e-02,-1.164405465930745120e-01
6.305917608204475444e-02,-6.565094066798920179e-03,-9.236113442267147866e-02
-1.844335155181098945e-02,-3.973803460393118131e-02,3.196943322022838263e-02
4.063347621259350700e-02,4.060806904671776865e-03,-1.461131706145506063e-03
-5.577469793410157195e-02,-1.446447020312951748e-01,4.674494644284737932e-02
-2.621327613594273166e-03,4.934426122324471302e-03,2.955675599717673754e-02
6.348992162550769203e-02,6.625954692651116196e-02,5.436426373892649239e-02
-3.833630124380953824e-02,-3.695857012693917060e-02,5.980661528542779992e-02
5.477911595769687642e-02,-7.535403218003256702e-04,2.927267412261370938e-02
-3.636581451047198738e-02,4.383562579303789536e-02,-3.765719661261181933e-02
3.263936726523129078e-02,-1.064660026266164433e-01,-6.436438083905757224e-02
-1.505884655590341605e-02,-1.976548605180896128e-03,4.646179809201831518e-02
-6.659524006287168008e-02,2.009867021430020162e-02,8.127964397104468774e-02
-3.129199098524409334e-02,4.123633847379151729e-02,9.236490104293173034e-03
5.254756838764984561e-02,6.196229338910575618e-02,9.810776303879678584e-03
3.120177227398245740e-02,-3.440624261356894920e-02,8.217171104543330440e-02
3.670511540498473668e-02,-2.479788939265822542e-02,-8.067111418102018705e-02
-6.384923807021528064e-02,5.362529612776239379e-02,-1.697909852092029451e-02
1.047749268206800838e-01,4.010735800515455654e-03,6.723108807078817528e-02
8.368406869532642178e-03,-6.483862811454753350e-02,4.370165451566133258e-02
4.847860899727029355e-02,5.725773627052135883e-02,2.555348948729626105e-02
-3.695344375758985445e-02,1.360170136696983029e-02,6.162045366378661460e-02
9.319251790708499295e-03,-5.658966587158191508e-03,-3.434601700603993890e-02
1.037068557303422525e-02,-5.893991808501767606e-03,2.510600625156844332e-02
2.444445444043085586e-02,2.017934106128448785e-02,-3.399634046576654328e-02
-2.408524907531010405e-03,-6.394769912546120760e-02,-4.305009182078763097e-02
-2.861627028869110495e-02,7.955646393441088982e-02,-3.576653156779283776e-02
-1.276965934708605005e-02,-7.087944259928593074e-03,-2.626038862657701159e-02
-3.208847799204227885e-02,-6.735517952117107965e-02,1.280395881205549646e-01
7.870953187014956276e-02,4.973341755589943264e-02,3.914120482288835595e-04
2.025995903895172826e-02,-7.891381426366476937e-02,-7.671895643836938380e-03
-1.900183083466927894e-02,-5.037866180321771969e-02,4.083684249924594660e-03
-1.334171057565988576e-02,9.728431156553488113e-02,5.388222535988318462e-02
6.104727705358880402e-02,-2.670128405684740920e-03,-8.381871702048102751e-03
-4.232530261416170281e-02,1.380200913457610770e-02,-7.581855338837141696e-03
-5.793663924742523119e-02,9.316296794995887476e-02,-4.599059493912261570e-02
3.470618033374387595e-02,-3.335437925118493740e-02,-2.333974516813727348e-02
5.693397248409839961e-02,2.063229636162295863e-02,1.920783871088049474e-02
3.016704017062709492e-02,1.128832387250049661e-02,7.113168390225999005e-02
-7.134962147962374546e-02,-5.587751510249317627e-02,4.547965485513069672e-02
-1.200672878460726581e-02,3.408320278847991325e-02,-9.511524300145709002e-03
2.800966737516577976e-03,1.334706615615048608e-02,3.986529622574006004e-02
-1.535966534838980636e-02,1.954892069386604536e-02,2.954037242391372668e-03
2.056669582893625933e-02,-5.322679463940676453e-02,3.058105733951587552e-02
-4.428599358732198538e-02,1.597055246957213362e-02,8.718334942448073901e-03
-2.712687900005852915e-02,1.130727673317868248e-01,-3.799584545298934427e-04
4.963801342799823574e-03,6.169145436510069941e-02,-5.660911370834462164e-02
-4.988542071062290056e-02,6.830950015112204066e-02,6.731633312035486746e-03
-4.226328339733261691e-02,-3.058507670703471126e-02,-2.540572585788353904e-02
-3.832558796269108781e-02,1.053951301131259843e-01,4.301453534744924950e-02
3.290358640316800448e-02,-1.472499808031023198e-02,-6.798649837101584589e-03
-2.255567765218344234e-02,3.804982746394964654e-03,2.249617808906254068e-02
-3.945847702533934395e-03,-8.683047990585382112e-03,1.277114185547751192e-03
-5.510839967856373534e-02,2.236189120235062763e-02,4.101712475715575679e-02
-1.817342939406825508e-02,-2.650913879276256893e-02,-2.684849950313935793e-02
5.702000757853794427e-02,-1.209049340407706251e-02,5.160825945777677837e-02
-5.070908881827815989e-02,6.887989478318715976e-03,-5.896479144862511873e-02
-2.130280866336470985e-02,-1.585370587658971320e-02,1.601989685143971262e-02
-4.324761917716665044e-02,-2.738160872096736739e-02,3.121562374971652287e-03
2.901196006602013017e-02,6.426791118738355013e-02,-9.938495820818038506e-02
4.213287066588987384e-03,-2.039638849073092258e-02,8.625594204353776405e-04
-3.095375410760859217e-02,-1.451269144136201408e-02,-1.987323989520177123e-02
3.952589333935221938e-02,-7.779439998090396935e-02,4.291097598460236195e-02
5.888292967585830040e-02,9.445521875641069154e-02,2.477791421131672091e-03
7.941592605094456234e-03,-1.963472016141531301e-02,-1.470757495855479213e-02
1.488586823888931633e-02,1.318682958363543226e-02,2.430265063389184382e-02
-7.980406587958839559e-02,4.019837997723196658e-03,-3.159888986285288442e-02
-3.383228066429707498e-02,5.367503884261049657e-02,3.054910663773230482e-03
-2.529490773338044160e-02,-3.681645864571849586e-02,8.305978632344573898e-02
6.548312612199180816e-02,2.603652716263701265e-03,-2.838501733903078805e-02
-1.099086598144540135e-02,2.109554507339683749e-02,-3.046442968978108155e-03
3.908946494398625460e-02,-8.350313582158673531e-03,-8.314328583730365430e-02
4.943277282035742071e-02,9.065584020328925838e-03,-3.437681912049848128e-03
9.716347686067463435e-03,-2.659681427438075063e-02,3.515289783431733983e-02
4.672171402185495287e-02,1.910204678666504660e-02,1.335919321822558875e-02
-9.115136815409501450e-03,4.318248990413495192e-02,2.935130115120220679e-02
4.305234093830982711e-02,-2.106445194397533853e-03,-2.165708095064516892e-02
-5.245674757877651778e-02,-6.818811374983697882e-02,-3.258623818552648654e-02
-3.453276141941827998e-02,-3.463784269194130488e-02,-5.647314342907883145e-02
1.739149361014518530e-02,-1.076540329520128507e-02,5.455088815332198755e-03
9.336672752712568690e-02,2.627396562953680792e-02,4.768305235716713969e-02
-5.882039887859718402e-02,4.551458891896156128e-02,1.306863304667066523e-02
-2.603562372719511742e-02,7.428349604483636126e-02,-3.186333632451243680e-03
-1.104668398296302506e-02,3.838991136981584340e-02,-1.696318410779597274e-02
2.614587036617650392e-02,2.754013428511166081e-02,-1.992055053275034945e-02
-3.178743893669155884e-02,-5.076140097911292781e-02,-4.011465774193526818e-02
-9.024320026568301290e-02,-4.744473866503932241e-02,1.860659588102793124e-02
1.352107639309928222e-02,-3.652028297981570193e-02,-7.660176495019542509e-02
-1.121595020996312836e-01,1.603440030299415134e-02,7.941937587565377904e-03
1.034972715951012479e-01,3.913618444110609357e-02,-6.624039858702324146e-02
4.257085306227835486e-02,4.350019816812935973e-03,-9.940462632623582595e-02
-4.001917665020506693e-02,1.598162642741390860e-02,-5.894806045900250618e-02
1.009836088082098453e-02,-1.664648622803166500e-02,1.842566379871592511e-02
-9.469939185229221679e-02,-3.041854383179415020e-02,-5.584021993194708544e-02
-1.665957196999799661e-02,-7.414402843671506760e-02,-4.535516065080855141e-02
-5.874759066119146500e-02,1.170023033906965673e-02,-1.113878084472112728e-02
1.601436495625020023e-02,4.729208830087153898e-02,1.382703442776352792e-02
-2.586843720831501822e-03,-3.430613213066248390e-02,-7.316979802501549779e-02
3.351180998050304338e-02,4.560896618099317262e-02,1.734622973167177298e-02
-1.474416071119803544e-02,4.123447810124578235e-03,-3.717159963780977683e-02
-2.215321958908631969e-02,6.388993014726934705e-02,-5.042615805232795664e-03
4.092924851470583340e-04,-2.113180520019142597e-02,-1.499972122054130455e-02
-3.294160022543104333e-02,-1.349084926197778762e-02,5.306627054924169251e-02
-2.515631028440317579e-02,7.687908269241484384e-03,1.843796875245976366e-02
1.723423559095256605e-03,3.683372172385697418e-02,2.047968953648300356e-03
7.222085476521201974e-02,2.562012967133637728e-02,3.576932279330664877e-02
-2.150178495824492733e-02,-4.422958447138620672e-03,4.768371833371792129e-02
8.868695255337064043e-02,4.706302497510021082e-02,-2.366449027599584753e-02
-3.422324123762645470e-02,2.297278205263980286e-02,4.537361478367820528e-02
6.709628111180127030e-02,2.137100234451037861e-02,6.226820283299761699e-02
4.287946314854289287e-02,5.871234209616989219e-02,-3.498859398719213892e-02
5.375460567972448894e-03,1.023643982961267712e-02,4.749091473605007718e-02
-7.688691433945407661e-02,-9.011262089252743135e-02,7.559633420526587141e-03
-1.574616292129157186e-02,1.223607235736178835e-02,2.687248978693330959e-02
2.527603204853712607e-02,1.561676996571266865e-02,1.036085135797862843e-02
-1.270361265137396299e-02,3.200193636272549019e-02,-2.070454186819751380e-02
2.174690481315155396e-02,-2.350561903760882768e-02,1.884153951336769994e-02
1.247151783913227029e-02,8.913753973948583542e-02,-5.125951201052256906e-02
-3.906778515056557460e-02,1.825474348603575020e-02,-6.937068631659266960e-02
-3.115507645728011338e-02,1.793741343225934565e-02,7.934157253178045210e-02
4.030059999208717575e-02,-1.158645310065775820e-02,-8.063745185630598333e-02
-4.897043435617245977e-02,6.578213264348911106e-03,5.876380508692576055e-02
-5.256298586362765507e-02,-5.423860974460749385e-02,-9.105505356227590330e-02
6.050448419651596743e-02,-3.752535914293929353e-02,1.778980423862253080e-02
-1.666684145976703516e-02,1.082099421279657421e-02,-4.106318562709167230e-02
6.179889087273493509e-02,9.030448334881511357e-03,-6.997199014818040845e-03
-3.120453860680038466e-02,-1.681562253072101457e-02,1.930483301279278113e-02
-2.980008479020388942e-02,-8.970022067580877764e-03,-4.163048134954703411e-02
-1.138688834639810764e-02,-7.396622514944735383e-02,5.350764305982334129e-02
-1.231876369770252833e-01,-5.932167287950122769e-02,-5.299432059416353535e-02
-2.490636584627589287e-02,5.202614223650400653e-03,-1.010222112988746514e-02
-2.333148637688842522e-02,7.903376130320861892e-03,-1.613249057256950850e-02
-6.835131500438871265e-03,2.848755636402719796e-02,-4.528609957965732194e-03
1.549924763752914131e-02,8.263417610110215805e-02,8.196268585412466723e-02
-4.449944733096759114e-02,-4.477700043393998547e-02,5.418440451811041420e-02
9.564171951328609422e-03,3.473598241590274832e-02,-2.420065093438427545e-02
1.591281071741475336e-03,-8.315984721602708366e-03,5.780085050896972831e-02
6.430007843833651648e-02,4.239976294386994110e-02,-2.800294089971599315e-02
2.192779934211214546e-02,-6.071054704294222108e-03,4.913889775397108778e-02
-2.237345969202787430e-02,8.302183507652313721e-02,-1.925296712859813882e-03
2.269383081343500762e-03,-5.509879960345683697e-03,-7.699478270321258311e-02
-1.566024860047498038e-02,3.786639432756842838e-02,-3.917295211898552849e-03
-2.056626068344509159e-02,3.376140236682215190e-02,9.692634420268476589e-03
-4.181706228081415178e-02,-3.200267219494429272e-02,7.256217409790948272e-03
3.156490663407300612e-02,-4.586077320820526430e-03,-1.773184504336549824e-02
-2.344764330513370368e-02,5.462747601332382241e-02,-5.249205544191798238e-03
6.668247065580784269e-03,-7.270765534921651285e-02,8.377534184300001324e-03
-6.176685964038178267e-02,3.800076686938257120e-02,-2.945087202150998770e-02
3.184960568968318341e-03,-4.253146437622493982e-03,5.459627167548695287e-03
-1.869793526211923143e-02,-8.996378429891957462e-02,9.932955351320015003e-03
-5.447916277024752313e-02,-5.338637467656633107e-02,9.869024103250570099e-03
2.129313366266440827e-02,1.909871057253335197e-02,1.443847900688360972e-04
1.007489111477883476e-01,-2.928981747799663457e-02,1.013868966501645661e-03
8.613149031797387445e-02,3.524386834230906762e-02,8.509325816889921901e-02
3.115188904775224518e-02,4.647798193966897308e-04,3.866804577304979590e-02
-4.746166533185910280e-02,1.537884329039490225e-02,-4.964755798763991097e-03
3.185539639148590035e-02,1.036551526048605926e-01,8.533469069240963434e-02
1.763285824067790941e-02,2.561758387256874575e-02,-8.283057874119380271e-02
-7.543682206120628717e-03,3.302421998067526371e-02,2.549296832869694593e-02
1.969820548009446753e-02,-1.133572969693122726e-02,5.206438376552767477e-02
1.057907746247850942e-04,-6.024134078749976418e-02,5.497420548561492148e-02
-5.701512123313919045e-02,-3.781219466819237679e-02,2.327085996994921954e-02
-4.594729272067656078e-02,-2.622644631254592799e-03,-1.421115936086528309e-01
9.508100802151774056e-03,-3.041448278919396892e-04,-8.251015280611286376e-03
-2.411885494875390130e-03,3.519031871883100682e-02,-1.466703196669825841e-02
-2.756436614684951852e-02,6.433902334909535024e-03,4.519665409121535055e-02
3.601220249249870164e-02,3.452775795557576680e-04,4.639449398702028687e-02
1.936003573161972427e-02,-2.528969212438386682e-02,-5.310743606060973343e-02
2.014517730537849008e-02,3.559588780466887981e-02,1.950829114697436723e-02
-3.965102740703126127e-02,3.719303270661375449e-02,-3.462381521378730953e-02
-4.273873163548422976e-02,-3.438645459699121026e-02,1.407142508279875075e-02
-3.356270130725865636e-02,7.391329709971870832e-02,-3.035813342191821806e-02
6.364602064263940109e-03,-8.541959852095677708e-02,-2.164549687052987406e-02
-2.274161529733076045e-02,2.806909386488280062e-02,-4.438643020975675813e-02
2.530107805508543389e-02,-4.809722288050475442e-02,4.595492534996351019e-02
4.828537857848250875e-02,3.791830265540223344e-02,2.202647267210184126e-02
-9.422780409633908782e-02,-5.861653760494214133e-02,6.954106635053473873e-02
4.256694683086553049e-02,-1.301883792933900170e-02,-3.660321361838038412e-02
3.379103054044246129e-02,-2.569623108486232543e-02,3.539993157211899274e-03
-7.537018300273914950e-02,-3.479672221712545865e-02,-4.662970636760407905e-02
5.999694425693680687e-03,-6.617392868223484492e-02,-1.873836340945614874e-03
7.093188409150752438e-02,-2.965402965101576402e-02,-5.610299260242768149e-02
-1.852185732338579999e-02,2.664227891327493498e-03,5.017790698108511027e-02
6.306498402784757595e-02,1.100782242496116392e-02,-5.149569591074480701e-02
1.573180796604322848e-02,4.918459974843419902e-02,-6.589746464495374947e-03
4.005295021248097415e-02,-2.246252336362513161e-02,2.450950631048003786e-02
-1.929263863509481439e-02,4.836655388125161992e-02,2.609133771544207628e-02
4.478479253249015996e-02,-3.233066910159938800e-02,2.294842626876265543e-02
4.494603840745012985e-02,1.257117850382018405e-02,6.312742447333041795e-02
3.345440618923704867e-02,-2.953314406403150655e-02,9.261331616816310952e-03
3.387845025171812990e-02,-7.870369229760969254e-02,5.048523215408317125e-03
-2.179114738109682974e-03,-5.940521293967057116e-03,-1.582660995430900872e-02
4.848912578404883378e-03,-2.753100001831666407e-02,9.861834212193715601e-03
-3.277313532170208349e-02,-9.420412916044575147e-02,-6.442335399220924796e-02
-4.390995156996883170e-02,3.058463799752454693e-02,-8.560400663000991908e-03
-8.055602187648548684e-02,4.919882846804232712e-02,3.451065979738581618e-02
-2.165790641724820928e-02,-1.399141317564083116e-03,-7.808913788403681888e-02
3.292042382110401538e-02,-8.151543284273454412e-03,-3.641674281415683417e-02
2.112166833170886146e-02,3.086440659397871739e-02,2.896894578301509315e-02
-1.308268477987393520e-02,2.914863929966550124e-02,-3.718005324425605052e-02
-4.698012301817702796e-02,3.991271065110735261e-02,-2.191676914578872745e-02
-2.810207979183813876e-02,-9.495211222833990772e-03,6.420837492129451152e-02
5.876861228770836193e-03,-1.124509769897829616e-02,2.987738826696282463e-02
-5.097194157843797785e-02,2.246916603167701393e-02,-4.719490533999076004e-02
1.430848244706346174e-02,6.598976357821573040e-03,1.883832085190512498e-02
4.341104929511827720e-02,4.679866676334124530e-03,5.164077904403198416e-02
4.757446934147945700e-02,4.547116963297999359e-02,-2.602819611697193905e-02
-3.237548527649726136e-04,-2.938849437688014973e-02,-9.470882702617942905e-02
8.920884280301147329e-02,8.887043275583902946e-02,-1.282136667799518848e-02
4.388288234940522503e-02,-2.554704184696229841e-02,7.563921073185508881e-02
2.449937624032409375e-02,-6.638767603540972340e-02,2.058803166324127409e-02
3.403294751762134251e-02,4.318819296597971313e-02,7.265521847940050251e-03
-1.893699212367525378e-02,1.273754952382819515e-02,-1.633172018252023253e-02
-4.010139298889150300e-02,2.235779522346868775e-02,2.135968995944506274e-02
1.082200808177664203e-02,-2.771745821981259905e-03,-3.594904296582123598e-02
-4.263198095526265358e-02,5.261306087183666852e-02,4.800163931514229293e-02
-3.816191727066806788e-02,5.154879003369361445e-02,-3.106492579129137228e-05
-4.911224719652421827e-02,-8.104507925246091926e-03,-1.108424000683459060e-02
-7.545934465164749749e-02,-3.592356882554274128e-02,1.993897489476757073e-02
-1.709616859001835895e-02,5.246181868546241633e-02,-3.818014378985765817e-02
3.797013669337013890e-03,4.009456471654462839e-02,-4.778829393804268771e-02
-7.185567862787639419e-03,-4.907716582981744985e-02,2.718471964199811741e-02
-4.260934418435138871e-02,8.239949290221939030e-04,-2.583314500768957994e-02
-1.423250014973712931e-02,-1.966508685590785677e-02,2.791715220566870492e-02
-1.808346701305453205e-02,5.033429232192671715e-02,4.452659494773403281e-02
1.056039500646809362e-02,3.147321227998902543e-02,-3.628387283441598249e-02
-1.448873692072256969e-02,-2.609186505301103187e-02,-3.744958858224952530e-02
-1.497179201644256025e-02,5.833874664409060412e-02,4.006905385881746537e-03
-5.007557925662271814e-02,2.822833939302309136e-02,-1.834603410610151711e-02
-8.847679000606950561e-02,6.891091492868610391e-02,-2.879657060560320697e-02
-4.072363970206122757e-02,-1.493679408093902435e-02,7.545837433230217876e-03
6.134375808051985290e-02,-4.607676152325966556e-02,2.644393610120523291e-02
2.267322223299246889e-02,-1.201601549822276654e-02,-1.317016308632480183e-02
-9.324336912685178558e-02,2.116205878623065098e-02,-3.308087032449321535e-02
-3.817546502702953704e-02,8.898272602643721640e-04,2.930600968689917128e-03
3.659405409405547954e-02,3.051836854704427157e-02,-5.597378918672507586e-02
-3.030712545053198745e-02,4.625153553130614131e-03,-1.904632705950215499e-02
-1.463655764673088729e-02,-3.860365860960394274e-02,-1.143306021450940166e-02
-4.048057425153823476e-03,-1.021076027999481134e-02,-3.711169374830006825e-04
2.170184695047031390e-02,1.140851539070861535e-03,-3.090692090381401413e-02
-4.079799650382349291e-02,1.796403081139773955e-02,7.189208891281840749e-03
-1.973744664014485256e-02,8.868277851228222389e-03,5.092854661604508115e-02
-4.568596023944415663e-02,7.109797987231666894e-02,1.588326613573292495e-02
6.448866750916056045e-02,2.180276302311215039e-02,2.420455783812303432e-02
-8.722018607511202587e-03,1.043840557846247366e-02,-7.266636048952299608e-03
-2.700825212022053834e-02,4.904735728975605918e-02,-2.642079796425719426e-02
-4.567205677599191910e-02,3.109505552460538336e-02,-3.843032091911659925e-02
4.310719962949628031e-02,2.599791121631489857e-02,9.751549256649676145e-02
-3.315575202829793705e-02,-2.126052729560183943e-02,1.586589386946092237e-02
3.304889930718202945e-02,-2.917195899843141003e-03,1.291660629383679579e-02
7.486048729492833509e-02,-2.400858152303567486e-02,-5.673514650500998541e-02
-2.803703980986400890e-02,2.892916452458456703e-02,1.611385343893450076e-02
1.195910948797510032e-02,-1.449705314698784483e-02,-4.886116480883177793e-02
-6.232151851601742953e-02,-6.212061479995242830e-03,-3.910589087853070384e-02
3.928037496731153627e-02,7.673429798568012772e-03,4.535731333899494649e-02
-8.174235512935915104e-02,-3.357010449251889017e-02,-1.452876511099979347e-02
-1.148817067391304757e-02,-4.587997860149568147e-02,-2.101312438564936769e-02
-2.549521168644514404e-02,-2.457905648454798784e-03,2.427115553291046487e-02
1.755224347048740113e-02,1.973592104180091344e-02,3.717643949578713219e-02
1.956503115845847907e-02,2.267589430277299964e-02,4.608587433056579585e-02
-1.896411393678438737e-02,2.996846029196221367e-02,-1.780562223949676628e-02
-8.944921366296765264e-03,-7.758055336122495101e-03,-1.907867904564625617e-03
-3.676289856248435989e-02,-5.571891263440453303e-03,-3.431435561281515230e-04
-1.497818916052057713e-02,-1.423157127189960368e-03,-1.893288367213797133e-02
-2.802267664136083233e-02,-4.069704745972731186e-02,-8.074660679927505788e-03
-4.345360173868070830e-02,2.142842239222188597e-02,-8.799502502447865276e-03
1.831329882893270242e-02,-5.954362676689620854e-02,4.617026731029801739e-02
-2.946933059459389687e-02,3.175903975841899707e-02,3.957613532546405688e-02
-1.945030217286938118e-02,2.334482592192309303e-02,7.692458855990954442e-03
-4.028399879263125372e-02,5.971575768168444626e-02,4.694503322663262646e-02
2.060887768247677762e-02,3.053631769310578142e-02,-2.508440717279548926e-02
-6.146396920358181831e-02,2.702310235049847423e-02,5.384619628563104554e-03
3.752695604040869048e-02,-1.363084210008944606e-02,7.286360609220590180e-03
-6.006471991874249433e-02,3.767615299961740716e-02,3.569202725035135887e-02
9.963836632022408588e-03,-9.005808708274744279e-02,2.007245121519145650e-02
1.038429118674419858e-02,-1.179674736521001410e-01,-1.414217907040331637e-02
5.238737599146103818e-02,-1.145160117523473520e-02,-4.455306828623725041e-02
6.183283153081878258e-02,-9.479441404938827387e-04,1.063518759736807769e-02
5.255926380577954915e-02,-2.407036666652863366e-02,4.442987208048199826e-02
5.918787312227515029e-02,8.910545132215843059e-03,-1.506989392598200375e-02
1.690499677987221741e-02,2.504989561485737246e-02,-4.590997143531741487e-03
1.533825842548691004e-02,-3.839103834330456072e-02,1.985893577034928206e-02
-5.207028203613434103e-02,1.380050302264148460e-02,4.170163684604156346e-02
2.975019681833481963e-02,1.305491705643127207e-02,-1.144824802504035462e-02
8.864393094811835391e-03,-3.459649024320341631e-02,-4.589196865878808484e-02
4.009581640847287298e-02,-3.271370642652745436e-02,-2.368639180928685736e-02
3.290068935298944702e-02,-2.460617719197678529e-04,1.798129985891279425e-02
-2.055352681677437288e-02,-1.936171790702857082e-02,-3.995767866466282126e-02
1.746163576164054890e-02,5.579317814165778155e-02,1.691824173615420757e-02
4.723334424378781288e-02,7.784956828415851016e-02,-7.626045000185727174e-02
-2.300761855912951057e-02,1.615296752473763947e-02,3.442843719438956618e-02
-7.367608239446752673e-03,5.789722199675409464e-02,-4.473725721340726658e-02
-1.757726237098081873e-02,1.738383905402702059e-02,1.108151364201099241e-02
-4.062616336440448561e-02,-9.361485683201849206e-02,-7.469480780829614031e-02
-5.771116897725856593e-02,4.122416708794449103e-02,-6.000411706337181045e-02
-3.150827531101563217e-02,-5.741046144566555598e-02,-1.240191530904137182e-02
-4.337084437182897600e-02,4.238548790024748020e-02,-5.007000849997601116e-02
1.114419397538815625e-03,1.001444587445245449e-01,6.552554349325009908e-02
5.399387926438202479e-02,-1.534410767928397201e-02,-4.689301860173496900e-02
1.086303783913240877e-04,-5.073309307428586212e-02,1.219667604142134773e-03
-1.072640524162849288e-02,1.135862128312269473e-02,1.972561798566134852e-02
1.422820591229833134e-02,-7.930874044482835034e-03,-6.932683454319665817e-02
3.401557307819189080e-02,5.958144599022240084e-02,-4.061219030050263606e-02
4.555822511768157362e-02,5.233294755455479563e-02,-3.481286040274995247e-02
-7.042063354151621712e-02,8.977333340306276055e-02,-1.114547942099495051e-02
-1.466432224185681109e-02,-7.321198495341754708e-02,1.335343228971849483e-01
-4.635352728181587473e-02,-3.323732144266477312e-02,6.203991296171704195e-03
-1.806749233395541464e-03,2.731041504359616942e-02,2.969951257320937316e-02
-1.051600211698992815e-02,-4.476280421996105610e-03,6.980653463417761662e-02
3.976350247603362836e-02,-1.806112819738449338e-02,2.285777982365931257e-02
-1.990722443431514055e-02,4.967399284831890832e-02,-5.992481280142178401e-02
3.924050157527220650e-04,6.333970552908740892e-03,3.308711372268195033e-02
-8.112765821194042881e-02,-5.048461697985012764e-02,-4.785786097698026265e-02
1.307751576486084963e-02,-5.887074133271824085e-03,5.894913397103412195e-02
5.358906472420948974e-02,-3.674830578030548883e-02,-1.619346810339127030e-02
-5.593286884530679348e-02,-2.958184444747527508e-02,5.887296602236634022e-03
2.590828561142867470e-02,3.121093262663780094e-02,9.491780028226566579e-02
-6.139356107210774439e-03,1.415629439445099599e-02,-4.115319261463495915e-02
4.598320406034411140e-02,2.488302223041109068e-02,-8.534530643628031321e-02
3.184831445214099388e-02,-3.257096155425023842e-02,-1.344858474775276723e-02
4.167245791467676097e-02,2.276302180027631183e-02,-4.645750749726023504e-02
7.226688714212045617e-02,2.600075889022080908e-02,4.176764745846371640e-02
-7.767925257145240348e-02,1.804133277051612333e-02,-3.364020423600373039e-02
3.471440694484489997e-02,6.910775909911870754e-03,-3.553021195314728931e-02
-2.383774635729106472e-02,6.956536971313166673e-02,-7.828775430014792147e-02
1.108786812248926078e-02,8.057931440130329526e-02,5.699686215642790765e-03
3.723486620057513130e-02,-1.476517061084394421e-02,-5.789524488235301553e-02
-1.020359972306678943e-02,-1.322939331703470653e-02,-1.394364342605930798e-02
-2.882537949498258437e-02,3.915785235575587435e-03,-3.340080319951235777e-02
6.511055217497062862e-03,-3.357588303717422284e-02,2.479961870006178876e-02
3.068141641188429705e-02,3.927834875341477960e-03,2.570770138046592213e-02
1.736601696147205276e-02,2.754459912413317110e-03,-2.670252918419633442e-02
2.852003848003176016e-03,5.189754699079159733e-02,-7.887518011287729044e-03
3.553402583430175649e-02,-5.334352095071877992e-02,-5.077181065258062204e-02
2.537375278901486328e-02,-5.365533659981017861e-02,-3.458035925563917538e-03
-6.392616799417651097e-02,-3.196977351199838807e-02,1.739170466477583249e-02
-6.985356197326783242e-03,-2.665524206802673268e-02,-2.078645235029673646e-02
-4.991826895137604914e-02,3.219963770379004678e-03,5.263480746976930552e-02
5.188429670597091009e-02,3.302343899411563140e-03,-4.777650189852761242e-02
-1.575612413689265676e-02,1.376696861822696363e-02,-8.426226470888600883e-02
1.177655336221714553e-02,4.000531197725863339e-03,-4.849024312341383702e-02
-1.047972977011031245e-02,5.610119163188234670e-02,3.305244741448588874e-02
3.600972576763546238e-03,-1.764265797851830020e-02,2.968104690947787755e-02
1.631365487775564976e-02,2.570413360208829295e-02,-4.775503788143876938e-02
2.839348421099331318e-02,-6.924010000332145309e-02,-4.030353750008747876e-02
4.560770460601616325e-03,-4.326721282343204411e-02,-4.244554478733500447e-02
1.052931629215376206e-03,-4.340516377260336678e-02,-3.178114706789822441e-02
-5.317655369571473375e-03,-7.448528231872688851e-03,2.574310609455450830e-02
-3.772710802749875553e-02,6.760823352467534852e-02,-1.203614595052282001e-02
5.845851275617771660e-03,1.776487875193896379e-02,4.524138082813124878e-02
-1.056889298299773516e-02,1.861526824058729740e-02,-5.120166203725533965e-02
-3.223318780066637690e-02,-3.454010126011662629e-02,1.468171520876506396e-02
-6.678170405100446183e-02,1.775890679591343724e-02,1.255933445788914686e-02
1.030810308294761481e-02,-4.893100540260169468e-02,5.739585696455211383e-02
-1.735995308245396815e-02,3.240786553482582349e-02,-3.775729066400229303e-03
-3.690983477144842411e-03,1.213645354090046868e-02,6.068544012305131241e-02
7.863501964720395754e-03,-2.808068126971761252e-02,-8.476764107214070088e-02
-7.222779632919454351e-02,1.571281908371632841e-02,4.057591490623650016e-02
-2.030390711026996368e-03,-4.436820946723878285e-03,2.213002689471865736e-02
2.140127764723186513e-02,-2.525031495211300936e-02,-2.401609385139399228e-02
-4.161236238495252641e-03,2.901634783226503256e-02,-2.909664673057761608e-02
-6.987546212541735635e-02,-1.516166211393036277e-02,-2.103696759562519517e-02
-8.770972746562839817e-02,5.797002890121406155e-02,7.343122414756879379e-02
6.170541547145801803e-02,-1.237842853354607919e-02,-6.207406829369058882e-02
1.249663099999125115e-02,-9.372598149063165671e-03,5.953069348706165748e-02
4.177576670347760146e-02,-7.775175177360204269e-03,2.699935461654419389e-02
-3.614859497889921346e-03,-4.490777588677385274e-02,3.559802308987258801e-02
2.845596267722723741e-02,6.740745051263366842e-04,-2.020575657231470437e-02
2.498991977132992981e-02,-9.166847781939974071e-02,5.743577753824547633e-02
1.088654843326475590e-03,-6.379776195327625798e-02,-1.723861626710832678e-02
-1.421067970479129167e-02,-2.320631338906419330e-02,1.203713326334130210e-03
-4.943499490690241027e-02,-2.822182351362450973e-04,3.296933395141906503e-02
-1.567667485054020926e-02,-5.351004666637129009e-02,2.078429624479378058e-03
1.605387106691799626e-02,-2.241823345477391045e-03,2.030886999148888775e-02
1.925865700837543510e-03,8.729799158312566421e-02,-2.292944811260286264e-02
-1.760183388905399784e-02,-7.476155792768565678e-02,6.059102127214025663e-02
-5.590138635807405387e-02,1.499371224478946753e-02,1.516472701164597869e-02
-6.337655126406725736e-02,-4.956686199705283985e-02,-2.175564143677358869e-02
2.139447223388063739e-03,5.601688383118825360e-03,-1.642846921576161193e-03
3.419183606367228595e-02,-1.647159696941965113e-03,-7.575629452068408098e-02
5.915489362716724875e-02,-4.046440351911425454e-02,-4.110598143271150182e-03
-1.750444582777970631e-02,2.544284326969273313e-02,6.339079539236615324e-02
-4.295990094317855834e-02,2.464176580152009979e-02,1.904820507120087453e-03
6.716793500921090787e-02,-3.518667773130380177e-02,-3.101959239739522645e-02
-1.283371116822854853e-02,1.596926066196462449e-02,-1.720101691459616916e-02
-1.215663110911457609e-02,-1.383676556698574915e-02,-6.927384863229360578e-04
6.917549520436395635e-03,1.549639012043830220e-02,-2.109882444615052231e-03
4.056811229403476521e-02,3.454459613229721865e-02,2.034965707760116177e-02
2.371139338767646459e-02,2.541338538989213955e-02,-6.789072346223455623e-02
-7.942139534391527700e-02,-2.839891573579330156e-02,1.416519969518410804e-02
-5.026559790420022378e-02,-2.431943875794612131e-02,-1.366731564112070967e-02
-2.867155859509498694e-02,4.349957783432231023e-02,7.928624564829666113e-03
-2.339892036282417015e-02,-1.100081798283563100e-03,4.540609442035889454e-02
-7.553896521554888388e-02,3.484256364780874155e-03,-4.392514121297229346e-02
1.114071905872094335e-02,-5.748885122668799183e-03,1.215713737160274525e-02
2.346696169601472995e-02,5.035216829705151803e-02,-6.232605616046503483e-02
-5.531422322440440048e-02,5.705435621569486526e-02,-6.562577415157923311e-02
2.048730565588585684e-02,9.087580572828821146e-02,-5.843951527833982779e-02
2.134568660775153920e-02,-3.234385829769607923e-02,-7.200079882865163816e-02
-3.746527876167845411e-02,-1.937735169933596166e-02,-6.026076895353757457e-02
-1.902216317721293001e-02,-2.361340989730972145e-02,-5.512535442263687135e-02
-1.373386681881535662e-02,-2.302062465723277336e-03,-6.923402527092492598e-02
8.623909096321771828e-02,-6.155433690592972129e-02,-6.793097923596664103e-03
1.029054850713227373e-02,2.162155075849119673e-02,-4.287197493768197393e-02
1.647446728012681369e-02,-5.125017675684558592e-03,-1.116357209745750916e-02
2.413567422585936526e-02,3.240734367516150127e-02,-3.096536263364519509e-02
1.818635815968342947e-04,-3.913068537452634062e-03,3.710091606361800437e-02
-9.617223302385385919e-02,-2.500033255322973991e-02,-1.501975219924642918e-02
1.248766111117165407e-02,2.650801408583716712e-02,-7.827117024077333285e-02
5.551440157260829206e-02,-6.486546432080592117e-02,7.583265118090659618e-02
8.430814136110262313e-02,-2.879830137894972240e-03,-4.145321297477819189e-02
-9.726431427211303105e-02,-6.126997519255780733e-02,6.741173118488641425e-02
1.204383542992555449e-02,-2.314649187380761128e-02,-1.457549436116939434e-02
-5.897481738980658861e-02,-1.766375720014100661e-02,9.061438552542333547e-02
1.481251347197276580e-02,4.711643447333495327e-02,-6.365450777432045751e-03
1.533431520301456984e-02,4.565655114429264388e-02,6.777126847268337417e-02
-5.885942176584328667e-02,-1.143652244515378988e-02,-7.612819544143414885e-02
7.337543316653569007e-03,-3.937488720402575887e-02,5.044124661402174525e-02
-3.883225438036350119e-02,-3.528569748967307768e-02,-2.215549199559180282e-02
-3.005779986663695714e-03,1.053518621827020524e-01,-4.617122752649312212e-02
1.926287670170892183e-02,3.714650833565200701e-03,-3.203094555840328705e-02
3.309771031376954834e-03,1.248372578066543614e-02,-2.343769037287856891e-02
-2.343578850050399842e-02,-6.646839780979255097e-02,-5.786963255015187962e-02
1.599071123823347582e-02,3.287165014823248410e-02,3.822872435499143073e-02
-5.276194703635674055e-02,-1.570703746366344106e-02,-6.782096386992311765e-02
-3.689166565898021471e-02,2.948465354459849086e-02,-4.662645038286496874e-02
1.515531774203856489e-03,-1.450810558502598976e-02,-4.473392999813288057e-02
8.050033836059693193e-02,9.541930762554438547e-03,4.041520819767396855e-02
2.630879718277059562e-02,6.189423385821141849e-02,-3.936636650218962308e-02
2.709632236730466492e-02,-4.568080288290107122e-02,-5.619866877082943871e-03
-3.918677151867468178e-02,1.320048907637484496e-02,-4.024032387289907392e-02
2.563281903686470426e-03,-1.449456758875357874e-02,4.237509293148778236e-03
8.454131272003168399e-04,-3.371897074482269052e-02,4.906688437794142627e-02
3.297548356636677280e-02,1.037117768158828945e-01,3.755690357545792696e-02
-3.437636602314799589e-02,3.634014989608403551e-02,-1.719354969425084673e-02
-2.043242834289911783e-02,-1.825483120138788468e-02,-6.292061194519590894e-02
2.025581474959875852e-02,-2.436432856474242056e-02,2.652264772833229714e-02
-1.103595819896239410e-03,-2.876871809024586849e-02,-2.275241589519095067e-02
-3.415144928716873753e-04,9.051794557270306796e-02,2.705765134507608083e-02
-1.688089685376139432e-02,-2.194623755706692422e-02,2.468251219189753452e-03
5.758769196894948650e-02,1.935616181422314050e-02,-3.418651401283123031e-02
1.544365590451165018e-02,-2.988692495164733606e-02,1.006392462571773991e-02
5.582959205699946498e-02,-1.299316495612003013e-02,-2.402016705583037703e-02
-2.082285792590022125e-02,-6.160825290890730582e-02,-9.862504697051261565e-03
3.565152617205266314e-03,-4.066346431619269168e-03,-3.981126090304583365e-02
-7.402730883176325549e-02,-3.995565362171375062e-02,7.353599283639639106e-02
4.758293598346190895e-02,7.553778225429130799e-02,9.093081063625597232e-03
1.228231125734021746e-02,1.542991505678025649e-02,3.865008121094793553e-02
4.124943395466398183e-02,7.905755877201492421e-02,-1.050513658464221761e-01
1.726163290114967816e-02,2.187978230295670873e-02,3.110867518229424884e-03
-3.325901796479441980e-02,-1.340361463342984102e-02,-4.209364283888003544e-02
2.733296998523895502e-02,-3.527381623015587997e-02,4.035278188588328763e-03
-7.894348773356674176e-02,-1.220026770666334838e-02,-1.053406715288657258e-02
4.243788005802200114e-02,-9.417518120865989162e-02,-1.954735907725631272e-02
-6.232524747227131262e-02,-5.456817845327313621e-02,-9.245409224587190777e-02
1.440465151792778321e-02,-2.457501166624240577e-02,4.100870635477146114e-02
5.545282021737431288e-02,1.900372326303851819e-02,-2.674700316858917570e-02
-1.262859965839760457e-02,8.879217728129615295e-02,-9.125846120234241965e-02
2.537218129795953611e-02,-2.734441859362069654e-02,-7.152380191265718390e-02
1.820785551752128473e-02,1.858502068778706065e-02,6.196726927423686082e-02
-4.430991103757919020e-02,3.645562523338793243e-02,-4.577977204330155314e-02
1.196753744206090686e-03,-2.447227032852565196e-02,-7.188752015231804349e-02
9.124352759025955439e-02,1.347298885211280391e-02,1.008308237706651532e-02
-1.092330733996066741e-02,-4.490426814571219644e-02,-6.039853955886815423e-02
2.345946025220270546e-03,-2.012792620463440402e-02,3.470109060391028677e-02
-7.217799049322122518e-02,9.961979409021794185e-02,-5.932584394067665773e-02
-2.531459640366207423e-02,-4.206672810509021719e-03,6.577698488290475987e-02
-2.248435246888126279e-02,8.845704689158172263e-02,5.732101924154778608e-04
-4.228983196082360813e-02,-4.732620224491830563e-02,-3.211058833106224253e-02
-1.958100361301420844e-02,6.993658891493987825e-03,5.918920492726712987e-03
-5.158129791097123412e-02,-6.080780939075167146e-02,-3.865250037578774056e-02
-9.387110876271413662e-03,1.011909066799354315e-02,-7.428506375552108854e-02
4.252916666985272209e-02,-6.276554593290607775e-02,7.118502791853568989e-02
-7.979604620636274181e-02,-2.788676247937903543e-02,3.384637749530078430e-03
-1.988355608003029851e-02,-3.428909974354422269e-02,-2.927797865182483680e-02
-2.475505510724488462e-02,2.180100539058329664e-02,4.757376563581961273e-03
-1.842123619088295930e-02,1.841606142294021156e-02,1.208530072843950164e-02
1.918148037608952833e-02,9.738497116289095146e-03,6.134216407794587655e-02
-1.364775465795794659e-02,2.038302643046308732e-02,-9.139934386822668247e-03
-3.144830219192044918e-02,5.565053918544254907e-02,-3.816571368465401792e-02
4.309045960393032698e-02,4.391297721141964455e-02,-7.686327654160938702e-03
-9.703115663712286523e-03,2.138898994780427318e-02,5.046932724044232016e-02
-3.399618836488750573e-02,-2.677418320447443739e-02,-1.463458161574652389e-02
-3.500286329309754141e-02,4.471551275885473492e-02,-6.563316775168655422e-03
4.125564782232044730e-02,8.146495043211708642e-02,-5.607306211769178678e-02
-1.334917559938998514e-02,-6.218777026962354210e-02,3.781889046663527727e-03
2.417835056048393827e-02,4.945356563290721069e-02,1.136492629743783740e-02
2.588142322659430644e-02,2.936983003625616082e-02,4.863355855065908465e-03
-4.430537915254523229e-02,-2.233575541767428632e-02,9.802445596287599067e-03
4.442810071192548199e-02,1.655540725469550195e-02,4.669743388269508716e-02
-2.420814791476408670e-02,-1.265441908928969551e-02,7.046923087095069427e-02
2.801347770055963998e-02,8.534478731030924192e-02,2.234640327199467411e-02
1.589612135934097628e-02,-2.888337617524101147e-02,-6.685322073742518134e-02
-2.272719831528182549e-02,1.806058436851776250e-02,1.691692395986658243e-02
-6.771874516571037284e-02,-7.637818149405917190e-02,-4.266383286651896645e-02
4.006879686774237476e-02,-3.740688589116059753e-02,-5.493693978376754800e-02
-1.093769117919300565e-01,4.950437674126266334e-03,4.901261822712613819e-02
-9.344338147708751430e-02,1.505485372878784429e-02,1.132830663830636658e-01
1.607528718668841533e-02,2.801614443819352290e-02,-1.405217795667429437e-01
-2.946797741958397457e-02,4.079381707443399847e-03,-2.071631705470074539e-02
-4.639802404285328641e-02,3.128319608378073158e-02,-1.880378539405552774e-02
-8.190306087205975749e-02,-7.179924067958415659e-04,3.660679819492596715e-02
-1.353818801290085708e-02,5.869557276986062111e-02,-5.793643687866226015e-03
1.766810865925947174e-02,9.004602929165285430e-02,3.369426599458526933e-02
-1.353482361242290197e-02,5.260932118511084388e-02,2.487376623280811508e-02
-8.570747635978648304e-02,2.352019339192368622e-02,-7.366502780013370333e-02
-2.171175884565445732e-02,-4.063366964394889841e-02,5.405852079640375424e-02
-1.358930172025969154e-03,1.183520076886600617e-02,-3.288245535431232047e-02
7.894997053425868716e-02,3.155658251587207391e-02,5.678849719815284858e-02
-1.108824116016367267e-01,-3.116623760594958159e-02,-2.096479997414724128e-02
1.872235122780845432e-02,7.076004855615120048e-02,-2.079415101540999303e-02
3.660946611832986697e-02,4.732794131340480048e-02,-5.789546050782510417e-02
-1.664539340237946100e-02,-6.978657130205608017e-02,5.175004289581897760e-02
1.133455507073218536e-02,-1.920621154410877968e-02,5.975392888768691485e-02
-1.481801714457482017e-02,3.130178281404669138e-02,-7.738654277883077852e-03
6.547881170476817225e-02,5.464754796491919087e-02,1.261821254008599867e-02
1.308962312995219125e-02,-1.859483547994735322e-02,-1.638956511764650195e-02
4.413613696975719758e-02,-3.948951379201830203e-02,-6.902620275873858069e-02
6.711178482460020134e-02,4.600852766035601164e-03,2.834614690250265856e-02
-4.699992523672107819e-02,3.664525131854901030e-02,-2.012524572889322697e-02
-1.993766374143215309e-02,-1.521891566846247240e-02,-3.239655645763497849e-02
3.925316942670364212e-02,-3.532950008357111510e-02,-6.884121461172875052e-03
3.655004430210605226e-02,1.666304750512958774e-02,2.161883303986759930e-02
2.022692599120247316e-03,-1.996350357467679970e-02,4.564017433549415886e-02
4.601061563761783824e-02,1.172284714672595062e-02,-7.047955920850922096e-02
1.192200852853449004e-02,-4.890148505999341449e-02,-1.391159256484354734e-02
-1.557645165671471890e-02,9.122607092454108196e-03,8.369775609414485673e-02
8.314196163186633303e-04,3.632036550489282922e-02,1.608990094890222836e-02
2.281636481237352826e-02,1.137367135799102237e-02,2.891760928935827035e-02
1.129910835227817545e-01,-1.614819315033469774e-02,2.941845192280925780e-02
-1.946445903653732344e-03,-1.931207494691416365e-02,4.148123203673477477e-02
3.174754205147633374e-02,-2.602762694910653457e-02,-8.524979419177448892e-02
1.044908027242196467e-02,-5.295320158332563268e-03,4.385526857392640920e-02
4.598326810939409284e-04,-2.112114756931036605e-02,-1.155898807407627384e-02
-1.883038022993036714e-02,-8.137246077750187601e-02,-3.491250131340951218e-02
-2.213703896260606208e-02,2.206147397123509393e-02,5.360157150279819954e-02
3.002901349562293529e-02,-8.037136299840409075e-04,-3.670440798395710469e-02
1.250548519504475140e-02,4.598981473557789412e-02,6.837242806465490194e-03
-9.127361226918024803e-03,2.767001971947921288e-02,-3.586717959184690385e-02
1.618376008727689594e-02,1.955298904998354747e-03,3.453272579279598187e-02
4.077492606927125840e-02,2.968921831999937061e-03,-4.920355423360318198e-02
-2.078572676246424195e-02,-1.224921724772776027e-01,2.075531120536770052e-02
1.452630872593241697e-03,-6.220812018896768741e-02,-4.765079728455764649e-03
-4.719647721726107081e-02,9.986406952387160210e-03,4.212624963834271652e-02
5.661084641380387424e-03,4.550382220682217677e-02,-2.047150603116448808e-02
5.124889796639517034e-03,-1.698671329947488637e-02,7.633225112189624337e-03
-3.563246856092625037e-02,-7.416520829735204212e-02,1.944762800471174641e-02
2.201001687264206308e-02,8.479628729839500806e-03,-5.548529816028704986e-02
-1.982836191993647516e-03,7.437430046823282313e-03,2.689417110334017813e-02
1.545689452833422716e-03,-3.486589863011457791e-02,1.241980928770624812e-02
-6.178041201713546648e-02,-2.148805080126510794e-02,5.186585796502578283e-02
9.598864517191500745e-02,-4.508489965827323920e-02,2.980231146192595382e-02
-2.209598578089975096e-05,8.057386242043490521e-02,2.748572519317666468e-02
2.184557339030190198e-02,3.646125586487860420e-02,-3.140738710347053958e-02
7.880401455370410202e-02,-3.482720620742654760e-02,-7.920012778043335200e-03
3.928629157310321342e-03,1.417168349105731896e-02,3.306914747621570328e-03
-5.947727787355760326e-02,6.253546513083169112e-02,1.268809901717598589e-02
-1.008802228576969884e-01,3.507274508664508933e-02,1.123834289387179303e-01
-7.037523065462292443e-04,3.109491187011668295e-02,-2.757482838067924422e-02
1.096347357601458322e-01,8.380932125776880889e-03,-8.776756131686221096e-03
1.093611440511233976e-02,3.552676917674089246e-02,-6.685822427221441502e-03
-2.423897305316923337e-02,-7.754410985405547733e-03,3.869329608133109666e-02
-1.921505338896107792e-02,3.630215753254702887e-02,-2.842399908559414823e-02
-5.091880537454773412e-03,-8.906875417185934618e-02,1.565470743499576545e-02
-4.332548605277590503e-02,3.063538779071740131e-02,-5.191874093844824067e-02
-2.491173171319633565e-03,3.823691673189025253e-02,-3.166300570116366980e-02
-4.275634583699147034e-02,3.124809270093550223e-02,-6.642017802073661888e-03
-9.865599250839587886e-02,-5.183164534457587042e-02,-8.446881361296856849e-02
2.990068018634615792e-03,-4.719432267365698819e-02,3.864393564818852100e-02
-6.579899307856577418e-04,3.539171760550685608e-02,-3.579347049520885393e-02
-3.315775387912675565e-02,3.203132733358488027e-02,1.102877585912314523e-02
-4.215487311782362828e-02,3.509789276577595599e-03,4.917707339681486739e-02
-7.342913062691341225e-03,-4.361787327546320925e-02,-3.381664221892428240e-02
-1.066444047344410409e-02,-2.975106450895457014e-02,3.546868604435034211e-02
1.479827479160283725e-02,-1.136747305407598448e-02,-6.498555875738586118e-02
-3.789594291194452874e-02,1.839312520115236188e-02,7.067828089293883009e-02
-5.868834168313703109e-02,-7.162188448512793459e-02,-7.215894481425631779e-02
3.619104845946546911e-02,-1.360604651575125432e-02,-1.372485988322237616e-02
-7.323360432770222549e-03,3.461104096213611647e-02,-1.910805940739908684e-02
2.704553645928219757e-02,1.340659171606460587e-02,5.399429848758915962e-02
-5.875359574735986370e-03,1.133552520645056405e-01,3.626891683369712349e-02
3.154285707062783051e-02,-4.381797997312968096e-02,-2.058239722117227374e-02
3.768592818073140775e-03,-1.730876073832037648e-02,3.165507095460565190e-02
5.994156738258787226e-02,-8.824207166013033066e-02,-1.675846540407169294e-02
-5.306986377173079916e-02,-1.193109693947819839e-04,-7.974223450015358039e-02
-6.527234329956675685e-02,-7.997570476233836073e-03,2.035938829811130210e-02
5.443672247336944769e-02,1.899456336359523628e-02,-2.937382184668106862e-03
-7.342942885897935090e-02,2.705476723444429077e-02,-4.559242464589261662e-02
3.696537174577044921e-02,4.032896693171523356e-02,-2.101756828465319374e-02
4.350354324434864417e-02,-1.930340929842771364e-02,-4.292785695692968168e-02
-4.923318834438310948e-02,1.555683261333453381e-02,8.832134005055744530e-02
2.242868600246576000e-02,-7.979246201588940587e-03,5.334842144977695877e-02
1.978583122405887934e-02,1.945951511480458612e-02,5.734430182035228640e-02
-1.424699218099091712e-03,-4.038318990306385969e-02,4.201016338231684799e-02
6.239977679768735075e-02,-1.291702928441728314e-02,2.410296666582496111e-02
-2.459953543440175291e-02,1.794800833213811009e-02,-8.394283883852209083e-03
1.674463385667328275e-02,-7.144601597731718712e-03,-3.497285821562924613e-02
6.706950696445165838e-02,6.066307400026112184e-02,-4.955004492766605650e-02
1.848442078989297535e-02,5.145891217389243766e-02,-3.120301057180758196e-03
-6.756937535554987696e-03,9.495629683640755339e-03,-1.506069571456487149e-02
7.271696578993100402e-02,-4.345939989249275430e-03,1.016956055558051186e-01
8.067200626054418441e-03,1.392708442878311248e-02,2.634742864668669637e-02
-2.459396600782491615e-02,-3.406189382557574252e-02,3.267295732426787891e-02
1.546326082757567243e-02,4.379437404154814389e-02,-1.184275410774317944e-02
1.909410823570201893e-02,5.365359254787847171e-02,-1.448886912718285458e-01
-7.335880364807393847e-03,1.693821236236262712e-02,8.753173760798501832e-03
-5.757195693476602899e-02,5.896727183650158494e-03,1.375847858436405995e-02
-2.622633621592395867e-02,1.399224326088097624e-02,5.976382151051452124e-02
-1.356506362392423046e-02,-4.291416891639913966e-02,2.304516987914930967e-02
1.985485794396779635e-02,9.337622376232338969e-03,-3.177565288767665586e-02
-1.836076650469469981e-02,2.155137103681184843e-02,8.060299290014803775e-03
-3.750111683376290868e-03,-1.157861112264409013e-02,5.548065906632471816e-02
-2.398123951899948370e-02,-1.506710233603871830e-02,-5.566455348804979358e-02
-1.108197163469560589e-03,-2.563177737619859800e-02,5.000064041553679145e-02
-1.986184732142287288e-02,-5.315678732279375922e-03,-7.288556264063794643e-02
6.629548123309358942e-02,7.265853102986132711e-05,1.727439986800545155e-02
1.033641338345733796e-02,-2.341859268523204321e-02,-8.980926950483056337e-02
7.630768711480367950e-02,4.164687172604410181e-02,-2.421816780644993686e-02
-4.015672944340770850e-02,2.907585469096586259e-02,-7.092088478180592903e-02
-2.442659292157562181e-02,-6.105119114244410283e-02,-7.046133061962571789e-03
1.214693262759790251e-03,2.619887092387376132e-02,-2.778947381768414812e-02
-1.824575935270388374e-02,5.038223972892307001e-02,3.030682000974121992e-02
-1.203680264707528841e-02,2.114030640233398664e-02,4.142082093448108682e-02
4.632878274458580858e-03,1.425800359126629634e-02,1.420686683190741824e-02
4.740633999674206261e-02,3.816837569236750105e-02,-4.224914356315177810e-02
-5.584039758256974240e-02,-9.070127269755071456e-03,-1.104357181402771358e-02
4.248402071922561954e-04,-1.787542525478185221e-02,-1.969789380236567841e-02
2.917662006004689487e-02,-8.914197732354768523e-05,-1.002867622344991681e-02
6.396182127066999540e-03,-1.597379948311569708e-02,-2.368190677023207513e-03
1.896158558900606222e-02,-4.900132522579405542e-02,-2.352247551320554506e-02
-5.617656607377098654e-02,-4.905610810882073645e-03,-1.696359654521587337e-02
-3.514550780539417354e-03,-3.019918656616979447e-02,2.050120123863195809e-02
7.876741001396860009e-02,-3.169027690439293020e-03,3.357890190486139542e-02
4.729586715830295246e-03,5.283468018310492204e-02,-5.263351323407609167e-02
3.824014728459106810e-02,-2.632940454769549382e-02,-2.840676733566606035e-02
-3.096827208167393652e-02,7.384548939311440588e-03,4.096307684413255656e-02
-4.447462011320978820e-02,2.195898642279191931e-02,-2.453301546504174126e-03
2.315625650545384464e-03,3.127859111800938147e-02,-5.322719866523763221e-02
-3.710195315890817830e-02,8.009775167168074750e-03,-6.563204694362523295e-02
-3.879009591922942535e-02,1.395898745110500834e-02,4.497597749343301005e-02
-1.438562952553934515e-02,2.665407084579153249e-02,2.342829338999216984e-02
-2.451274514281154976e-02,-3.584726551319464272e-02,-5.845942186245789429e-02
3.468761369267048950e-02,-3.117713039778111442e-02,9.244475293267737093e-02
-2.000672500308848731e-02,-1.340084227502595302e-02,-5.630984711710670942e-02
-6.395680465487764421e-02,-9.748811237649672098e-03,-3.163739468177070857e-02
1.185958171219123752e-02,4.443131207646720793e-04,1.044743795334417136e-02
-1.601994541519394244e-02,-4.781382021345321337e-02,-3.486265511608235140e-02
-4.353178982286130816e-02,1.283913880135323371e-02,3.444305413920937392e-02
-3.358582827931060055e-02,-6.829529596626486565e-02,-2.766452120927076833e-02
4.044271049011423369e-02,-8.993328118281673778e-02,7.176594298349853185e-03
8.391544934112479814e-02,5.542306590323584775e-02,-2.203788026631436567e-02
-2.331593188520889037e-02,-5.647801082496010233e-02,4.965593563859810322e-02
-9.474996066127990002e-02,1.062270527869808509e-02,2.159236023505938656e-02
3.975187791431845225e-02,-7.115080695842528058e-02,2.061531248727095905e-03
8.485016226974924705e-03,-7.686089644593875787e-03,8.778532464800883894e-02
-8.212195106437680109e-03,2.728768565514739369e-02,-5.046445504169844165e-02
6.858373005012372015e-02,-4.781054452543408856e-02,-1.279018936027861292e-02
1.800003947496465334e-02,2.283393664054843633e-02,-2.076010966868533508e-02
4.024389933597486389e-03,-2.407355351392392873e-02,-5.970767312520344761e-02
1.617036596760327780e-02,-6.291978900783340434e-03,5.813648527773994032e-03
-5.272197651027205750e-02,4.727857308930645541e-02,2.599717109754415278e-02
6.863455694176024899e-03,2.211427378245966677e-02,1.686975104160838221e-02
-3.849836061023895195e-02,-2.574291241668343749e-02,-1.007599345492458942e-02
5.170003537565694834e-02,-2.735985125879381030e-02,-5.446711830220338224e-02
-5.774879857461191063e-02,1.663485275849713521e-02,-2.986634847828585626e-02
-7.909659640304712858e-02,1.246509366455294046e-02,-1.035761249246093356e-02
9.242774320148801825e-04,2.257906340857656485e-02,5.220841011063036274e-02
3.648581260867553994e-02,-6.787637823975177509e-02,-2.796866783858326100e-02
7.821222494275446857e-02,-1.030018221511116647e-02,5.110156237511364989e-03
6.990637396153051575e-02,5.342925219877044107e-02,-4.211149071424168805e-02
-2.506236704889603512e-02,-7.015387632668009660e-03,3.097264397576516073e-02
-1.327001937559440896e-02,1.233036763345538196e-02,1.070731847748294802e-01
-2.886798035959728045e-02,-8.421753379749961910e-02,-1.211639522018597218e-02
-2.838590764526101318e-02,-3.481242243329558256e-02,-3.975516837923456087e-02
-4.048032789151060490e-02,6.686477167241593189e-02,-1.396356224300761111e-02
3.172274519957365285e-02,6.137659243543760329e-02,-3.926355502589062851e-02
-1.509145644170773945e-02,6.375330080627465701e-02,2.990243065121170329e-02
4.003701736802401517e-02,7.255311213464910036e-02,-1.160876663096848185e-02
-4.243127169489339240e-02,8.760101671353907882e-02,6.496031256077587634e-02
-1.546578571156104025e-02,-8.102722127142468478e-02,1.896223530494670073e-02
3.281307829091509309e-02,-9.025832170293644763e-03,-7.306692424913502348e-02
1.925285038234878648e-02,-2.374505239952338573e-02,-5.620448651844229399e-02
-2.331950824416067006e-02,-1.011860948393313170e-01,-4.991383990458588688e-02
-6.246637010474469925e-02,8.516341436296299625e-03,8.492688633946651744e-02
1.362319970917952316e-02,7.871907280253401251e-03,6.943426822301754231e-02
-6.232753418073182922e-02,8.462222332518488932e-02,1.492014472965394641e-02
-5.819310229160512028e-03,2.749384346587901984e-02,2.035118794076603427e-02
-2.833464051860243998e-02,-2.620925236911699971e-02,-2.043980978926820263e-02
-6.074664517560906390e-02,4.894115135444934706e-02,5.761170469484431372e-02
4.256064534111930406e-03,-1.438531466567294533e-02,3.363900655976641979e-02
-8.755205566516024995e-02,-5.903642470057161862e-02,-6.821222641614038684e-02
1.224109906162539757e-02,5.818480277773896425e-02,9.120660755218444604e-02
2.042631721498914740e-02,8.337347844214386405e-02,-6.277114670852795841e-02
2.643584141216602512e-02,-4.046890079934337831e-02,2.866258346947873556e-02
-1.000486681137319200e-01,7.940321288730553106e-04,-6.803538771852594459e-03
2.743232318862944344e-02,-5.142410259826835778e-02,5.931432959305345601e-03
4.791982976574692826e-02,-5.611146285200900585e-02,6.352687415006051663e-02
-4.434324825080439639e-03,-9.730219443187231726e-03,-1.286093677972247398e-02
7.430739200246131750e-03,5.449972211645813525e-02,6.215598384320271050e-03
-1.763641884224305401e-02,-1.856700838139822146e-02,9.702623205008344132e-02
-5.237771232141705258e-02,5.005170901841931447e-02,-7.845294518003646800e-02
-5.822870427083328554e-02,-5.753229883361572067e-02,5.274541756316531577e-02
5.347395219822263096e-02,4.643747813880554770e-02,-3.081605837895554784e-02
-3.941062322506438953e-02,-2.928751636581753207e-02,2.703446238809115512e-02
-5.276319338476142401e-02,3.799854978953194629e-02,1.274422080236998524e-02
6.859582714606343723e-02,3.237835218168417031e-03,9.551893321686086291e-03
-1.571327710871976008e-02,2.242452380164433948e-02,2.004935331229211817e-02
1.254520218390555754e-02,5.446774279823342812e-04,2.207486082809263089e-02
-2.147269523695877289e-03,-3.845556737536288266e-02,-5.606262468798280454e-03
5.904074216045041013e-02,2.032516069581926516e-02,4.384013679692493753e-02
7.036538308396063368e-02,-7.600115176692381902e-02,-6.575822490038656098e-02
8.143782235893899657e-02,6.328750415426469440e-03,5.100047183279796115e-02
-4.951552245836917526e-02,-2.876224880849666266e-02,-8.535236122299191819e-02
-7.287550598413038150e-02,4.568851823357142350e-02,-8.867318984526795234e-02
3.286647630910000117e-02,-2.585774141050077579e-02,4.564771336335870372e-02
3.099232667899855242e-02,3.235696132724225071e-02,-7.646587113596713114e-02
-5.219846011988501372e-02,-2.090689631262434862e-03,8.805193039081634851e-03
-2.830450220441653106e-02,5.081105413450279912e-02,3.297587301611961536e-02
-1.142791071699332528e-02,-5.853710623428551654e-03,1.113552253457782137e-02
-7.628877764215878654e-02,-7.035635588802614804e-02,2.670519865926854544e-02
6.020034264514111631e-03,-1.980288138088072761e-02,4.127824323984220951e-03
4.565191742096434691e-02,5.634642678534505095e-02,-6.227092961413406569e-02
2.597190885579058264e-02,-1.633283362047015979e-03,2.525862195175947525e-02
9.955022349133493820e-03,-2.427806117699135222e-02,-9.563221113825515207e-03
-3.791473149274511220e-04,-3.590132756857002116e-02,3.543389732374550849e-02
-4.200377119882352239e-02,-1.300933806780196246e-02,-2.176183174129701914e-02
4.136219240163352753e-03,5.309720390134840817e-02,3.800231560812040305e-02
2.687600546343517360e-02,1.479705038618465279e-02,-1.051417282000235813e-02
-6.844267145570183397e-02,-5.437078533332840441e-02,6.968857183447302317e-02
5.133014959147155776e-02,7.605380022655799238e-03,-5.943147641949394870e-03
3.465449841462645009e-02,-2.553404871201220283e-02,2.944051550366052344e-02
-1.105642685984920513e-02,-2.374527325534563083e-02,-6.640146856933792918e-02
3.833604642667189089e-02,3.079817821723826107e-02,-2.342553579921708221e-02
3.270328899444707033e-02,4.948867264112975090e-02,-8.920025235610513914e-02
-2.935983362075747505e-02,-5.052972618069777322e-02,-8.539082269783299095e-02
7.470416100213572719e-02,-2.749604173960089673e-02,3.150800586442764617e-02
1.025902301377348662e-02,3.866054892292747347e-02,6.168115341054187378e-02
1.378185678693870549e-02,-1.800903138935648282e-02,-6.565306354703398517e-02
-5.296529718063554965e-02,-8.423410591731567490e-03,-3.972851160433481937e-03
-3.050449193099196918e-02,-7.347180861631090465e-02,2.243407222106805557e-02
4.791866534357276664e-02,-5.859384631159662848e-02,5.605154919040859253e-03
-1.757048367904823780e-03,3.460346162604834540e-03,-3.764303509511750939e-02
-6.280603840374912594e-02,-4.396886522164701258e-03,-3.389203351825586380e-02
4.657122819706045053e-02,6.094338400596017655e-03,5.588978434234480319e-02
3.649691643345579634e-02,-5.567500874137242678e-02,-1.148776824230140527e-02
-5.528090985364280535e-02,-5.399802739880976005e-02,4.994824496684324017e-02
3.046184178084497193e-02,-3.011240108331909512e-02,3.481438718426463352e-02
-7.027902260317667182e-02,7.101481423810901417e-02,2.062257345093288299e-02
-1.176676978258719627e-02,-5.713972094453253700e-03,2.381757156373977974e-02
1.016683994984072942e-01,-6.476340905819140403e-02,6.036268998183714346e-02
6.659050570770456631e-03,-2.870621961638597855e-02,-6.991722581953682680e-02
7.306731397406088235e-02,-1.435484790503790617e-02,1.137846885613292593e-02
4.701260145592201650e-02,-1.847380890587165024e-03,-4.209217282795660320e-02
8.022849974197766160e-03,7.010207532245882334e-02,-6.834995348275538576e-03
-2.121954156343846404e-02,9.118481280845037659e-03,3.659547057035691248e-02
-8.448518005865311709e-02,-3.247974962183654193e-03,-1.789921572674162478e-02
3.028447239666658131e-02,-6.951324824995665230e-02,-1.524633375585887976e-02
-2.461781833232481315e-02,-2.554481298762291755e-02,6.849678089601127229e-02
-6.554494559400035614e-02,1.548836631153446830e-02,7.851323991650040190e-03
-5.229339591701351320e-02,7.069310482381131744e-02,1.070627601615901231e-02
2.808012548242814349e-02,-2.702983531565229802e-02,4.223302708351235613e-02
3.552065725176316302e-02,-1.686794989466345457e-02,1.320820952756439608e-03
-7.060704712670710925e-02,-1.367901096383338086e-03,-7.723621875714517526e-02
2.148112080987864964e-02,-1.792107350989381384e-02,2.704312768000214848e-02
-3.842996898477819834e-02,6.722893899448040278e-02,-5.989148971275218974e-02
4.286311013723260316e-02,-9.185028997382671534e-02,-4.692369502435816964e-02
7.890873238308458715e-02,-4.764723449817200203e-03,7.500355511110033679e-02
-4.024937150871705886e-03,-5.435504446332821253e-03,2.820211730640618739e-02
4.104381351417360491e-02,2.112288185421982989e-02,1.362905300797068522e-02
-4.385038853994392000e-02,-6.349766745767566889e-02,-2.574567231579998408e-02
4.678811290906627514e-03,4.903373569398841725e-02,-4.719207018030015244e-02
-5.573777559805812715e-02,-2.362252884320721960e-02,-5.967506732811963914e-03
-2.414598265049915093e-02,7.104333722696522246e-02,-4.621084050534050164e-02
7.200887758092999746e-02,8.306775698246383899e-02,-1.351213661086118727e-02
-3.826241266351379511e-02,-1.472986861786799301e-02,2.318517280352727986e-02
7.617098144646775124e-04,1.192473948444505716e-02,1.092388325710196006e-02
-3.979949399822525768e-02,4.617513231318039202e-02,5.215313070379175991e-02
2.152185780123608283e-02,6.149027076915167950e-02,-2.703944402375023717e-02
-1.319200601976187241e-04,-2.437500781403128744e-02,-2.463735943181172804e-03
-2.786311185853843249e-03,6.225883552168798296e-03,-2.314462710607055954e-02
-6.324079804937908500e-02,-1.257002783255244290e-02,-2.440229432826087480e-02
2.098044844291542185e-02,1.797286613923715706e-02,9.883111638008272495e-04
-9.315041811763083435e-02,5.254968123068772673e-03,7.130525998550496817e-04
-4.386507293776926303e-02,-5.776559962227860445e-02,2.200985281621714584e-02
2.528808320495029224e-02,1.398023673863449737e-02,-8.320935115324744769e-04
2.336359235702557130e-02,-5.213299965487250276e-03,-1.245811172312084533e-02
2.468876816983523251e-02,1.852285097759635499e-02,-7.194043477231276684e-02
-8.935461909712666753e-03,-1.350329808740150309e-02,-1.826428899707842335e-02
-7.088487021225310658e-03,3.278336350014585208e-03,-1.775140078268187815e-02
3.952883238976265950e-02,-1.757811969790794293e-02,4.236644460205325584e-03
5.159904087842894643e-02,-6.172591312980570122e-03,2.042705337955543453e-03
-5.974007575104054585e-03,-1.145843381311755643e-02,-4.709999896968555116e-02
4.332418847811742892e-03,-5.172747576913491740e-02,9.349102705023910539e-03
-1.246801912711842097e-01,-3.411859300955488727e-02,7.575050319472594051e-04
-4.343478926826788850e-02,-1.057613596746967595e-02,-6.230644877290147238e-02
-7.726869373932406665e-03,-1.543559627050145738e-02,9.843251124908272004e-03
-8.791126765849867353e-02,5.481384866457491428e-02,7.792701931413929806e-02
-7.620482620269715401e-02,-3.889435059882377643e-02,1.325790482559095762e-02
-6.990482637948452864e-03,-1.828192322735706227e-02,-5.097211398468149551e-02
2.559820660466346001e-02,4.239546666292470789e-02,-1.192252352383133332e-02
2.958677572200996489e-02,9.468893957462049676e-03,1.625041711687406215e-02
6.145887703088468573e-03,-5.985716593332528375e-03,5.595219742714461347e-02
5.904420490493380441e-02,-7.130806081199757285e-02,-8.621447111176634703e-03
-2.028025202161273799e-02,9.771420321994769842e-02,-2.488383914657979132e-02
1.064724902766810317e-02,-1.224443160418507703e-02,-1.662541038046022298e-03
2.547141148478951518e-03,2.213096548729924506e-02,3.324343288373282634e-02
-4.508619431090873930e-02,2.415645882605742603e-02,2.842087531856531016e-04
-1.755884833452693453e-03,6.107322806284702643e-02,-2.425101972953988029e-03
-4.409173507081180082e-02,3.188184467490972479e-02,-5.361444551893716076e-02
2.417602627554183998e-03,-6.043138331600182017e-02,5.297915330046450155e-02
-1.278064036090910405e-02,1.148882320640581996e-02,1.791534352685635392e-02
1.521309822564517918e-02,-1.833578848065828618e-02,-2.758960544404563328e-02
7.750615365597650352e-02,-2.876862451307155358e-02,2.995919113471935333e-02
-2.914464552847757794e-02,-8.748051078842362938e-02,3.869682341865973707e-02
8.620084078835289071e-03,-1.704351360630801393e-02,4.092290871733679329e-03
-2.038453306363350800e-02,1.798331780361696677e-02,-1.230453366259433648e-02
1.728137934750085744e-02,-1.526024191262149998e-02,-2.802400335093766653e-02
-8.986977573972192157e-02,-7.279616913001420164e-02,7.755267513855781947e-02
-2.301506607857997655e-02,4.648553040210522125e-02,-2.724943287152714437e-03
-3.661331479672231409e-02,4.613673418583017632e-03,-2.827113918263416282e-03
-5.672347772681551881e-02,-9.230956621453535738e-02,-1.361680761540587023e-02
3.513952725875534727e-02,5.811941513300081241e-02,-1.993088976130215351e-03
5.678777941300424542e-02,4.853454488438228853e-02,-2.884760548382318129e-02
-5.292521383681484531e-02,-3.014256395555110421e-02,-7.511755161925215418e-02
2.798338591290166003e-02,3.714981937353104002e-02,2.551169540614544803e-02
1.406143070783289623e-02,-9.266316338400736388e-03,-3.603779563382707163e-02
5.157569363259276868e-02,7.561713209661870272e-02,-4.969546125133297854e-02
2.913535907789362514e-02,8.873766777507065273e-02,-6.331337876881698579e-03
-5.810493517779535301e-03,4.801600426755049666e-02,-1.322137342239983887e-03
3.627691745654714611e-02,-5.625054546293584146e-02,3.670793314756203626e-03
-1.130877107302437692e-02,4.058315409602192281e-02,-6.790149844577512972e-02
-8.717332625652265965e-02,-2.494611549413969231e-02,3.881654895766258745e-02
1.249135004198946054e-02,-1.954937966528441998e-02,2.560866166749843718e-03
4.995612861665201659e-02,1.162935291878957472e-02,-5.493378521799507398e-05
5.957284010676366232e-02,-2.186940127432417114e-02,-3.043239358507368597e-02
-9.377760652016326956e-03,-4.615211226757590102e-02,2.938374727093210140e-02
-4.479763008420105386e-02,-9.414425860514523403e-02,-7.738578385687782356e-03
2.702823629275033501e-02,1.734666716055161678e-02,-5.557743405613647242e-02
-7.879133676290426408e-03,-2.557956440232543940e-02,1.444144156011064987e-02
1.679880694056462218e-02,2.801415482811329613e-02,6.096257782073483122e-02
1.993710527199792776e-02,4.279792865375134370e-02,4.845331023826718320e-02
-3.207634386902708662e-02,3.194857250333044824e-02,8.457379734513114505e-03
-6.199708216428753693e-02,1.415167640101212300e-02,4.048678731765362887e-02
-1.776234253709119831e-02,2.199348355599432467e-02,-1.750439979374667637e-02
3.157486014319631218e-02,-1.167842814296267883e-03,-2.570648457461899988e-02
7.209186652931878075e-03,-7.695499217097278265e-03,-1.689748241478002989e-03
2.243123944628632339e-03,5.236554512126353339e-02,-4.883527697835303438e-02
2.849880457911924125e-02,-8.355227375625393083e-02,5.075396907597311963e-02
-5.301164434190132335e-02,-1.309799528898563563e-03,-2.959352114269788586e-02
-3.713009009658953946e-02,-1.969388401224507479e-03,1.078255084660631642e-02
1.815865808992770530e-02,2.701246594112196794e-02,-1.526070177693442456e-02
-4.534808754693926691e-02,2.298582197295846730e-02,7.889745214518954775e-03
1.508801642068505547e-02,-4.253750470905028752e-02,6.853524313555257007e-03
-7.346868823421465189e-02,2.872724644845793887e-02,-5.485581917246451500e-02
6.427708527676602446e-02,3.022008108030496687e-02,1.087031222380618932e-03
-5.520292869346301104e-03,-6.431585372332439265e-02,1.266994885954384961e-02
-1.575225154749447520e-02,1.649647454182971013e-02,-5.569397122589148791e-02
3.867435006837876416e-02,-4.765818302141726359e-03,3.096722458772074860e-02
-5.547985055669035770e-02,3.178400586984203580e-02,4.333503259703001820e-02
2.190331237297066594e-02,-3.659115402460159060e-03,5.449671452170885139e-02
-4.339198807790467516e-02,1.582119799373841312e-02,8.663768488511998725e-03
-4.922711648422353065e-02,-1.668842354297605602e-03,-2.923445173726602411e-02
1.097740101615470205e-02,-6.121289093365967111e-03,-5.871290343357551261e-02
-1.658772171116295810e-02,-8.368159321686524654e-03,6.336934812083240554e-02
1.192028422862427689e-01,-3.717520188491744981e-02,-1.193757874970888949e-01
5.113735716442254636e-02,-4.965282035261964905e-02,-1.352323469309421947e-02
-9.899139657764526035e-02,-5.113090303804199849e-02,3.404645957826497177e-02
8.187961386690217891e-02,3.633330293782308096e-02,8.633618509111029571e-02
7.731692064612456783e-02,-2.443679369752881081e-02,-1.045050405194389576e-01
-4.559352750547818883e-02,3.752889801463034358e-02,-1.689308942667640950e-02
-2.941990278949694476e-02,9.359415167875673180e-02,2.255196666056478311e-02
-2.955326280001364242e-02,-1.102489140706798022e-02,-5.362496687837288445e-02
-8.696835030702092240e-02,3.023381726111795675e-02,4.706868919631111009e-02
1.947881684716114281e-02,2.078057745623671307e-02,6.740165436902428864e-02
-1.126565245755134156e-02,-2.155441890505848876e-02,-1.005554692015176166e-01
-3.658184391386799100e-02,-2.114628354812652863e-02,-5.256246645614475604e-02
-4.827632386611162459e-03,2.218034704221698988e-02,-7.844750826166319024e-02
-1.066989009489428299e-02,5.027382703788108032e-02,-8.383782082286593551e-02
-4.313766516539968565e-02,-9.401681737491918503e-03,-1.249226278661093315e-02
-4.293786310248712268e-02,1.133251547165197055e-02,1.707908852017131149e-02
1.861070797382512187e-02,-2.756246378098364119e-02,6.974289939021810665e-03
3.494476625156783811e-02,-9.553551840790076854e-02,1.980223389620903648e-02
-1.838481844544362365e-02,4.424181916917640373e-02,2.986345684456706215e-02
5.289307154035165909e-02,-4.772886402145536805e-02,-2.014732580029333919e-02
4.320875355232179499e-02,1.620954521370462226e-02,-1.241202004219230277e-02
8.549566805889131926e-02,1.865751519054717478e-02,6.235400196619375612e-02
-4.583339772196596412e-02,3.301101644065788238e-02,4.661541478879430850e-03
-5.706013079190239839e-02,-5.628462614158873806e-02,1.532783728991213637e-02
1.742410654082355236e-04,2.652162325808817001e-02,5.016351519926951635e-02
5.483197979293151503e-02,-3.080788246767870997e-02,-2.106707555296091425e-02
4.843846032169178695e-02,-1.936056486874434060e-02,5.690051173988413397e-02
-6.373331592283158591e-03,-2.932724913879731707e-02,3.544814036528148166e-02
1.550720104059852278e-02,-2.653582947313943771e-02,-4.256605795524302099e-02
-1.294056095479869696e-02,3.314473030273183685e-02,2.043065308101514599e-02
1.565234595258944636e-02,-1.802434983242913197e-03,9.315015286275210582e-02
8.191801142488196880e-03,1.088844607022986140e-02,-7.751787782015577555e-02
1.796105704038215845e-02,-5.055377148102410678e-02,2.244674716854431692e-02
-1.268225056386113048e-02,7.991999869422904829e-03,3.088877989191952163e-03
1.873808252502116856e-02,1.931170521783891897e-02,-2.188382233058647035e-03
-2.637927796812238046e-02,2.768016906129010680e-03,4.532525899570027939e-02
8.169589230330364044e-04,1.348266127383842931e-02,-1.379114291328580218e-02
6.133588093947877837e-03,-8.568971522816781067e-03,-2.253464485273922943e-02
6.145599544578279677e-04,6.694637140451009660e-02,1.345355525756012152e-02
4.083156340772634008e-02,4.929492551941559025e-02,-1.042258966531090479e-02
-4.241506943295602489e-02,6.527698586632759911e-03,1.105424057540716279e-02
6.741723545448696786e-02,6.250190647221626206e-02,2.089403569111373399e-02
-4.704971797513715637e-02,-1.120485031129633824e-01,-4.198316852297010598e-02
-2.134221049297806844e-02,1.507745983670284208e-02,-1.402595381822461205e-02
-7.096660459455013392e-02,-3.835856478504588024e-02,3.547930131287883870e-02
-2.886653327717730519e-02,6.910909767897124856e-02,5.596219115884342420e-04
2.863000561108686951e-03,-6.371660126959631520e-02,-4.603491767390998322e-03
-2.054611229329924779e-02,4.944582104443167453e-02,3.044319711719643481e-02
5.764217393469005246e-02,-4.070987977489414628e-02,-7.436701153910366645e-03
1.147260018181779813e-02,-5.942481554455317054e-03,3.453206067419027636e-02
7.334535471498641879e-02,9.709696417013742586e-02,1.779769152913004276e-02
2.018424409266044231e-02,-4.205688957961578600e-02,5.730622494624086800e-04
6.924659248187110816e-02,1.239551736786800515e-02,-1.100068657122412787e-02
-1.414898224667991873e-02,-2.392214944715771729e-02,-4.000334678421919865e-02
-5.137833197356300730e-02,2.292907831101339416e-02,-3.553929130821604360e-02
-1.038548975492230159e-01,4.506080454892492926e-02,-1.067278494141877046e-02
1.773468277712753755e-02,-3.908126351236991536e-02,5.986269427217316003e-02
-1.656298331849868563e-02,2.351740507474015668e-02,-1.291715364416608398e-02
2.579938851238581729e-02,-3.820461391070618939e-02,-5.529809705883979160e-02
1.727623025595919487e-02,-1.620685321486485531e-02,1.252094860742380793e-02
7.071514943429058064e-02,-2.933695791703031658e-02,-4.090805040106058194e-02
-8.922167160408443418e-03,-9.068049289241935209e-04,-1.371654685919525100e-02
5.121137219096464493e-02,-6.546695729349621962e-02,7.695738181741477481e-03
1.305208327411409505e-02,-4.864398522534151004e-02,-3.788484734704352513e-02
-5.367399280990797078e-02,-1.826712714473200175e-02,-4.718277824840879514e-02
2.795736455729577394e-03,-3.284972893165933466e-02,-6.834904295948618196e-03
5.649517370497051522e-02,-3.890625730771066215e-02,-3.151694067200351557e-02
2.451987208724956332e-02,1.016214330130511649e-02,2.009142730662239959e-02
-5.662893731177187640e-02,1.886489716714039727e-02,5.925113781922397571e-02
1.112185706420693032e-02,-7.233747236074693221e-02,1.520184875072427833e-02
7.199627284953169504e-02,2.012980834128426724e-02,-1.161685782101733871e-02
-7.371291500353618908e-02,1.494883649974494862e-02,-2.195002696118048338e-02
-2.080882894451843365e-02,-3.313474376863164653e-03,2.006096124750959483e-02
-2.398214838707950561e-02,1.628943135259895182e-03,-7.582761623745831736e-02
4.658083180626921421e-02,1.620488241922246955e-02,-2.054877646754503517e-02
-4.031502335077023595e-03,-4.522994014679309477e-02,-1.367600588733408097e-02
6.557928608844418653e-03,1.662243385576437846e-02,9.810986597861212632e-03
-1.733186907274615954e-02,-3.418071671622852081e-02,-3.108236152160851959e-02
2.854719948878187488e-02,-5.586085188781879200e-03,-2.832642644251031835e-02
1.974858236394153380e-02,7.656997053431792433e-03,-2.927573194758274766e-02
-2.427630606795266530e-02,-6.120460032211021487e-03,-2.397172868011425428e-02
-3.383948407763200800e-02,4.855783466629284839e-02,-3.705143322960266494e-02
4.469937978136973543e-03,1.723826167727547307e-02,-1.336592170225918939e-02
7.749222690138788186e-03,2.591730961811834766e-02,1.871938562712483975e-02
2.905887337841453824e-02,-1.491254484076942263e-02,-7.393590685371792537e-02
-7.341305566566554315e-03,5.699665134875429168e-02,-1.326651725627143140e-02
2.493926355368796324e-02,-1.663539006655133032e-02,-2.237540513444033832e-02
-3.759344241118277308e-02,-1.810311739872744533e-02,-5.379598387029142434e-03
4.493105126675060040e-02,3.537184801407853159e-05,5.755536466330166828e-02
2.232387358869137098e-02,2.241112415967817448e-02,4.910340218624718173e-02
-3.597257032959694234e-02,7.721523873784381931e-02,-8.520430952595792196e-02
8.592125447224700785e-03,-1.002067152328334765e-01,7.626249533944264025e-02
1.073962749914878379e-03,-1.146279190791006999e-02,3.297854219990711128e-02
4.994386966645920217e-02,-2.975568392010319307e-02,-3.187373176010054043e-02
8.549503311260416710e-03,3.652942598505228705e-02,4.915853296560735580e-02
5.482826950800400584e-02,-5.236951078170074686e-02,4.451553943919677597e-02
6.337875203185730499e-02,1.522522432558676272e-03,-2.609722349363136421e-02
-2.264247839822094294e-02,-1.331996653456610745e-02,-4.652809520329157650e-02
-1.953377494135254480e-02,1.479316403842894940e-03,-6.165200510412618962e-02
3.534817836868234253e-02,-4.735966063595994924e-02,-3.547305395146290851e-03
2.035166992961194923e-02,2.131818088939004679e-02,1.394959487366675445e-02
-4.415231447144350729e-02,3.159923636735198493e-02,1.869011898684028519e-02
4.600290644340369189e-02,4.869905247440960150e-02,-1.015852509594992754e-03
2.159311967627355194e-02,-9.258527297429161931e-03,8.985145000062460391e-03
-4.121780784688307275e-02,2.639321018368664604e-02,2.491702559485058435e-02
5.704155907142416382e-02,2.328847953912851348e-02,-1.352444924941425923e-03
7.285528888499332584e-03,-5.999232149348190241e-03,6.607824347094835848e-02
2.584587572612403669e-02,-1.096237471008010625e-02,3.118469580741379740e-02
1.187666989786813690e-02,-8.327065751166418117e-02,8.770804454404773631e-02
-3.507661473184766482e-02,8.695052775871330714e-03,-5.894068649147413824e-02
-4.456424664957749776e-02,-3.523456272545119616e-02,2.496282191043984466e-02
1.629924437455542103e-03,3.559809123000776121e-02,2.646278071865324280e-02
7.773902714019581550e-02,-5.217074416106451742e-03,3.138267695001104030e-02
-2.090158444540213267e-02,-2.000557458076328635e-02,-1.736840650694810792e-02
-1.129713956566917588e-02,-8.680294644186004049e-02,4.159900021934972991e-02
-8.454975421165878205e-03,-7.805122397272963586e-02,-2.125125786453011673e-02
-2.926363292116117634e-02,-1.656106440455298520e-02,-3.608357643600860337e-02
3.430252117195019268e-02,-1.717615324624710907e-02,4.072818509385766478e-02
6.234141415445474364e-03,1.942303428832739542e-02,-6.990522502413790140e-02
4.816346252148708679e-02,1.653253211066211398e-02,-1.129929052976360454e-02
-3.662660994938229941e-02,-7.344535716747917220e-02,-4.940528995452035665e-02
2.666848707409263247e-02,-1.746773283160004894e-02,-8.069695033372836779e-02
6.646904110361961243e-03,3.891134699280407450e-02,-6.895951111172012038e-02
1.225918399582483047e-02,-6.807039927791889988e-02,1.988084894608336747e-02
4.523489085467206558e-03,-4.458526436833792211e-03,2.624057203714607114e-02
5.580353749732291924e-02,1.040820881792768951e-02,2.581751956402133369e-02
7.567597574962232031e-03,-2.139012024465028125e-02,-2.307120651037452772e-02
-7.109961627904160669e-03,3.800073075264349953e-02,-1.567449848786379996e-02
8.321083188120760241e-03,1.577693234954028693e-03,-7.740203330585973540e-02
4.967685125940541312e-03,-7.026384299962766533e-02,7.787833585978383433e-02
-2.615832661286237107e-02,-1.960842155183411054e-02,-3.897388132268232719e-02
3.960361705129372689e-02,3.914293824704366542e-02,-4.288722537939635565e-02
3.275500943822945432e-02,2.455114522285763157e-02,-1.951928493796236536e-02
-1.150536615419770620e-02,3.831921813178885278e-02,4.336801377065948454e-02
4.515054917323061551e-02,-4.481060343062580331e-02,-5.724474278541136218e-02
1.742561029250862606e-02,-2.740704991737396689e-03,5.732552109975564379e-03
-2.653239640989128734e-02,1.242029099487749755e-01,8.566025677860480969e-03
-1.978381538762311737e-02,7.066559623431301063e-02,-4.109011375804154050e-04
-4.050014305263281017e-02,-5.136206854395493349e-02,5.879787988223962591e-02
-4.808752784824434079e-03,-9.314827386382680324e-04,-5.850955646813790594e-03
-3.483965208927082557e-02,2.061301696635763070e-02,5.332767501177187314e-02
2.156988119364178572e-03,-3.793985560000684432e-03,3.968544917633630431e-02
-7.080335858397286686e-02,-8.079170751237307879e-02,2.464736519320744404e-02
4.217637372458490214e-02,5.870082238127813899e-03,7.405529921989423281e-02
-2.522297976241551914e-02,-2.911680490544768692e-03,-1.983022108330000923e-04
3.659028350254107248e-02,-7.431791670663377702e-02,1.632107294348864035e-02
-6.295408028696601599e-02,-3.991212236748521713e-02,-8.000801369799958110e-03
-3.503438740552339975e-02,-4.727746241015234885e-02,5.543817627288939731e-02
-2.759871456583125326e-02,-8.731580498264552084e-03,-2.580127611416108916e-03
6.080918918844954724e-02,5.515283737010864828e-02,-1.005289005270731950e-02
2.903325057102200141e-03,1.396258589175532888e-02,-2.722663880930768776e-02
5.430616248573812838e-02,-1.896028013730975334e-02,-1.322827841609388634e-02
2.646176009983087704e-02,5.666663170557326677e-03,2.114879471218964260e-02
5.128762669840935401e-02,-7.097440048367646692e-02,-5.813966146302755773e-03
-5.294007920512146942e-02,5.640956665838313443e-04,-4.382828138250432354e-02
-7.633217790410781745e-02,-9.741776106347511260e-03,-5.647493529329352009e-03
3.936903327517093237e-02,6.953421591743929459e-03,-3.863256736234209343e-02
-6.380702140377769727e-02,-2.011208714548926718e-02,-1.544226956473489232e-02
6.188646151541635915e-02,-6.585554150383588802e-03,-3.416759183129831207e-02
2.255345251067528145e-02,-4.302999450215299476e-02,-6.319051102541399512e-02
-2.939336882486634495e-02,-3.181224447909624525e-02,-4.183981979809665852e-02
-3.184617104672483184e-02,-1.174566620923316821e-03,2.820238298393835247e-02
-7.144637443199583493e-02,-5.578396701049447015e-02,1.732668871098855300e-03
-4.489932468469164800e-03,-2.348507434196397958e-02,4.318316999220003088e-02
-1.193045235976159385e-01,-1.597752097034533213e-03,-5.142117427919366823e-02
-9.465338476108131616e-02,-2.665232830751093629e-02,-1.750078460390434160e-02
1.098606058818106523e-02,7.688135639895854467e-02,2.026802345266372901e-02
5.259653928560806269e-02,1.156124878307289855e-01,-2.684560764798927732e-02
-8.206206153403174108e-02,1.066485063122562388e-02,6.590406280299772324e-02
-3.838536734770134351e-02,3.615307875697410661e-02,1.006782018834974889e-02
-4.975290830707469747e-02,4.879456256034998829e-02,8.061294181434157380e-02
1.279419620787784415e-02,1.316939353606643576e-02,1.908660455205690720e-02
2.332243741760606226e-02,6.342116242486199595e-02,-1.588932442831370029e-02
1.479954759297904821e-01,-2.196250063179474091e-02,7.042234347990913856e-02
4.295932399215196193e-03,-2.401163115652486801e-02,8.492006512964994994e-03
-4.383181255224600018e-03,4.157493199085930853e-03,6.841572961737082958e-02
-1.046304280948002347e-01,-4.246224736591946991e-02,-4.652471504436270916e-02
-8.156838751257688980e-02,7.917969085255037801e-03,2.892633104688284440e-02
-8.349402702915405261e-02,3.719353696209715815e-02,-1.489108462393143664e-02
8.411998671548064077e-02,2.016294209821968553e-02,6.017704020281160020e-03
-5.102277367521577262e-02,-9.313094075233194213e-02,3.831738172199759818e-02
3.782362265816111707e-02,-3.364366419965693356e-02,5.407648820349220987e-03
-6.194401084574980426e-02,-1.406791481805643243e-02,6.242246958610599833e-02
1.311226873205067513e-02,-4.951287537880894041e-02,1.416638804157895060e-02
-2.103545968766801222e-02,3.614599557944879471e-02,-3.456048907810160137e-04
3.065764128745147258e-03,3.911274008444495104e-02,-1.442090038993547492e-02
-3.823886087283678153e-02,-7.616698979261786462e-02,4.697107190122334387e-03
1.213788184072243578e-02,4.939294880584081671e-02,-1.202053425689230889e-02
-2.853314152298744993e-02,9.037817827607340371e-03,-7.927485361700507827e-02
2.838433694251904851e-02,3.817926356928137005e-02,8.843786555057187027e-02
-5.788887789240055410e-04,-1.640250928302653538e-02,-4.125491957194332010e-02
-3.244584310162480084e-02,1.029337650949883366e-02,6.086142845208675732e-03
-9.028160042566663046e-02,-3.128509315003099450e-02,5.189574671750697005e-02
9.093493090739024343e-02,-1.241729685961341124e-02,-3.350649549724849657e-03
-7.188085577163376427e-03,3.234549936870086129e-02,2.069458337568708811e-02
-2.961630476258477265e-02,6.767330896095560822e-02,3.151719624631000444e-02
-3.024506913685460346e-03,1.786843868717800932e-02,-7.728981064492560817e-03
-2.315841139226728143e-02,-5.291619626655490877e-02,-9.858666547171168748e-02
-6.532172486275395970e-03,-1.207672172824769859e-02,3.535996619973907212e-02
5.482914566172416432e-02,-5.443804958792367032e-02,4.354722125734331040e-02
4.034746721247310544e-04,4.870204161113331383e-03,-3.014397914422350597e-02
1.605488679957164239e-02,-9.605280675326131890e-02,-9.164956586247809123e-03
-4.679633888705147376e-02,-6.493929942807484534e-02,-6.417060591883251564e-02
-3.109505583493503422e-02,-3.637255793989270514e-02,-6.630892579038505374e-02
-3.756412471701620764e-02,1.880397203774241202e-02,4.938724045674815905e-02
-2.277189949703552554e-02,5.949404750463234415e-02,-4.773067241589612660e-03
5.011078847298372496e-02,-8.354619261217326176e-03,2.857806156915361148e-02
6.415256149400515306e-02,-1.709479070451602745e-02,-4.667861013563385369e-03
3.743163206330969977e-03,-1.914412738695517313e-02,-5.903539695641654705e-02
4.969145188155108667e-02,-5.739392023867589954e-02,5.405601192704324182e-02
-4.919353065987036588e-02,-3.311566956970111997e-02,-3.256239425973071755e-02
-7.706630561772580615e-03,-4.585866887003023362e-02,-3.902324753120501276e-03
9.566849732346509316e-02,6.145358464808312049e-02,9.478342421847439636e-03
-2.620207342229376526e-02,-8.148688245507438232e-04,-1.540044520920729430e-02
-2.857403143157809244e-02,3.660367935574212334e-02,5.889905346443510999e-03
-2.123484400141891285e-02,-2.188660730590988659e-02,1.677212313136954361e-02
4.714908337307806285e-02,-8.509000815155577657e-03,2.507088247557522423e-02
4.729626547934562969e-02,-2.813179078311360548e-02,-2.250970824684990143e-03
-4.236306807082634851e-02,5.240181243309059017e-02,-2.630111400199696206e-02
5.773216981541137716e-02,5.220215280696535731e-02,8.444010077262732727e-03
2.619857753825556926e-02,6.598561907819985861e-02,-7.102682105149124786e-04
-1.215165858782221026e-02,4.476313961795023305e-02,9.022179748182654682e-03
4.585696544487493503e-03,-2.662916345520190478e-02,-2.181046172337412076e-02
-1.182483081105579342e-02,-3.565840203711676676e-02,-4.546589240108303565e-02
5.171186894252600974e-02,3.981978219684188802e-02,-2.343074625623897678e-02
-2.250862666992319711e-02,-5.319544754720744589e-02,1.304587945915804082e-03
7.434648651242915796e-02,5.105444905573277604e-03,4.768055912489398834e-02
6.820420715140175505e-02,5.148502075001473027e-02,-1.308340224150175484e-03
7.215766845905965260e-03,3.734548963612108197e-02,2.231544857918225586e-02
-6.306984276004963530e-03,6.673652282440453720e-02,5.201313804741195500e-03
-3.308478157920002709e-03,1.684206886371651581e-03,4.097996299978218238e-02
5.053031116644911974e-02,7.606729454871812013e-02,2.654772757337061240e-03
-1.679670597037565688e-02,2.028628540826416665e-02,-5.586246606269959156e-03
-3.603648004188662879e-02,-2.744068956813252441e-02,3.961274748801672102e-02
-3.388605471212254722e-02,-9.557943173144381466e-02,-3.008056480875399147e-02
9.978171955956075673e-03,-6.176522265660785299e-02,6.367857783628054491e-02
6.601364319848415652e-02,3.772779066318001501e-02,3.181807176123539055e-02
5.971770670678388376e-02,-8.370638386028407540e-02,2.129902401689586638e-02
-2.741174056185305408e-02,-5.189707491756681557e-02,1.519184242152473016e-03
1.113520895444348041e-01,-3.223703561535473661e-02,-4.283684289949262619e-02
-2.370176661599852908e-03,-6.747192753869005188e-02,5.585415007098053219e-02
-1.747063488610179488e-02,4.228884002455061963e-02,-1.834372381494010079e-02
-7.288665017390677514e-02,-6.394828914393964336e-02,-6.440088197222181010e-02
-4.535339113026144731e-02,1.808347999031940934e-02,-6.205769337707950015e-03
-3.602161468555156038e-02,9.173013854466404576e-03,-7.354148149086835173e-02
