accel_x (m/s^2),accel_y (m/s^2),accel_z (m/s^2)
2.658101700912175042e-03,5.367158953798878765e-03,-9.794325451516993297e+00
-1.213177046105691709e-03,1.833520964911660930e-03,-9.784745152862200257e+00
3.837253598973937828e-03,3.687394714400419552e-03,-9.796111541183847748e+00
-1.411188561700483374e-02,8.025748996317316059e-03,-9.795675223638571794e+00
-1.068908422326255575e-02,4.529995349820356045e-03,-9.799345620053600214e+00
1.742433600637811669e-03,-9.634802313129662427e-04,-9.804702422769137726e+00
8.465140916249242614e-03,-9.727743616395426521e-03,-9.794737638235481825e+00
7.416843209559403037e-03,1.562591361821206570e-03,-9.805033769758876971e+00
2.577174228567913079e-03,-3.561345963416601319e-03,-9.798049476047845374e+00
-1.725441667154295217e-03,-1.746401934574460645e-03,-9.796410587608381348e+00
2.419625261097805342e-06,1.953848807670899128e-03,-9.806289093356623354e+00
-1.422322061081499837e-03,3.247793074555981735e-04,-9.817736060842099377e+00
-1.098221237756349901e-03,8.912495870191171170e-04,-9.788278022723597260e+00
-9.953004581799993269e-03,-9.466734666544749169e-04,-9.779335414296696172e+00
2.833969167090466014e-03,5.390171481203563132e-03,-9.786296301650654783e+00
-3.941526883105641449e-03,9.849973304090582291e-04,-9.781672188466275841e+00
-4.790218161235398897e-03,2.217477831236612778e-03,-9.788172844518339133e+00
-5.582310931287189776e-03,6.419566247564050671e-03,-9.798523165805526958e+00
2.472177891368869656e-03,-4.511545558994614104e-03,-9.817218748687160712e+00
-4.925816175420619399e-03,-3.030485711379418343e-03,-9.787184934079910192e+00
1.212782552316815296e-02,2.458836830512094260e-03,-9.809672372249599093e+00
-5.493246218494416376e-03,5.945384782997205006e-03,-9.799154052486953148e+00
1.145092036422964456e-02,4.541119263950040355e-03,-9.772019366004396801e+00
-4.196791298698731069e-04,2.192762992500595608e-03,-9.807900882292203804e+00
-7.064316863874920555e-03,-6.784319260936444353e-04,-9.796102041771481694e+00
-3.995524637384211680e-03,8.065133302427968890e-04,-9.809118896911659391e+00
-1.040536612761334273e-02,9.491159886971000867e-03,-9.800535833836756083e+00
-3.074528778178947045e-03,8.997515339152462391e-03,-9.792539576534444734e+00
-1.108417872892227853e-02,-1.318896938834546303e-03,-9.799281327369463668e+00
3.149111162942065667e-03,4.916744371960349476e-03,-9.795942373977803541e+00
5.615371068019740092e-03,-3.491434871163926878e-03,-9.801876330063528542e+00
2.216356819327681277e-03,-6.199458905862351848e-03,-9.793196435278892054e+00
-6.580743521377266673e-04,1.030206869519638456e-03,-9.802959905720879163e+00
5.738390549788132018e-03,5.584239186954821806e-03,-9.802275802721812425e+00
-2.238058787932329426e-04,1.380075316965289484e-02,-9.798635193014888500e+00
7.627143465581490318e-03,9.435582501350374060e-03,-9.796102125895572499e+00
9.103631783287280572e-04,2.858689906283816851e-03,-9.788594477280724959e+00
1.308620032616724131e-03,-1.489180479522839076e-03,-9.809829132794122941e+00
-4.746994881808868152e-03,7.894901437777771674e-03,-9.794992790993095610e+00
-5.667537319370643915e-03,2.890953814401840162e-03,-9.786547415885205936e+00
6.425707998523115007e-03,1.726111865240859654e-03,-9.808332525695947268e+00
-2.440194819720955741e-03,-7.502015114706524559e-03,-9.791765103119738356e+00
-1.306110478614081393e-03,1.227813841795118762e-03,-9.796974044290809758e+00
-4.091273030772824698e-03,1.967388125838309427e-03,-9.801611491706001544e+00
-3.652075990835751407e-03,-7.493193046845636300e-03,-9.782109999649868826e+00
-4.331802580001856487e-03,9.016264401766961893e-04,-9.800618983196340395e+00
6.063511952273407425e-03,-4.634398143885230630e-03,-9.799765948623596401e+00
-5.599496444349542218e-03,-5.422674534643257991e-04,-9.787808260474999855e+00
-8.420326569960272234e-03,4.014624989735527533e-03,-9.791590207582167693e+00
1.230941121547991443e-03,1.263114645796700806e-04,-9.795697904393778188e+00
-2.823266726644247434e-03,-9.137126239769640529e-03,-9.794107138816775304e+00
2.723640146366402334e-03,-2.212398650057266665e-03,-9.787748157447920150e+00
-1.059587738202355175e-02,-9.112774042778721889e-04,-9.788554427787266476e+00
-8.793318030487405840e-05,1.898979224010235349e-03,-9.800631775631968523e+00
3.541143800042833700e-03,2.077166792195481171e-03,-9.797073965202788060e+00
3.081718261208253162e-03,2.950645437386128188e-03,-9.796925379194625805e+00
9.111398604788609537e-04,-5.967941764688977115e-03,-9.790472745358261619e+00
4.377265835518062698e-03,-9.667719749379699318e-04,-9.798945381642299779e+00
-9.673825572928608681e-04,-1.659549024329654899e-04,-9.793984537236671173e+00
1.681653488396225556e-03,-1.098362239334398950e-03,-9.793884337061637524e+00
8.725328280652749598e-04,4.543750516659229334e-03,-9.787910996445987166e+00
5.544330109353868934e-03,-3.055893196705710378e-03,-9.802195090248783771e+00
4.133797444153355406e-03,3.234827517377953862e-03,-9.786815485605680820e+00
5.760933265946394446e-03,-1.973185407036670124e-03,-9.783299872792245111e+00
-2.776261659649361963e-03,-1.697060222969754006e-03,-9.796575990625393970e+00
-5.710031634678729671e-03,-2.494035439224737225e-03,-9.787285743346032518e+00
-1.365633771938594941e-02,2.960945922685738127e-04,-9.783949228400386389e+00
-2.771165694350364445e-04,2.700462119034392414e-03,-9.790618509144346504e+00
2.347873106239280010e-04,1.974177347501092274e-03,-9.801188001195910715e+00
5.278223989424222530e-03,-7.644155043267380698e-03,-9.792851861189333817e+00
-2.542778906323662266e-03,2.595948697325393441e-03,-9.785303292314912582e+00
1.112222065457829819e-02,4.076743583918741344e-03,-9.802290602424633903e+00
-2.230849932931357193e-03,9.585589271740226232e-06,-9.785111859914268351e+00
3.165167984638929399e-03,1.593056401814793273e-03,-9.782994060993971175e+00
-1.015609642956338344e-03,-1.117348732288477465e-03,-9.797915711779140224e+00
-1.146315093928812305e-02,2.165194593713933111e-03,-9.803077997391717702e+00
-3.410141124318057798e-03,3.176086980913965345e-03,-9.790072973488998187e+00
1.740895486611421846e-03,-2.455929765384873894e-03,-9.786709952357417919e+00
3.171824930112610366e-03,-3.603210328548731001e-04,-9.792063949370939824e+00
-4.549808015948367430e-03,-3.465832172725555934e-03,-9.780990663684846709e+00
-5.403576932588464781e-04,-3.533110701947134646e-04,-9.798258319317357135e+00
-4.108788904073441481e-03,-7.101099673976226864e-03,-9.784562552943668834e+00
-2.231836028169846239e-04,2.001813673795641100e-03,-9.792966180928944553e+00
4.844365380765555153e-03,4.184003039412882946e-05,-9.793661906742965328e+00
8.226533413867877752e-04,4.415075735645330318e-03,-9.797195989040689668e+00
-1.911370730245370159e-03,4.744628112915806779e-03,-9.794195999646472472e+00
3.186812801630631905e-03,-4.682289093382839833e-04,-9.779553488695055918e+00
-3.654864942343329526e-03,-3.568916656939317283e-03,-9.804576470616476414e+00
3.718417651146902793e-03,4.082429972694160726e-03,-9.804806684921452131e+00
5.096043149659018655e-04,3.316093959357525704e-03,-9.780560411690860434e+00
8.955143227668233702e-03,8.099935294764366075e-04,-9.789167211738130092e+00
-3.679017473411714916e-04,-3.183844586706240792e-03,-9.798477648671589435e+00
-8.486206528953389380e-03,-5.898460111169759280e-04,-9.792534928760591839e+00
2.696216697693075166e-03,-3.447390523875078130e-03,-9.796945580577489210e+00
-4.672170506454978445e-03,7.510244598572707363e-04,-9.805949484256325732e+00
-3.230139338590411278e-03,5.805354802458989431e-03,-9.779541771533597938e+00
5.480258669521307323e-03,-1.062504462707765385e-02,-9.798376003283944868e+00
-5.414799583769332875e-03,-3.523050831028633721e-03,-9.794240700189865478e+00
-7.022785806145782211e-03,2.383376033169241209e-03,-9.791746032469969663e+00
-2.984493981540074867e-03,2.051937037106757976e-03,-9.794319646133907042e+00
4.957673292932682566e-03,2.533677607759585726e-01,-9.790339209331380133e+00
1.825911745690067143e-03,5.003961030748053096e-01,-9.794259695866921689e+00
1.231321605563542518e-02,7.074007412222360625e-01,-9.787134612743029649e+00
9.713594193974527287e-04,9.003136393774541224e-01,-9.794962217858520503e+00
-3.084783488836625055e-03,1.071615548609663904e+00,-9.786730957870545922e+00
5.116583160388661622e-03,1.231514381357286414e+00,-9.794936297643159762e+00
-7.770911457684091285e-03,1.365167231284444949e+00,-9.776922434182161226e+00
-4.926095200484627290e-03,1.498668796197651254e+00,-9.802476871630535271e+00
2.044743417008709589e-03,1.605682447927744727e+00,-9.800541906501432976e+00
-1.077028758185515599e-02,1.704868887987195158e+00,-9.810760904987995801e+00
-5.544892545469007686e-03,1.798689884802982197e+00,-9.793572676300300373e+00
6.558994444010885633e-03,1.884711536677489807e+00,-9.807422291641525902e+00
6.534992728269487352e-04,1.947666650260332810e+00,-9.779007344912633570e+00
-1.005080412045657005e-02,2.022270345179934647e+00,-9.793175076491202447e+00
2.463913297795961369e-03,2.078967349967050016e+00,-9.791798364861524107e+00
6.941544004297982556e-04,2.137594539084683998e+00,-9.809404495476423236e+00
4.588822887266172205e-03,2.184094218326879222e+00,-9.787033647518923019e+00
4.625004060098837633e-03,2.224029158640516979e+00,-9.786172176607811579e+00
-2.721635184969998979e-03,2.272523905556000035e+00,-9.780809779546757454e+00
-1.693342001478415071e-03,2.292989847129710324e+00,-9.797165855659732969e+00
3.027845802129011145e-04,2.335461413548526988e+00,-9.779565347109267393e+00
-1.569553696026764443e-03,2.362386825668799428e+00,-9.797250354539634998e+00
-2.248797759279779537e-03,2.379083951603173652e+00,-9.800463384140382317e+00
2.563860026480031112e-03,2.402611375509755565e+00,-9.808713537575583175e+00
5.607957453289178331e-04,2.428544806803444089e+00,-9.807421619231357468e+00
-4.533511640628492580e-03,2.456994503418328701e+00,-9.781190350040784409e+00
8.925294652380988056e-03,2.466968369091536495e+00,-9.798226533738775501e+00
-6.448107753952098467e-03,2.481963825794113010e+00,-9.801998755862591395e+00
-4.552390340135220028e-04,2.501115345145724422e+00,-9.791901153147913206e+00
-4.601805120459143139e-03,2.516076925973146139e+00,-9.799792291427028346e+00
4.003090344037649011e-03,2.517913418504906353e+00,-9.783662003520124273e+00
-5.399325577804489108e-03,2.533991650347499736e+00,-9.799455753806602942e+00
-6.620419955155810131e-03,2.538139636509450181e+00,-9.794798845238892326e+00
-2.729753349336777948e-03,2.539554295512125304e+00,-9.790887863528331181e+00
4.888896220667409472e-04,2.550035501307861274e+00,-9.796766870022450391e+00
-3.634164142182115206e-04,2.550989054462130756e+00,-9.796586685438150255e+00
3.748970428211265940e-04,2.573042897818061725e+00,-9.789779501467384293e+00
2.165391353723533120e-03,2.568235380952315960e+00,-9.798989824201642662e+00
4.271034766608663427e-04,2.580909646530755275e+00,-9.798433040458769838e+00
3.893767546871103758e-03,2.581639150039586106e+00,-9.800779945519002112e+00
2.424967135417879695e-03,2.581435919294339243e+00,-9.790716694675410281e+00
1.527244035048690380e-03,2.586093259471896388e+00,-9.790529430413561940e+00
-4.270811726416527850e-03,2.584504033180590188e+00,-9.784480761914156943e+00
5.570110602179088356e-03,2.592846785620123828e+00,-9.789257780822527621e+00
4.046808712588797693e-03,2.591129805275321996e+00,-9.803995486106837021e+00
8.704714325043027764e-03,2.593291507444223765e+00,-9.794350470886394433e+00
-3.937689800953223310e-03,2.610383015986395883e+00,-9.792697059441675123e+00
2.658884043593765997e-03,2.603795591051732305e+00,-9.780113536279255726e+00
2.014498313137715393e-03,2.599672667025379358e+00,-9.788870461879438878e+00
-1.287964675081065434e-03,2.600076044042371581e+00,-9.792630105595749868e+00
1.130992825127938566e-03,2.609600165259810201e+00,-9.796000897712952238e+00
3.953811470341774860e-03,2.613271059314624001e+00,-9.797872510050712691e+00
-3.127447352905161904e-03,2.611989075086520451e+00,-9.795274867024613030e+00
5.661028022254852715e-03,2.614270182152627520e+00,-9.794008749976722328e+00
-1.330868075527546698e-02,2.619684661751661370e+00,-9.794661611790935751e+00
8.412298439100577424e-03,2.611987292304125408e+00,-9.805460320098237759e+00
3.673142758738570136e-03,2.615750128249736850e+00,-9.790309879143730853e+00
-5.303832392624389025e-04,2.614396785722811867e+00,-9.808744185239842039e+00
-6.106975890444337786e-03,2.619652690890640567e+00,-9.804422809935603667e+00
-4.254814605742691241e-03,2.609388643194707758e+00,-9.797464491063310632e+00
3.690098065036854971e-03,2.612305059726633960e+00,-9.788536445885098303e+00
-1.126466637909172806e-02,2.615938949573284322e+00,-9.798165335888892713e+00
4.986106184542932283e-04,2.611820793129723484e+00,-9.783376815919634595e+00
1.099716797446003043e-02,2.615466886377674438e+00,-9.795908579586907194e+00
9.213621118203823429e-03,2.606222525183990779e+00,-9.789124498842781463e+00
-3.426225237163193788e-03,2.621521319123727878e+00,-9.809037793073569489e+00
-6.146816873407966435e-04,2.612760918889886153e+00,-9.794412573817924184e+00
2.270680386253893634e-03,2.624731075729649366e+00,-9.799885229229456485e+00
4.830495463603918030e-03,2.621779064437748996e+00,-9.794034990085398462e+00
-7.881559487982072940e-03,2.618594029507491427e+00,-9.796112811306290524e+00
-5.242901313205347406e-03,2.617849997309689591e+00,-9.791609471930891928e+00
6.551594893018478603e-03,2.622688627287429242e+00,-9.803982291069672783e+00
5.974009526104160847e-03,2.613680551479247605e+00,-9.790438233215818187e+00
-3.725066320813118226e-03,2.616105994663096901e+00,-9.794385814455397465e+00
1.029861750425239064e-03,2.615181026525744912e+00,-9.798079198686270530e+00
9.654218010329685892e-03,2.608338505945392072e+00,-9.784112850963200714e+00
-4.555255702539670669e-04,2.619594739524234939e+00,-9.797374890893003396e+00
9.552317061506887530e-03,2.622183804503001259e+00,-9.801604806585073604e+00
5.263343287182254727e-03,2.624478076585481823e+00,-9.793587793441364653e+00
2.374325820714366631e-04,2.611344801447355479e+00,-9.799490077040129421e+00
-3.131845222980533740e-04,2.615052705963084367e+00,-9.802493355488339333e+00
-4.650472547643661435e-03,2.618509720774041760e+00,-9.793365756550418411e+00
-4.181894808204030277e-05,2.617658080545861132e+00,-9.792415248347934309e+00
2.432743511270158928e-04,2.614345229268574933e+00,-9.792792531634390230e+00
-3.161811679942290562e-04,2.618819324598460341e+00,-9.793234654545615925e+00
-3.937703019566037022e-03,2.621861496414017445e+00,-9.797531371196299688e+00
-5.519264651982524680e-03,2.620493689893890199e+00,-9.794965889807949466e+00
-2.086489849796988386e-03,2.622038080744790722e+00,-9.793485517697687825e+00
-2.382566255837291046e-03,2.622604273924677099e+00,-9.811215774003438028e+00
-3.117861536812940003e-03,2.620326334949115932e+00,-9.790957807910574573e+00
-5.938645004900736275e-03,2.616481186229588474e+00,-9.797030143206784558e+00
8.336683923706724939e-03,2.614420937771013698e+00,-9.786761848231273930e+00
-2.616137554232053305e-04,2.614478816975668973e+00,-9.808039252486882020e+00
-9.102050070031252971e-05,2.611815729739971115e+00,-9.791224745647861383e+00
-6.346844355838297987e-03,2.621004098284606787e+00,-9.801696666707602645e+00
2.207518313995936350e-03,2.618944531287823452e+00,-9.794885053134720465e+00
3.309632268238518922e-03,2.623551458953525817e+00,-9.787559799639735658e+00
-4.667178609996302727e-03,2.616387676922842243e+00,-9.801947654175560132e+00
4.378859136749594858e-03,2.625211647072023258e+00,-9.797059845802802869e+00
6.934968026268394266e-03,2.622716812333948155e+00,-9.782308961825874505e+00
-2.090294496029545483e-03,2.620566618780216128e+00,-9.786759197251420517e+00
-1.001068808408731373e-03,2.615939805723915601e+00,-9.799987309367493182e+00
3.132838778716304316e-03,2.613710768968304343e+00,-9.807729824591714163e+00
-5.023390769558858451e-03,2.613520224359902056e+00,-9.784187865515823646e+00
-2.411940540831774334e-03,2.626149045011102245e+00,-9.787562340876608147e+00
5.237096330801328282e-03,2.618594315102658499e+00,-9.784334898609596820e+00
-3.830001976573362086e-03,2.626201667638719428e+00,-9.806532541903688838e+00
-8.552080917893249354e-03,2.605437315827433764e+00,-9.782518246676913165e+00
-2.245200900947831677e-03,2.617052398605363539e+00,-9.808152229926678345e+00
3.524319247754256496e-03,2.618552285656547962e+00,-9.796790860987782068e+00
-1.921697626282179317e-03,2.620575686828928497e+00,-9.792657285440295567e+00
-1.847162055014603182e-03,2.626711293245137302e+00,-9.789763729835232908e+00
8.118921608320698962e-05,2.616310175033071506e+00,-9.779946780592934985e+00
-5.339755556979451992e-03,2.616543701299331559e+00,-9.802882916985911521e+00
-3.231962963098962676e-03,2.611785783786706006e+00,-9.801182895028830444e+00
5.252434514038614895e-03,2.617573406160841998e+00,-9.790714018346479364e+00
2.079333392727042776e-03,2.619080206701207558e+00,-9.791524613788876508e+00
-6.911004040602549206e-03,2.620150063129640827e+00,-9.789304399967997838e+00
-5.804192052870326725e-03,2.620385093653216035e+00,-9.789494474067758745e+00
5.223696674338778288e-03,2.616236477993036935e+00,-9.804495783920687657e+00
1.630791531738911887e-04,2.619685947610145504e+00,-9.789367601064229873e+00
1.144342313774827403e-02,2.622849902451468651e+00,-9.797508684379723221e+00
1.068276771541354364e-02,2.621833220094065275e+00,-9.810505638131399309e+00
3.413515147439744653e-03,2.611360795375049282e+00,-9.806102135703408607e+00
-1.794892467077046933e-03,2.618103458756719792e+00,-9.804522289453489137e+00
-2.725140236032659157e-03,2.614957688852238338e+00,-9.790538035902056180e+00
-6.998912384243162824e-03,2.611514417294224177e+00,-9.791094644046474116e+00
9.326756304788024095e-04,2.619134919115465365e+00,-9.781429654410469965e+00
-7.272881624566277306e-03,2.624124155186821294e+00,-9.792747246480690393e+00
-4.608499093409845239e-03,2.619864835641953160e+00,-9.797831707829724124e+00
-2.637054521809410138e-03,2.612850824948406814e+00,-9.783125426666035906e+00
4.921486488417747308e-03,2.614609700045832152e+00,-9.783577549914486582e+00
4.239503286399565890e-03,2.621812083548832550e+00,-9.796232915295519206e+00
1.500010634895476008e-03,2.608122416973269075e+00,-9.794449984123081876e+00
3.268859908998381601e-03,2.613410345096261356e+00,-9.794761841679095582e+00
8.144453751390589788e-03,2.627107893141282791e+00,-9.800627229431663423e+00
-4.830259062969346692e-03,2.630463428388440494e+00,-9.794804177957368907e+00
-9.192680272591917737e-03,2.609983265151412102e+00,-9.791655889365985743e+00
-4.160906082170055288e-03,2.621092699677473714e+00,-9.792328107244186342e+00
7.504285127562970899e-03,2.616436091999827962e+00,-9.792248591589775231e+00
4.303329932094540275e-03,2.615967942802040369e+00,-9.796151430210214173e+00
-8.987581775981511381e-03,2.619786897042512663e+00,-9.794753608360910135e+00
-6.255142099216848273e-03,2.611564265627916992e+00,-9.785515952439357790e+00
-2.334452880454603637e-03,2.608577717191304046e+00,-9.782586655554244004e+00
-6.067585094311938806e-03,2.626674418304518976e+00,-9.790361124774554114e+00
-7.589482471931393096e-03,2.613766911977023710e+00,-9.792027672504547198e+00
-8.025016233663133380e-03,2.616941589271003732e+00,-9.800861635300236685e+00
-7.920040165595139750e-04,2.617847582164167353e+00,-9.788890343969903540e+00
-6.794718476884085111e-03,2.615792771852244236e+00,-9.784841239835895266e+00
-4.161941167852354143e-03,2.612192430732664938e+00,-9.804959202596945644e+00
-6.230258687135703174e-03,2.622221518593656597e+00,-9.803827133720174558e+00
-8.771095492613220634e-03,2.622107907743238098e+00,-9.798510087946803893e+00
4.519153134818049665e-03,2.620533887873648382e+00,-9.799541730765650271e+00
1.190437373221403874e-02,2.630869016765820412e+00,-9.787612065050177890e+00
7.073680594493408219e-03,2.623798805192008032e+00,-9.797720837452597920e+00
-6.037136812357601565e-04,2.606948122008402979e+00,-9.785391428661437629e+00
4.265807675975011141e-03,2.620252620135721688e+00,-9.805748461432886032e+00
5.718858198259588708e-03,2.609287340341046146e+00,-9.805381809941343008e+00
4.827317099241156114e-04,2.616420739306446919e+00,-9.778951554979245842e+00
-4.618783448202760933e-03,2.623922149566659368e+00,-9.795099336402659063e+00
-5.101487735396246972e-04,2.617617588611028001e+00,-9.800874614721340805e+00
-4.718422054157851708e-03,2.609485567935230232e+00,-9.790309907823896651e+00
-2.182440401074142982e-03,2.611854274778545815e+00,-9.802361881911959784e+00
4.211798698187853990e-04,2.620256589519481150e+00,-9.798823451317073108e+00
3.669769853963490008e-03,2.617379958061919254e+00,-9.792012897005312411e+00
1.719964934663473829e-03,2.620047023229272742e+00,-9.792069197530775426e+00
2.657542581048900985e-04,2.617774664429661780e+00,-9.783720366975234839e+00
3.732170948781380650e-03,2.625139471726257057e+00,-9.786734271277143904e+00
-5.020956049747175159e-03,2.616648814930520484e+00,-9.794811702451751145e+00
3.689651519457987430e-03,2.609142446264540727e+00,-9.793978573581105351e+00
-6.840189447752566786e-03,2.615581500106902268e+00,-9.796546041869632404e+00
8.904909456586459745e-04,2.609716256555103087e+00,-9.792327152884523045e+00
-3.011047950241768720e-03,2.612475140132544116e+00,-9.794954179927753302e+00
-1.800159184085309890e-03,2.616780989766639642e+00,-9.798654345942411581e+00
2.649778356397449516e-03,2.614311640139487025e+00,-9.801332551906902779e+00
1.182336253786777622e-04,2.615720314068656460e+00,-9.809259420859421041e+00
4.063777728732738403e-03,2.631193426656650125e+00,-9.807875284727776588e+00
-2.761309476288921049e-03,2.613286845781787715e+00,-9.806322743943480802e+00
2.895588864256577483e-03,2.617248282532216308e+00,-9.789234919232738363e+00
-8.611352610234646304e-04,2.618873017378808843e+00,-9.784041531278353077e+00
-3.510397967212142579e-03,2.618936365093857521e+00,-9.789905029516592805e+00
5.628206127266490930e-03,2.620141718440842205e+00,-9.783300772656273736e+00
5.661726906159221182e-03,2.613469998398621819e+00,-9.796362379212384397e+00
-3.339858152304178186e-03,2.616674757076016711e+00,-9.788009887169566881e+00
-5.068289945188716485e-03,2.615578049235128155e+00,-9.797787586531562454e+00
-6.803911499558936208e-05,2.617218977266833058e+00,-9.790950170292381571e+00
1.901683505879563432e-03,2.620283439962041605e+00,-9.808160374064245346e+00
9.373246705633253226e-03,2.623385919418552703e+00,-9.774933351524056846e+00
-3.233286455923628858e-03,2.619651388105270318e+00,-9.797738661946064909e+00
1.514457675164099194e-03,2.627533538827127924e+00,-9.783078941833203146e+00
6.541270135230496142e-03,2.625975605453047645e+00,-9.784309285252273725e+00
-1.304761171805456348e-03,2.615220811289638903e+00,-9.802838912763824908e+00
5.304984627427028953e-04,2.619021202115345837e+00,-9.803179123572329345e+00
-6.689942953238580022e-03,2.614306643395706065e+00,-9.794668856056096828e+00
1.321034975226846337e-03,2.618915823387075736e+00,-9.789288948050691275e+00
-1.008585944539693025e-02,2.617398166918346369e+00,-9.801458215612417035e+00
2.999383828436640465e-03,2.624936429318146303e+00,-9.800147596958010965e+00
-4.363501905201954724e-03,2.621986542448754953e+00,-9.803620562753028622e+00
-2.262049381425905534e-03,2.616425561161949798e+00,-9.800403994848545963e+00
-8.827594001919322145e-04,2.618023790257192562e+00,-9.798838787407605722e+00
-7.834770713189434174e-03,2.611235684356755016e+00,-9.799575204881495694e+00
-9.740024521075091074e-05,2.615897105549052526e+00,-9.795225494874250316e+00
-2.151597738232568710e-03,2.629118210346972795e+00,-9.795420203282066751e+00
-4.703661081935052099e-03,2.621264787718127209e+00,-9.772077026090087770e+00
-1.732332085950449071e-03,2.624212010311056886e+00,-9.797667480096540871e+00
-4.121206598410900564e-04,2.615308670666428803e+00,-9.787711023654891207e+00
-5.682678896639720839e-03,2.611722247334546942e+00,-9.803611063482691179e+00
1.172294180652198696e-02,2.615370665702339004e+00,-9.788647488168690458e+00
3.242939104004435510e-03,2.621025655361705731e+00,-9.801164864094463525e+00
-2.148442597944466917e-03,2.628110546590801011e+00,-9.798965692745849054e+00
-3.750635189948943937e-04,2.611532427740581142e+00,-9.794199726004798379e+00
9.581438987262059278e-04,2.614217418607693411e+00,-9.805265012611787512e+00
1.238920876220745391e-02,2.624256855936497157e+00,-9.808728067357375124e+00
-1.777209202718395753e-03,2.617233060617945917e+00,-9.800158839796601740e+00
-5.904219419702108618e-03,2.624328305750526003e+00,-9.788996276287559084e+00
-5.804257355755278701e-03,2.620643015716711322e+00,-9.775707738925808243e+00
-2.221093789700524963e-03,2.611626719499279492e+00,-9.798881186464656778e+00
2.060979705488857113e-03,2.621162111374284009e+00,-9.793024590539330276e+00
-1.961508759828217100e-03,2.614375792807551058e+00,-9.795563327153677946e+00
1.241207304600881007e-03,2.625550111749345827e+00,-9.782827832158201176e+00
6.168173269821758571e-03,2.615834360817105075e+00,-9.787207705136637514e+00
-4.635521280919290520e-03,2.622382486591426254e+00,-9.814882836410852462e+00
1.291430545852487492e-04,2.628944411004433768e+00,-9.793953247059150158e+00
1.834144467644175129e-03,2.613091174154128282e+00,-9.788505905258844564e+00
-7.423880183274759841e-03,2.614509284538744094e+00,-9.796609853262227219e+00
7.397131998758781773e-03,2.625878573352303125e+00,-9.791863052481936336e+00
-8.636922627436734515e-03,2.619141822431311439e+00,-9.799406115113013627e+00
8.345691502018156779e-04,2.618288727559490159e+00,-9.800493454983067565e+00
-2.737395200806656131e-03,2.609416674121520785e+00,-9.786048442105990119e+00
-9.888713347561712413e-03,2.614697827256402096e+00,-9.804385378415068075e+00
-4.016160734449315123e-03,2.618401186172976569e+00,-9.793313638185246361e+00
2.555050565792732660e-03,2.627936652424759600e+00,-9.793395386483965126e+00
-6.408477199031974375e-04,2.622716667365642351e+00,-9.798657891177121826e+00
-1.373379373218574194e-03,2.614370594792377656e+00,-9.792486734810339044e+00
7.793576412850881929e-03,2.621410146526248486e+00,-9.784872762671323443e+00
8.228007903644791662e-03,2.614943105068126439e+00,-9.796378596303009445e+00
4.268280708244293238e-03,2.631322898255384679e+00,-9.798617650808493451e+00
7.728474827241588532e-03,2.613438965702459704e+00,-9.790543830631635913e+00
2.686189627644516506e-03,2.617132207002505151e+00,-9.795789635966530184e+00
-4.847943256518880313e-03,2.623761454737655985e+00,-9.798896205337687348e+00
6.624655551608295626e-03,2.611812220985370470e+00,-9.789990655711767076e+00
3.137454371304918693e-03,2.626448250819343855e+00,-9.799990797421461508e+00
-1.099531718321014075e-02,2.619035083316756385e+00,-9.796509202493947299e+00
-4.007833324372615282e-03,2.614171623093797692e+00,-9.792992800990276692e+00
-9.908189378510975573e-03,2.619503290974115384e+00,-9.801828949879643815e+00
1.481993744011073913e-03,2.625757848217566526e+00,-9.800597845689692278e+00
-1.237964687944081578e-05,2.618022577990017474e+00,-9.799467613975474833e+00
5.724712375095437206e-03,2.614328164668632049e+00,-9.772748290669195370e+00
5.878495322397986854e-03,2.627312599200777310e+00,-9.796853237980817752e+00
-1.805964023453211938e-04,2.609419043178897279e+00,-9.799533883404286883e+00
-2.254161608852947845e-03,2.615390038371627313e+00,-9.798968359010588713e+00
1.020324405854849091e-02,2.624665910281647196e+00,-9.809466059311548136e+00
3.580997029985284481e-03,2.620668273604948695e+00,-9.789553025153608701e+00
-2.820125429637822213e-04,2.604182318166289978e+00,-9.794696836719275268e+00
2.624727626794722067e-05,2.628392745699640098e+00,-9.794947531478927161e+00
2.499430595486574081e-03,2.619488928668744165e+00,-9.793100152639762968e+00
-2.743265141746885870e-03,2.616907675835903557e+00,-9.788115984511572165e+00
3.544658840793635680e-03,2.616004138400433998e+00,-9.793796231103728545e+00
6.960125054339181107e-04,2.612189233251652087e+00,-9.793432737262813603e+00
-1.248765564231283211e-03,2.613107157706242578e+00,-9.811607897892301366e+00
-4.808821115118158619e-04,2.618380353017059736e+00,-9.785827474723438613e+00
1.285467019402048534e-03,2.622050348650681872e+00,-9.798382893554034467e+00
-2.907609963240669754e-03,2.622968130394086828e+00,-9.796204562401953808e+00
-3.703143518523550372e-03,2.610069212090858848e+00,-9.790802074509905140e+00
2.806419783326908647e-03,2.611311080390697814e+00,-9.789377899621436896e+00
-9.809556428480737528e-03,2.620165922248395063e+00,-9.797633613314660650e+00
-4.002792152282282079e-03,2.620448423501138269e+00,-9.802980226005193032e+00
2.383281750746347473e-04,2.619462659157827833e+00,-9.786045911787086382e+00
-1.114229823483574950e-03,2.623918988348362902e+00,-9.783512925463341503e+00
-1.827837777931757765e-03,2.622460406843976966e+00,-9.790600158627245975e+00
-4.944798486373879788e-03,2.608724761707644557e+00,-9.804064087325468080e+00
-5.887678968434199508e-03,2.620512564552266888e+00,-9.802850900732387629e+00
1.700182373789253191e-03,2.620666466875768652e+00,-9.793098331458942596e+00
-3.106023778567727506e-03,2.612103966669812927e+00,-9.797328440229547297e+00
3.818389084385727730e-03,2.615809949337781770e+00,-9.774671502630518205e+00
-3.334223272819449631e-03,2.619679286555209874e+00,-9.796489804783785615e+00
4.335782057340237423e-03,2.625676490006771946e+00,-9.788090034549883356e+00
6.032160633299120129e-04,2.616478389900611212e+00,-9.792376321583123655e+00
4.055546503580118728e-03,2.623545826995800745e+00,-9.799298463472903009e+00
6.005504919867715903e-03,2.620895403088748132e+00,-9.786348686935365748e+00
3.357525484124774216e-03,2.620876629992343165e+00,-9.780890109121770593e+00
2.251806625004755275e-03,2.624934586269276338e+00,-9.790300610773433831e+00
-5.770653264416394750e-03,2.618138486110314300e+00,-9.805491512550545963e+00
5.164478642093849568e-03,2.632316524700405669e+00,-9.793814599783138064e+00
4.757340035812438611e-03,2.627284359058359442e+00,-9.800290280940348708e+00
-1.243570316296254558e-02,2.625013816890660490e+00,-9.793550934922958362e+00
4.133226207805913363e-03,2.617793852021359058e+00,-9.801136585612383101e+00
-9.309964290371904039e-03,2.622028225836944948e+00,-9.789343935433777233e+00
-9.876702762318386591e-03,2.626585046840345328e+00,-9.793980324073229937e+00
4.273199830201235326e-04,2.614924971214340310e+00,-9.802789862237817786e+00
5.102708492914639297e-04,2.630449496230106821e+00,-9.787471291403219809e+00
7.582439294453479674e-03,2.618460526275711242e+00,-9.812344690791650947e+00
2.037561172117284200e-03,2.625673398319801954e+00,-9.786677989975755665e+00
-3.597104024202233373e-03,2.613711070523952351e+00,-9.802801575357216635e+00
-6.815679571544305641e-03,2.615593033633810016e+00,-9.798741024248188936e+00
1.096119909842744114e-03,2.625816640629333509e+00,-9.786409164785403902e+00
-6.334810781602054526e-03,2.618003693191264691e+00,-9.794073886722008737e+00
-4.934005116223029452e-03,2.621010255450466175e+00,-9.793280389360855764e+00
-1.302002443205024567e-03,2.615714470035988892e+00,-9.797389833797186753e+00
-8.228012438645782717e-03,2.618453723248157061e+00,-9.799331873481852639e+00
4.321171864430186672e-03,2.625369194251454985e+00,-9.801720932647809192e+00
1.236144998824708653e-04,2.623666005860398887e+00,-9.804186420083807363e+00
-4.518990966712799727e-03,2.618426235044647221e+00,-9.795316893703686745e+00
3.803976817100159381e-03,2.610238676764559340e+00,-9.796953298066217286e+00
4.662014482047138666e-04,2.619055542920964985e+00,-9.799696258381585423e+00
3.818993679077897774e-03,2.613391137000451003e+00,-9.789824712527236628e+00
6.651530483364765864e-03,2.618810184049952028e+00,-9.795284347241068446e+00
9.521355124812264049e-04,2.614066822344044638e+00,-9.780585827531723453e+00
2.483085647857373544e-03,2.616682954497946856e+00,-9.805363027645727314e+00
5.308631942827207219e-03,2.612562069243003826e+00,-9.776652887550614679e+00
5.928252540809300294e-03,2.611433996782098532e+00,-9.803445768380761649e+00
-1.693283670293327858e-03,2.611599099334175111e+00,-9.798032087110655652e+00
-3.810475095642102978e-03,2.618213127269608975e+00,-9.806322488585317743e+00
1.006101718158257385e-02,2.615384969510284652e+00,-9.803013987818262720e+00
-7.316870665037927129e-03,2.613739090594028980e+00,-9.791803939075544250e+00
1.511040936311959125e-03,2.618025748544356102e+00,-9.800783978797646512e+00
-8.523416603053050877e-03,2.623230449515905338e+00,-9.805926746400748684e+00
-3.147251508422561645e-03,2.627096401015606375e+00,-9.773517125700955432e+00
6.179721061865912565e-04,2.619986599483883349e+00,-9.777639828200973326e+00
-3.872305798473664289e-03,2.623891223671908079e+00,-9.786201994711134944e+00
2.595337137312840430e-03,2.616425019047282863e+00,-9.793586327966828264e+00
-2.917873354702958926e-03,2.622021285393032919e+00,-9.791514033673287543e+00
-7.529929536149357859e-03,2.615220404334468451e+00,-9.797263127805610594e+00
2.519644429477367002e-03,2.624772699757297545e+00,-9.786307360894161533e+00
-3.798166493867148955e-03,2.612430162425178448e+00,-9.793669967103301843e+00
6.980003998359991281e-03,2.615200691733163385e+00,-9.795266478099332375e+00
-4.470122440641769584e-03,2.623911942720595469e+00,-9.803772470562865493e+00
3.911901354255222993e-03,2.612853387036323305e+00,-9.796138568830299320e+00
7.397012039823894734e-03,2.615774256038642775e+00,-9.789464781243882641e+00
3.750208672858940540e-03,2.621199887789599003e+00,-9.800436926005895444e+00
1.075499294300309022e-02,2.622475208625989040e+00,-9.782325862201274091e+00
-1.753757397779979197e-03,2.615735811748503448e+00,-9.791010831100347644e+00
-4.221466247530249009e-03,2.614734952089805109e+00,-9.800126915906613334e+00
7.274125799683929527e-03,2.618294399990530597e+00,-9.795158646280116344e+00
3.206125426916385263e-03,2.621475349833837676e+00,-9.801069457073062097e+00
2.953084472836486896e-03,2.615705559194608565e+00,-9.793556792590171867e+00
5.981616235899359438e-03,2.606381056023731713e+00,-9.791879213053318765e+00
2.795408209694234727e-03,2.621111997854980391e+00,-9.796957296523350678e+00
3.862199035475726711e-03,2.616712164951390474e+00,-9.802266350106854986e+00
-3.717148086182664284e-03,2.620181657949224086e+00,-9.813808786297880005e+00
8.211115468731980047e-03,2.625506774577202940e+00,-9.805523327028886627e+00
2.100029033876788312e-03,2.617017384728880902e+00,-9.797594341161966369e+00
6.902200134355093719e-03,2.616453079893081846e+00,-9.799685801951589781e+00
2.795066452409821975e-03,2.616056319748512937e+00,-9.796497568685683888e+00
-2.552083334904401649e-04,2.619759223641661361e+00,-9.796574535068828027e+00
4.550947421024753754e-03,2.614636669065528274e+00,-9.801271373030068901e+00
-1.324802742417038361e-03,2.621819061159072373e+00,-9.794818196495436169e+00
1.311059592154882776e-02,2.617844013882651311e+00,-9.794720078232952432e+00
7.938527356367569912e-03,2.619869777736961947e+00,-9.799491636974925868e+00
-3.675607110594803720e-03,2.615637504915957035e+00,-9.803166874751189752e+00
7.119129721507378231e-03,2.613554855101549279e+00,-9.795680638577197286e+00
6.008637887528815898e-03,2.611136743581514708e+00,-9.795573897151472309e+00
-3.855027078988972934e-03,2.609225688682838218e+00,-9.797608823595737704e+00
2.309119952980221314e-03,2.619099645540178489e+00,-9.802430703945940849e+00
-3.791884925065812720e-03,2.610833964996765122e+00,-9.784435830924710586e+00
1.937471407174350298e-03,2.616978770665330689e+00,-9.798756870580389133e+00
-6.450747569718254942e-03,2.619253603892400140e+00,-9.785838777513900411e+00
-3.936506181423135402e-03,2.612420374277114377e+00,-9.798187138634636639e+00
5.869897615417868364e-03,2.617585530846643138e+00,-9.803080662783768773e+00
-2.335423306869199422e-03,2.611706856350035633e+00,-9.786673092064154034e+00
-7.428147323772353941e-03,2.619557194417581503e+00,-9.782019415014362451e+00
8.090051170657771781e-03,2.616735917339537032e+00,-9.791385692125109230e+00
8.691685670344881810e-04,2.625639228505256106e+00,-9.793244345111624227e+00
-2.933176945397588352e-03,2.621685342977910338e+00,-9.791658329538766026e+00
3.230248507271790779e-03,2.615194023740946339e+00,-9.780294811517247666e+00
-4.762071778653023668e-03,2.618074020429310256e+00,-9.793537777241345665e+00
8.314759924843218627e-04,2.619456090462555231e+00,-9.793285195130280840e+00
2.481082083447318839e-03,2.622976177145411203e+00,-9.784276400428112197e+00
5.197985535786258694e-03,2.615160725009101572e+00,-9.789746181496417066e+00
-6.852541233147882264e-04,2.623223963988902341e+00,-9.796957596092669363e+00
9.660025353949854704e-03,2.622276895513766082e+00,-9.815430248658641332e+00
-9.199475563805344785e-03,2.624732002503665118e+00,-9.782415086764412848e+00
1.626463896943299882e-03,2.612913341755846552e+00,-9.807866958755473874e+00
-6.311972654176052633e-03,2.618775002431950494e+00,-9.808668320946729580e+00
9.812395234636978048e-03,2.611098756396892817e+00,-9.796587499529236354e+00
-1.394672867575712889e-03,2.624103453399233121e+00,-9.801094373946295235e+00
7.689280544865094826e-04,2.615694015296443631e+00,-9.791899902037355830e+00
-5.302942797124784308e-03,2.615498091168174888e+00,-9.787507474724595369e+00
-1.007180071686362283e-02,2.617211814278421755e+00,-9.780182976600771738e+00
9.500469420971290047e-04,2.612697241024148465e+00,-9.790390549245929108e+00
-4.552751334875397224e-03,2.623098525364312206e+00,-9.794626194365248395e+00
6.894368556369494532e-05,2.622618272410200291e+00,-9.784849957618392935e+00
1.421583065781697010e-04,2.621355192720185023e+00,-9.793520497705108241e+00
2.304013851506384655e-03,2.623812935661355539e+00,-9.791317299000009911e+00
-4.662175283576108081e-03,2.619595683664149188e+00,-9.780168390110359766e+00
4.957545273039653221e-03,2.612924762873606976e+00,-9.791881072233106664e+00
2.027296215125780083e-03,2.610299246626163416e+00,-9.785610755811289252e+00
-3.545785284498934910e-03,2.624520911193439332e+00,-9.789993183971796853e+00
-7.228430149690817782e-04,2.616352886004074563e+00,-9.799311298827158012e+00
-2.536381102647300694e-03,2.615895979486956513e+00,-9.794982935224936682e+00
-2.693212805054691697e-03,2.621667894284938516e+00,-9.797790589930226446e+00
6.174401684613695096e-03,2.626358678277995296e+00,-9.791722333898677633e+00
-1.632696192543448737e-03,2.621243776046552121e+00,-9.790903317352341872e+00
-6.580787952063190706e-03,2.623996969627925502e+00,-9.797666440412509559e+00
1.085197691053757388e-03,2.617540037184383994e+00,-9.810743295155917920e+00
-8.784331265212531881e-03,2.617508532670994370e+00,-9.784779221077643641e+00
2.862377778247140060e-03,2.623839323497697329e+00,-9.787729159952682778e+00
-4.418001067423090941e-03,2.613487725406857809e+00,-9.784398885331560436e+00
4.189980597659064866e-03,2.620290795541540874e+00,-9.795611809349914267e+00
-3.246400393964327287e-03,2.617340595224462607e+00,-9.801886242012168182e+00
7.004161532877307451e-03,2.617248503667661375e+00,-9.798453743777972846e+00
-3.629039354679239673e-06,2.617308765801262815e+00,-9.801957381711710937e+00
4.658403324291564285e-03,2.617775949212425957e+00,-9.787194549769823837e+00
4.365749657173962316e-03,2.619620981348925959e+00,-9.799161658827689081e+00
6.042345264518420370e-03,2.613744619882711451e+00,-9.797578993398342817e+00
-7.461391288695894825e-03,2.623306737995865667e+00,-9.778904772913373122e+00
2.803292905326463299e-03,2.620081290426814480e+00,-9.799174436915455644e+00
1.563724766876068784e-03,2.615678809905092717e+00,-9.795371670455079283e+00
4.181535429486657289e-03,2.617882727164513756e+00,-9.789730043971422546e+00
-6.225252075138659746e-04,2.612947570597036417e+00,-9.793194118437945406e+00
-5.154642965467438713e-03,2.615668485708447566e+00,-9.789239151815614548e+00
-4.991319654960562485e-03,2.610978614476381576e+00,-9.801806928968456845e+00
-1.614244227322534633e-03,2.623473175967189430e+00,-9.804215866459912831e+00
-6.567601169259363637e-03,2.611299906543636862e+00,-9.816619505217996533e+00
1.399959493720744942e-02,2.611549565503136883e+00,-9.802150600952758808e+00
2.497916062325328257e-03,2.624904852182373904e+00,-9.785443146396049841e+00
-4.646767027948849396e-03,2.620062080166734031e+00,-9.793952995525994965e+00
6.759845551233588726e-03,2.612396143219770206e+00,-9.798584324519280742e+00
-3.033563458023189226e-04,2.608305178061212537e+00,-9.808776478977653923e+00
-7.080795327582716132e-03,2.623397746959410970e+00,-9.801335131331667228e+00
-5.301082504824976456e-03,2.618678483149499137e+00,-9.793709185641274573e+00
1.049554110662922037e-03,2.607721249302491717e+00,-9.794701057559091595e+00
1.284184436796306653e-03,2.617212166875606538e+00,-9.784084130179156347e+00
5.493460916666851289e-03,2.621937960997535733e+00,-9.792927286062898418e+00
9.427995020625628804e-04,2.626426416131995456e+00,-9.802799463955974346e+00
-3.115290424754763748e-04,2.609992079449156233e+00,-9.805355509296957095e+00
5.348824035487833445e-03,2.612507154932759867e+00,-9.807935657784643269e+00
2.786264762952490349e-03,2.618336077700623932e+00,-9.793668490457532627e+00
-6.923484456976561341e-03,2.613153368168009916e+00,-9.794412541362264690e+00
-2.384132627223285641e-03,2.616965150656183514e+00,-9.793219838383112830e+00
-7.831927418329802035e-03,2.621845000630934397e+00,-9.799491431176329925e+00
-7.546297632925372256e-03,2.615542198506023208e+00,-9.790691778995707750e+00
7.976001282774028076e-03,2.613464995449932271e+00,-9.794078184966950928e+00
7.712746287748752268e-03,2.619798728789688003e+00,-9.796816296505189925e+00
2.969182692120649861e-04,2.623713921453267428e+00,-9.789829119519231071e+00
-9.527617670584105983e-03,2.610085139987701197e+00,-9.818805896178030679e+00
1.718138073160481926e-03,2.615526099941494653e+00,-9.804099839255302484e+00
6.636887060255324336e-03,2.623627409143826750e+00,-9.809581852508632238e+00
-5.298383344239109699e-03,2.616819786691518601e+00,-9.788800548637695442e+00
-1.901069411273572513e-03,2.620249605103382784e+00,-9.782220017038225635e+00
-4.455273022383671351e-03,2.616759073762052967e+00,-9.797169223485044043e+00
-1.227343358114690560e-03,2.631588324523868483e+00,-9.792638719405825753e+00
-2.748839292868061716e-03,2.623726113388900938e+00,-9.787674954160259233e+00
-2.215691107545360739e-03,2.624105483380483328e+00,-9.785676824184085021e+00
7.739426850042598147e-04,2.613657669974243092e+00,-9.795179212965646087e+00
1.626099331018062560e-03,2.620847850079301988e+00,-9.800275740717500739e+00
-8.778603729189113011e-03,2.605894621854620841e+00,-9.799407987521249197e+00
-5.378539322962077110e-03,2.612198738065876658e+00,-9.775087781010633137e+00
6.473860966547248172e-03,2.622032748699741678e+00,-9.800171531799000135e+00
3.389030345062577594e-04,2.619140287927194333e+00,-9.798731692283766392e+00
3.036812127084025439e-03,2.617720430581111479e+00,-9.788417923161368606e+00
-8.487320557946765958e-05,2.622584851543099393e+00,-9.791852135900660059e+00
8.281982076293579326e-03,2.615410079124599552e+00,-9.794632983724657294e+00
2.178165998452448026e-03,2.619551807129313126e+00,-9.794418219235639711e+00
4.731693357075014391e-05,2.624392914302129842e+00,-9.792960688369678479e+00
-2.061272239797701071e-03,2.618145390787363080e+00,-9.787449721852086171e+00
9.811856700252775346e-04,2.613709765306615029e+00,-9.808661176942900184e+00
3.410082099974036038e-03,2.608953409630637044e+00,-9.784610200518448764e+00
5.367459283860119860e-04,2.620320287668039150e+00,-9.803017770370546558e+00
8.321519516688538620e-03,2.617254280921009091e+00,-9.800088852721360766e+00
3.170379401052862440e-03,2.614125745924750888e+00,-9.794471780503020142e+00
-2.052019786558222179e-03,2.614498571420443618e+00,-9.803803881186148317e+00
-2.224934249870960754e-03,2.624478707072869899e+00,-9.799038391335725962e+00
2.878227230028833784e-03,2.612386526498571726e+00,-9.811357209625112930e+00
-1.100179714903409866e-03,2.619536871023605773e+00,-9.781638532979766154e+00
6.495325188367873960e-03,2.619960775899439653e+00,-9.781441538676968861e+00
-2.255652528329109112e-03,2.615195946275591599e+00,-9.795909522959679094e+00
6.180894476640171921e-03,2.617318842714071447e+00,-9.774072885042032865e+00
2.600380288184830067e-04,2.618747617477213296e+00,-9.793758084072864634e+00
5.100255447985109665e-03,2.621479480802024753e+00,-9.804417011375631930e+00
-3.553644470382481997e-03,2.623821471435900499e+00,-9.795958787735393969e+00
-5.189284046804500984e-03,2.618579925911781014e+00,-9.807547080271580953e+00
2.682227770477433292e-03,2.616990503803221291e+00,-9.797971227949517470e+00
3.926232462200835750e-03,2.618905180232601992e+00,-9.790389225351059821e+00
-5.007975221840888121e-04,2.613883324782638073e+00,-9.785443857499187104e+00
1.076384364569472375e-03,2.620311101237311924e+00,-9.797686171162593993e+00
-4.022094032286756965e-03,2.623945439240400912e+00,-9.787515206655836408e+00
-6.318235459943854007e-03,2.604620349996266793e+00,-9.810750173679622321e+00
2.772534832229393582e-03,2.618264102796985515e+00,-9.787120757922265213e+00
-2.403253552218342828e-03,2.608298506882152701e+00,-9.792228232649712538e+00
-8.543190483628844423e-03,2.620836404689465660e+00,-9.792058132221450606e+00
-1.173786305883947606e-05,2.609709136002472007e+00,-9.797960447925072813e+00
7.233997209447565885e-04,2.609771217520936659e+00,-9.794115255882832827e+00
6.055507647818174875e-03,2.615151454558068966e+00,-9.800681238679594287e+00
-1.006201369571998322e-02,2.616671241667617220e+00,-9.794860965663390928e+00
3.105326199405429935e-03,2.622334993654243274e+00,-9.801899806295107709e+00
-3.080495730490719931e-03,2.613758184605847301e+00,-9.815303303857151107e+00
-2.629550870127327425e-03,2.621236985638669026e+00,-9.787441697111754380e+00
-5.029215886294086807e-03,2.617131920947358914e+00,-9.810377314289210560e+00
-2.775718831111338974e-03,2.622297266826539186e+00,-9.791633491210241402e+00
1.278272343362298058e-02,2.618180603645985371e+00,-9.806747095492905686e+00
-5.664039927131449791e-03,2.623372396464185741e+00,-9.788502952070816221e+00
-1.587960606765571837e-03,2.622010482647146201e+00,-9.796324159293067879e+00
-6.789850240461729573e-03,2.617225809947326898e+00,-9.794202315477926746e+00
-5.086087748714047778e-03,2.624105307209540161e+00,-9.789873521882549667e+00
5.009248115896035823e-03,2.613466787477552788e+00,-9.782300744739806930e+00
2.126876635109835149e-03,2.613447178021899742e+00,-9.799994175787755779e+00
-5.659198456829436959e-03,2.619827195494246475e+00,-9.788768640405846710e+00
4.766041688769358654e-04,2.612786902049242688e+00,-9.792754835122137180e+00
-3.671652814434723730e-03,2.621435503298129355e+00,-9.777673013498354493e+00
1.420500748784235025e-03,2.619945304526877461e+00,-9.803184510197151980e+00
-8.861695112473708461e-03,2.607737851270546692e+00,-9.795258493638684172e+00
-3.480686037162037533e-03,2.613487781091112794e+00,-9.792442583246966592e+00
-3.695515199679039273e-03,2.616661281573577025e+00,-9.789774833560153766e+00
-1.144936364800906541e-03,2.616716489847350946e+00,-9.774216382271335490e+00
-2.409244582927379166e-03,2.621606571138571429e+00,-9.779012949400264887e+00
-9.675044042829897880e-04,2.620060294855686589e+00,-9.784671925862305386e+00
-1.017245144975881255e-02,2.613703015254972950e+00,-9.800516287694911455e+00
-9.154133949166887510e-03,2.619205234758130274e+00,-9.786600576499047577e+00
1.479983925232217267e-03,2.623461431492761786e+00,-9.806050555136573976e+00
-2.100938490648232224e-03,2.618109762372735183e+00,-9.811447596159192486e+00
5.767412932821658865e-03,2.610004107526934458e+00,-9.786574303517513229e+00
2.856870170418846205e-03,2.614179791896511507e+00,-9.813389709990085308e+00
-4.856778623285558545e-03,2.615780503096167831e+00,-9.799893552352390458e+00
8.326337649286497458e-03,2.626836884090701485e+00,-9.804146279290337773e+00
-1.269597809698469297e-02,2.621536762798589049e+00,-9.794943602321486864e+00
1.147116161985656550e-03,2.617698074141304510e+00,-9.791299359903364419e+00
4.933874009012079696e-03,2.626238304262602075e+00,-9.791882600089618194e+00
6.574451468874651814e-04,2.625910862791126732e+00,-9.804931892954304118e+00
-3.556713595748893769e-03,2.612890526813517855e+00,-9.795599261576221295e+00
6.496697016504186968e-03,2.625622166644407063e+00,-9.790354652636953148e+00
-8.045314213053642027e-03,2.619701943942717826e+00,-9.796784872255804189e+00
4.203023751955307225e-03,2.617637604868519929e+00,-9.791402990532391826e+00
1.565087201219272309e-03,2.610656419541148576e+00,-9.775436992805978775e+00
-8.349143862542266620e-03,2.617163102043179812e+00,-9.792600023889654892e+00
1.382686231073539367e-03,2.618041539214510660e+00,-9.802984502780155651e+00
-2.733973969329413830e-03,2.612576467272031522e+00,-9.791063623790174475e+00
-8.001200247659741652e-03,2.619635503987592706e+00,-9.807598037805359326e+00
8.400771110541134859e-03,2.622743854268540620e+00,-9.797762300290905557e+00
8.177156987666877415e-04,2.612986034923383105e+00,-9.781046539469979706e+00
3.646185662272593674e-03,2.626083409150249626e+00,-9.798777303487810286e+00
4.604191532498982074e-03,2.625554288516060986e+00,-9.783346136181126695e+00
-9.615406179331419459e-03,2.615294736057808489e+00,-9.798248094757971316e+00
5.700108960984240705e-03,2.609958030991003763e+00,-9.795906877612457819e+00
1.128742615647531939e-03,2.613792996079237874e+00,-9.801355972488000390e+00
3.494433427670422861e-03,2.619223360533858624e+00,-9.800127867957087346e+00
8.765706994527887840e-04,2.617219581835128484e+00,-9.785077142053609123e+00
-1.673333103865192253e-02,2.616202193336962356e+00,-9.795367208628924516e+00
6.831626035477410437e-03,2.611312017587619216e+00,-9.799754252899932183e+00
8.869865811935882458e-03,2.613270499428767213e+00,-9.805179257698325657e+00
-3.701630877363484839e-03,2.618272075671783661e+00,-9.792296953695785788e+00
-3.682374848412293955e-03,2.627536352826793209e+00,-9.769116324434611087e+00
-3.658503796784088376e-03,2.619616707757872476e+00,-9.800045753933133597e+00
-9.321509464449729068e-03,2.610572706301781398e+00,-9.791126110049360065e+00
2.210277745900708895e-03,2.626564311592504364e+00,-9.795213841569895052e+00
-2.180787864124389668e-03,2.620652885938724364e+00,-9.790991556743005475e+00
-3.071037039879471239e-03,2.627931263903134251e+00,-9.799084843749835017e+00
5.439989885219146358e-03,2.620308140989350942e+00,-9.786930378926456342e+00
-6.403292437633026704e-03,2.616546225733067832e+00,-9.798849018454689030e+00
-9.366749343916633622e-03,2.609316216562606705e+00,-9.797117885068638898e+00
-2.755866595854347244e-03,2.626283477293941182e+00,-9.791050441893236922e+00
-4.298649796745875745e-03,2.626250918879974083e+00,-9.788567455041034648e+00
-1.225395458873867853e-02,2.617736612794038464e+00,-9.797556596726249012e+00
-7.621641123914424040e-03,2.620573520048914862e+00,-9.800545871335792469e+00
-4.710623587086699288e-03,2.610335724882718811e+00,-9.788847094911323765e+00
5.761087095853162018e-03,2.620122333173988238e+00,-9.793625375190270432e+00
-2.863813959247416517e-03,2.618933418682436010e+00,-9.791678571891193172e+00
4.487797167536786494e-03,2.619675899975150823e+00,-9.791098900689659601e+00
-2.104828441655941522e-04,2.617600366027871051e+00,-9.807525056275359532e+00
3.276508352572350246e-03,2.617666159319556041e+00,-9.784813853742628353e+00
5.675306077694641273e-03,2.619382918005655370e+00,-9.800851155166936834e+00
-4.247725739411914664e-04,2.626003292549195844e+00,-9.779199118401221469e+00
1.940708320955445354e-03,2.620275606677489044e+00,-9.790605922155569019e+00
4.765209052283357616e-03,2.621570505231199277e+00,-9.797780859724820601e+00
-8.882945339735502481e-04,2.622576172702516306e+00,-9.796233511473857902e+00
3.150707896909080846e-03,2.619573276615511315e+00,-9.792464615906276038e+00
4.183720316265317142e-04,2.614212800484986055e+00,-9.787445648119556196e+00
-3.465285652138863550e-03,2.615614638111602552e+00,-9.792997079822622908e+00
-4.730528383161328523e-03,2.617680973830977198e+00,-9.798206794993742363e+00
6.774668795262722178e-03,2.610289995594739842e+00,-9.789395757488840388e+00
-6.589279700325257824e-03,2.625284578214441833e+00,-9.799739827024659178e+00
-5.574755385821382903e-04,2.627061715134573650e+00,-9.799085601461650086e+00
1.491007261969315737e-03,2.621765938294147169e+00,-9.794193425816066778e+00
-4.040765899102832098e-03,2.625002214684651225e+00,-9.800484962448043902e+00
2.694451570969620593e-03,2.617429965131931713e+00,-9.793778253535071698e+00
7.221963104945552762e-03,2.612060897088843259e+00,-9.793240654532786138e+00
-3.308583456847855476e-03,2.614029366404440502e+00,-9.801596347753699590e+00
-2.976613709499765278e-03,2.616578039249684906e+00,-9.806839134401599267e+00
-3.561723694393743173e-03,2.618970045011692171e+00,-9.800783150490836704e+00
9.323377119169098948e-03,2.620630175157231179e+00,-9.785123300360485388e+00
-8.039631823588737347e-03,2.623794180811732879e+00,-9.787940819574123097e+00
4.276158361946523490e-03,2.615495869393382300e+00,-9.804006043828456640e+00
-3.912499801503381731e-03,2.616775202062032957e+00,-9.791197010832508596e+00
1.159295289065836662e-02,2.622376056093840724e+00,-9.780054329133943014e+00
-2.608635343938885392e-03,2.616950743099918597e+00,-9.795559198715071858e+00
3.000236634933717999e-04,2.621123124757298140e+00,-9.796618807342310831e+00
-9.006290826757414394e-03,2.623721530948589287e+00,-9.797594019319946668e+00
-1.085939289224296164e-03,2.613522565221251703e+00,-9.813829331256570754e+00
-1.323173503870700993e-03,2.608893977307648715e+00,-9.799559030380219582e+00
5.363083731681969613e-03,2.618866955925162721e+00,-9.794157390546523345e+00
-2.205770872015491626e-03,2.620809793331844162e+00,-9.783277355776879958e+00
6.698030339807077224e-03,2.609443271960481869e+00,-9.783388879741716337e+00
4.138199754632958076e-03,2.623155638623642094e+00,-9.778884661693428626e+00
7.437695351491014489e-03,2.616093351438587344e+00,-9.795333814893799840e+00
-1.190433522703515309e-03,2.612810673590903132e+00,-9.787739049503073829e+00
5.865924976273787297e-03,2.615771275367019921e+00,-9.795490380493800942e+00
1.018750723436155116e-02,2.618977886212717543e+00,-9.795575779165861974e+00
4.716351580287769796e-03,2.624792073060336239e+00,-9.798207702700453936e+00
-4.165314286040358756e-03,2.623072548917994240e+00,-9.781358660552125883e+00
-2.845318685358466052e-03,2.619745348045589228e+00,-9.795190071528212528e+00
-3.482385891970015811e-03,2.347393369936287222e+00,-9.791441570895406343e+00
1.677973113761353774e-03,2.115333373077481482e+00,-9.801692454521337083e+00
3.672961420264317899e-03,1.917494090648202532e+00,-9.782220018788136073e+00
1.391822013561506489e-04,1.703995028971218462e+00,-9.799391296371229743e+00
-3.346117814771468624e-03,1.548103519361803126e+00,-9.806163536704087136e+00
-2.493502219504628321e-03,1.396748040521927026e+00,-9.792597681666830312e+00
6.895688256289899537e-03,1.251305697110408399e+00,-9.784238045038678777e+00
3.870219531790360708e-03,1.124294876768560769e+00,-9.790676320981287262e+00
-4.718018224869053971e-03,1.016016167040202589e+00,-9.798841942342210842e+00
-1.653278734686150888e-03,9.223344848707494270e-01,-9.786299917140349081e+00
3.979489965438819284e-03,8.249337582010234371e-01,-9.798357986019000876e+00
2.189460454422904098e-03,7.357604444585246206e-01,-9.784836331519011665e+00
-1.521613312395821843e-02,6.697242269109012769e-01,-9.806222977447582423e+00
1.593208994140582447e-04,5.941808376384413171e-01,-9.805026878746785357e+00
-8.757136159648484103e-03,5.356023347632938858e-01,-9.804157969673759965e+00
2.949596624718121493e-03,4.840077523666546089e-01,-9.792986145539938292e+00
3.438278673340524737e-03,4.332889933331235399e-01,-9.806302843750257736e+00
1.972188676800839483e-03,3.870916577230820721e-01,-9.797754867323932970e+00
-9.875605157956559264e-04,3.616311249526571459e-01,-9.783434988177123870e+00
-3.123779214297078377e-04,3.192998774884023838e-01,-9.802294215071878369e+00
4.519543903854911920e-03,2.794460076364732593e-01,-9.781461205049238217e+00
-3.217681361362016712e-03,2.627484810586739328e-01,-9.783485879467704649e+00
-7.127256387802463969e-03,2.369831559155155531e-01,-9.801112673388875152e+00
2.652634135210643097e-03,2.073841507924122363e-01,-9.787295861423734422e+00
-3.867397113046136970e-03,1.967952702285949984e-01,-9.789437409665620038e+00
-4.131128613495384998e-04,1.705956792004948430e-01,-9.805142977366598345e+00
-1.536845948031775703e-03,1.504591761884321033e-01,-9.792712655410998224e+00
-9.500052943233770536e-04,1.349159484662385278e-01,-9.786437266648436051e+00
-3.648898092492046819e-03,1.134720825236163466e-01,-9.802725202771702229e+00
-5.678439645698512422e-03,9.976785619046003861e-02,-9.801861413286768965e+00
-1.132728720903288184e-03,1.068367482864527179e-01,-9.797160440215840538e+00
2.388216048285538625e-03,8.851278939780651833e-02,-9.787075710920341010e+00
7.017783181476665820e-03,8.073294358570770601e-02,-9.783090383427616388e+00
4.504689871467652471e-03,6.304353844779420069e-02,-9.791420210170386440e+00
1.153007404909578079e-02,6.347628657893730764e-02,-9.798878797569475552e+00
-6.788992165232848874e-03,6.315186178953717533e-02,-9.790992707241612081e+00
-1.127400810374800874e-03,5.073905329952881765e-02,-9.779927870959726377e+00
5.583171820081721769e-03,4.782482113138783464e-02,-9.787450358979800313e+00
-4.258027800878012512e-03,4.656378297706185304e-02,-9.799023283588779165e+00
-6.981376634642108038e-03,4.605962337065443862e-02,-9.799352471674497522e+00
7.704186980729285997e-03,3.183057874429335438e-02,-9.799512514544229447e+00
-4.759276712395813999e-04,2.763145337285748820e-02,-9.791714349043200372e+00
8.126139197699179181e-03,2.873930280709107235e-02,-9.809902115990357885e+00
-2.968519638089384908e-03,2.711916283387905829e-02,-9.780967522603853936e+00
-2.258136141701579287e-03,2.046676377156510587e-02,-9.795041445691198945e+00
9.451880388043435235e-03,2.140484837061662482e-02,-9.802584699448157579e+00
-1.774837562247142970e-03,1.461270888357135180e-02,-9.784333843121000740e+00
-8.702002366615805770e-03,1.467888451589000401e-02,-9.801490705932359049e+00
3.362265347200547958e-03,1.709814541829937987e-02,-9.807562567988355795e+00
-5.092977727853937979e-03,9.335791464404871731e-03,-9.792753968559559041e+00
-6.897009512491659305e-03,1.401065652674918401e-02,-9.791242813985199689e+00
1.460056415226152881e-03,6.803997752423120333e-03,-9.795671584848864910e+00
8.316220451933578270e-03,1.344472836204441135e-02,-9.789026098413065924e+00
1.663592398717486090e-03,1.109060093715468973e-02,-9.794919060828979340e+00
-4.979120942260615960e-03,1.093812546824678850e-02,-9.808506759900927463e+00
-8.675381900870800939e-03,1.036582623969255559e-02,-9.795266504705057997e+00
-7.831904524537367310e-03,4.351891433749260560e-03,-9.793502700317405996e+00
1.973571411619726938e-03,5.053845555339968841e-03,-9.776680572356728049e+00
5.117127416522976660e-03,6.676062132591140293e-03,-9.800382300201547991e+00
-6.490301693283942810e-03,5.815711630452043319e-03,-9.785265615754878965e+00
2.980415180106461143e-03,-7.727114633724772516e-04,-9.782387544378684296e+00
6.311909239049572767e-03,7.553200924703112190e-03,-9.793061179090763346e+00
5.205982920688882395e-03,5.716879185024188043e-03,-9.792989016166496086e+00
2.918079601455768942e-03,6.187680378295307496e-03,-9.805311004821010812e+00
-3.081837438333924093e-04,8.292033588650263819e-04,-9.781345495228013220e+00
-1.362026251649763649e-03,4.616836862830653310e-03,-9.797821896767501926e+00
5.639330919028704391e-03,8.696093724621576076e-04,-9.792561865603300220e+00
-3.928082596447605122e-03,6.004686979720891618e-03,-9.791620397812650367e+00
-2.395765101599538465e-03,7.009702061421678107e-03,-9.792238669176962063e+00
-1.032121273491859968e-02,3.855591687440272468e-03,-9.796880348600318200e+00
2.881305713870922682e-03,7.087034540416805792e-03,-9.802702198447073911e+00
-1.455938941680066869e-04,1.664338344140141529e-03,-9.797838300610411721e+00
7.670722053584558275e-03,-4.777718780126376068e-03,-9.795046713397177029e+00
2.665228420111974243e-03,-4.092288050754688128e-03,-9.797366747857292779e+00
6.311786150432832643e-04,-4.979892804200585985e-06,-9.785627257712276261e+00
6.007984479077706393e-03,-5.235994110957466197e-03,-9.797761949823344807e+00
-6.483435443873658381e-03,1.225152111318172747e-03,-9.796233225959150914e+00
6.600865171382397888e-03,7.153994286378369261e-03,-9.795405591055084571e+00
3.581315537882363495e-03,9.814493659796688294e-03,-9.779382107375445443e+00
1.374442823314933615e-03,-7.600071858287625777e-03,-9.789004872113723721e+00
2.303172856575933913e-03,-2.423143478903848867e-03,-9.809095782548689968e+00
9.662099656803877510e-04,-5.616723302295404535e-03,-9.777982110037713781e+00
3.448628211093454372e-03,5.534651379626857534e-03,-9.787997032658903862e+00
-3.659399007854712785e-03,-6.542124327867384140e-03,-9.799180109367471303e+00
1.183766497064614887e-03,-1.183687528550336201e-03,-9.790601725927153609e+00
-1.896314914328354421e-03,7.074113204969457135e-03,-9.779353633975917504e+00
1.911237238016090653e-03,7.063491159965631754e-03,-9.789355557998923985e+00
-1.824853370412185061e-03,6.274032244004021548e-03,-9.808384682633189300e+00
6.586562222609675284e-03,3.513792853658131553e-03,-9.798419558587450950e+00
3.929356879449348583e-03,-8.957734059724270850e-03,-9.784627214382263460e+00
-3.990769801360215946e-03,5.831272330734551916e-04,-9.787795984712706954e+00
-2.664539044752191159e-03,1.842122891084425505e-03,-9.785248439409517829e+00
-8.082950140159790228e-03,3.519662609838119789e-04,-9.786094872767300501e+00
-1.367945702521406468e-03,-7.744689899938568024e-06,-9.777769801897123969e+00
-4.991646937304653462e-05,-3.003005168119532182e-03,-9.802234645691164872e+00
4.336665314521591895e-03,1.536369076986072134e-03,-9.789588876018241237e+00
4.783334183617922279e-03,5.156305867322955559e-03,-9.801911443527922430e+00
-6.567372425465572636e-03,-1.550894760101746012e-03,-9.801173318437655269e+00
1.097227257830416403e-03,-1.730831396847229940e-03,-9.805162003148879535e+00
-9.592620552633365771e-03,8.754402389654441195e-04,-9.795780347463441728e+00
2.971820090171441837e-04,-8.447235578116455302e-05,-9.805740281188635166e+00
-7.165408076897732820e-03,1.678971692425146323e-03,-9.812806718635901149e+00
-3.186169832672002510e-03,-5.082488032846939167e-03,-9.790739125373756124e+00
-2.269225727578690153e-03,1.054558521079685188e-03,-9.783570745480284714e+00
4.391150126938145673e-03,-2.033318005180952126e-03,-9.791645883492016367e+00
-6.119731404225405534e-03,-1.210749005687888208e-02,-9.790356989770826246e+00
-4.373417893598881626e-03,-7.405162983608932874e-03,-9.801071630982137961e+00
1.004563765305232538e-02,-1.001355772631362141e-02,-9.796547250709785715e+00
-8.756932618522828699e-03,5.994891420580120665e-03,-9.797865548343780873e+00
-5.450474755516667748e-03,-1.312514328876736476e-02,-9.808123302115362208e+00
-2.471908015594254386e-04,3.581300216502006362e-03,-9.795523977608215915e+00
1.284157663091443045e-03,1.185057038543997198e-03,-9.802740372422327653e+00
-3.020205473322262117e-04,6.617190272742853700e-03,-9.790867055391984763e+00
-7.227946603383834066e-03,-2.921122575103514245e-03,-9.804837829844178287e+00
-2.607059938312636035e-03,1.562233452969765323e-03,-9.783615477780982062e+00
7.369245580530991296e-03,2.789730432567716269e-03,-9.786893137616891281e+00
-4.261789699888431267e-03,6.579766093517384722e-03,-9.795445614973626647e+00
-2.886593271563916551e-03,3.357393252205088593e-03,-9.800540139669093875e+00
-2.766692278237311946e-03,-3.139859826868197229e-03,-9.801259492832684828e+00
1.519640821415853575e-03,2.360964591800636392e-03,-9.805518214025696011e+00
7.147684516891621154e-03,-6.631765870466915964e-03,-9.782991318555321669e+00
-6.721451407404037837e-04,-1.046690931625202624e-02,-9.796837344685316751e+00
-5.227760644110642126e-03,-5.160114504191595092e-03,-9.794572528287242008e+00
-5.435270282376562095e-03,-8.579019093065614471e-03,-9.791495906396415094e+00
-6.825390220646288322e-03,5.117999565790715306e-03,-9.795211577928100155e+00
6.131386114416105017e-03,-1.051939414233447195e-02,-9.792895023045520730e+00
-7.367016939369230941e-04,-8.290759594971810077e-04,-9.806284191955271012e+00
-1.999610065983401658e-03,7.133875360444048332e-03,-9.789541519875957221e+00
7.794679820862426747e-04,6.843686014279507131e-03,-9.792252077678220701e+00
-7.963981712127400636e-03,-4.355554870514476346e-04,-9.804284562101573286e+00
-4.094256581134481142e-04,-2.205719199864997031e-03,-9.800040123174612816e+00
8.748000585695334813e-03,1.445906508493097729e-03,-9.803717147812317734e+00
-8.572169484340795911e-03,6.729136166878587483e-03,-9.786655220833525348e+00
3.107926563182449031e-03,3.668524040824500403e-04,-9.799812114225693094e+00
3.622730624147738922e-03,-1.856657102420422242e-03,-9.785342304666748703e+00
-6.670807718466864947e-03,3.221073233789810506e-03,-9.790612512614238483e+00
-3.990771145438339919e-03,-5.973758527984777446e-03,-9.784599125893047145e+00
2.002680638054619728e-03,2.365647263243004020e-03,-9.781140611830741349e+00
-1.835243740072896703e-03,-1.041588006530838259e-02,-9.793278811105796677e+00
5.914074920120279515e-03,4.089499496032648678e-04,-9.801061534241704010e+00
2.551545543791360255e-04,2.835167789220934247e-03,-9.799160639119028460e+00
-3.871029842919831813e-03,-2.713883976843082385e-03,-9.794804228838051685e+00
-2.897728564825352744e-04,5.148354191824217919e-03,-9.803906087939854075e+00
-5.670133069410871092e-03,7.591565337821892627e-03,-9.801159179621592443e+00
-4.659051369487674822e-03,1.381857209733820596e-03,-9.798364204267466349e+00
4.474595647304298318e-03,4.102951765008112142e-05,-9.778736347017424890e+00
-1.039506208482737711e-04,-3.028201852304227958e-03,-9.794128066015884926e+00
1.490447248089160756e-03,1.915664793662704649e-03,-9.814964576379255234e+00
-1.436502288821463191e-02,2.929891750557116464e-03,-9.786041428746449000e+00
1.379898404158026552e-03,7.407935957334177250e-03,-9.781733944924679847e+00
3.066435916265454736e-03,8.309663605771542422e-03,-9.797877341021328235e+00
9.533069878180214229e-03,3.979804943704306520e-03,-9.785779084771521141e+00
-1.052354892581660413e-03,1.164422046929642273e-03,-9.779177723815694279e+00
-1.005246184136187639e-03,-1.798303557480560640e-03,-9.799357778727527446e+00
7.604809799334656542e-04,5.001381641700215590e-04,-9.795618330826428632e+00
3.962567031334430015e-03,-7.439214717569304740e-03,-9.792125266800987049e+00
1.566839654239522575e-03,2.665952376245214099e-04,-9.781806543498809958e+00
2.625499280406947984e-03,-6.144064353864209065e-03,-9.799926152967488591e+00
7.978919014053065251e-03,2.585642442909346327e-03,-9.792841731301820118e+00
2.307469763990134971e-03,-2.235167016350361746e-03,-9.792907492369277378e+00
-8.116819322572103521e-03,2.378357556965843885e-03,-9.799128445829499157e+00
-6.045712817992861992e-04,-2.630341433101955791e-03,-9.791079322775081195e+00
3.665085359920078334e-03,9.590003043475231817e-03,-9.802980695049299698e+00
-3.915835177121715621e-04,6.257212346511483413e-03,-9.808906950985431195e+00
-3.580738959068767522e-03,-2.797344186514504148e-03,-9.781530167118733132e+00
-1.663017298656274331e-03,-4.450149493695042778e-03,-9.791677548081661797e+00
-4.963561272021058254e-04,-2.700147977082764054e-03,-9.796033201324510387e+00
9.814833335016107108e-03,-4.369783786785354229e-03,-9.800704338906795599e+00
-1.284893259388803811e-02,4.029360286087315464e-04,-9.799848115431126772e+00
5.598957675551080246e-03,-4.538640251550469943e-04,-9.787881131147758040e+00
7.786508300940710430e-04,-8.993152108089376776e-03,-9.804374159053283577e+00
3.856971676153408274e-03,6.252866436910274606e-03,-9.793998176885063245e+00
-7.387773124788718027e-04,5.964696234991488308e-03,-9.789549244829826691e+00
-4.665444411697125537e-03,1.017928440772253480e-02,-9.796318003738766933e+00
-1.198726854319133450e-02,1.880965796292488178e-03,-9.800076485541509896e+00
-1.712468638752274791e-03,-7.543459245197310994e-03,-9.791348265509894233e+00
-1.242140108754763688e-04,6.212824954470705201e-03,-9.781359636457297668e+00
4.091446530689191695e-03,-3.107341212314244754e-03,-9.819113234117320843e+00
2.230108400812599000e-03,5.543128662992195897e-04,-9.798481829897191631e+00
4.387905510583055974e-03,-7.536764408360573271e-04,-9.789684060083070349e+00
2.747373863168636396e-03,5.497158099855669125e-03,-9.779123939808219035e+00
-5.909604642766111762e-03,-5.777814452314097675e-03,-9.783567256962633962e+00
4.106673171949026119e-03,-4.828610042144827232e-03,-9.798178214237534434e+00
1.120690729964399571e-02,6.807132363391299283e-03,-9.774334095732868377e+00
-1.209008528993443105e-02,-3.970507154030539915e-03,-9.798755993302977529e+00
-1.722692762472770311e-03,-1.563131219542645504e-03,-9.811973858255377934e+00
2.173063462343091147e-03,-1.003224348075807022e-02,-9.801441005736158729e+00
-7.027948165094545518e-05,-2.011682947108154804e-03,-9.798692228618456568e+00
-2.291070970733743040e-03,4.749242922604533009e-05,-9.780273193255846209e+00
-2.135980629615305635e-03,-1.009394078416427608e-02,-9.797450268958055375e+00
2.049809341956026088e-03,-1.981993302903503531e-03,-9.806004198617728207e+00
8.091151707771634255e-03,-8.162210720138706735e-04,-9.788120191872540232e+00
-2.346904550945421147e-03,3.507635481429587326e-04,-9.791160120661619004e+00
-8.556765443929342102e-03,9.585627765976240111e-03,-9.792734926929364647e+00
7.016090171504115597e-03,2.763669501390376981e-03,-9.791381933459868847e+00
2.854917391738329927e-03,9.846074301510998258e-03,-9.785706349524595282e+00
-5.956331692210096139e-03,-1.536710530029451694e-03,-9.783961634919521089e+00
1.784392493578766279e-03,-2.397219430489692851e-03,-9.800461878831832507e+00
-1.670225803289113187e-03,1.254632401455246099e-03,-9.809084260970154290e+00
7.470199078759729057e-03,-3.355693824625829731e-03,-9.798329210777071197e+00
-8.971397761020283995e-03,-7.236938515800278192e-04,-9.786961723144287362e+00
8.251907877341205060e-04,-2.525487238141409675e-03,-9.803640322273764696e+00
2.206197985799155433e-03,6.934343359909712207e-03,-9.796343194811228727e+00
-3.862662307014046344e-03,-2.358877100074275365e-03,-9.803841150677527594e+00
1.011556487198541536e-03,-5.874919533730100845e-04,-9.797365326079633618e+00
-2.439954922111718021e-04,-9.451479103618389953e-04,-9.801708331635408555e+00
-1.571828623008868827e-03,9.157013946000972307e-03,-9.789763730542288656e+00
-5.519944070337127334e-03,-8.497253220299816334e-04,-9.802504982136252210e+00
6.501133274979533153e-03,2.295533791757930694e-03,-9.792431107307825400e+00
1.386898314118704262e-03,8.298081722598021903e-03,-9.800283601613333673e+00
3.042238153067438992e-03,-2.649235280568991002e-03,-9.791155921482472380e+00
1.137212409818149673e-02,3.472540034246207087e-03,-9.791267323401678269e+00
-2.141208852144498107e-03,2.412739933798623178e-03,-9.790898661470238906e+00
-2.879311463464323192e-03,-6.393958463754421950e-03,-9.815773109279053443e+00
6.226255015556937666e-03,-3.668782835951999236e-03,-9.798178454570518170e+00
-6.614614890679168871e-03,7.595801059921865328e-04,-9.788226254815523220e+00
-2.005447595189460263e-03,-9.302153029155971545e-03,-9.795687293025116205e+00
8.539916222582910263e-04,2.268258799504474336e-03,-9.808676849158134203e+00
4.050213121307189544e-03,5.405290041596245640e-04,-9.807213578119164055e+00
-7.920344734362923939e-03,-5.275052182578338425e-03,-9.803525465535534167e+00
-4.967502598316362976e-03,-1.513182074278005690e-03,-9.791652662393049766e+00
2.720101144635651055e-03,-3.997631225194681233e-03,-9.779881726128568431e+00
-6.133422265370335434e-03,-1.907613773818717063e-03,-9.793127446832450289e+00
-1.124161491388497207e-03,-1.434903327866162131e-03,-9.795119020848389368e+00
-3.251106180858035714e-03,-5.821308025804937045e-03,-9.797095457506040717e+00
-8.911051139518170582e-04,6.885603077713037083e-03,-9.791273468139367608e+00
2.891460351512253977e-03,-1.662205820977139285e-03,-9.795276959795597094e+00
6.229564291434606417e-03,-1.006200407120285724e-02,-9.800386084509314699e+00
3.139532366011967587e-04,-6.752838202514194373e-03,-9.787224761028310738e+00
-4.764352985266579604e-03,8.383828156811933083e-04,-9.796575556418124719e+00
-4.295051612070875137e-03,7.905563543745120977e-03,-9.807775080206985407e+00
3.680414075982988906e-03,6.428316733691021891e-03,-9.803816873871202375e+00
-5.569429321133145122e-03,-4.898092516033482162e-03,-9.786306109070173065e+00
2.493110487650502648e-03,9.778622678467968274e-03,-9.796024377530466509e+00
5.248328537521574147e-03,-1.291438236392451625e-03,-9.809675501479491189e+00
-2.374433871123647621e-03,2.026584695714309624e-03,-9.794169178480178317e+00
1.954695775198419389e-02,-1.241301190642065191e-02,-9.806259367177647235e+00
4.240513576833020160e-03,-5.184747415915225838e-03,-9.797935272025288356e+00
-5.868921517034512460e-03,2.414968869447427658e-03,-9.780169747037851025e+00
-9.285059858339353607e-04,-2.895813853972302281e-03,-9.795874547021821144e+00
-3.911219345081478650e-03,-9.773603700317463807e-04,-9.786737117979598111e+00
-5.279678115469969846e-03,-1.887126239945317342e-03,-9.794067036398143244e+00
1.926432216024241304e-03,-1.218609284200859082e-03,-9.804201147277998629e+00
-2.912844687699989339e-03,1.733261355737551876e-03,-9.800311510444258190e+00
1.440998038162608465e-03,4.077091673777613048e-04,-9.794488422434628916e+00
5.461829215934603174e-03,1.818481865222879284e-03,-9.790041939759314360e+00
1.809791950951943540e-03,-9.675576095133390717e-03,-9.777583785711193798e+00
8.556370891654787106e-03,1.356289055442680934e-03,-9.791744161103432376e+00
4.921170040299956833e-03,-2.919791185118991023e-03,-9.789615399693945008e+00
-6.095060366376259427e-03,6.874053109343323219e-03,-9.803714674129576423e+00
6.701186067414301173e-03,-6.000196318525588893e-03,-9.785979145398561840e+00
-5.941024424740336480e-04,2.824172649845346598e-03,-9.788755546832597076e+00
2.977742606028912619e-03,-2.619622709965164836e-04,-9.798434712632566601e+00
1.594345394791878926e-03,-4.893508514066854595e-03,-9.798972738880127764e+00
1.878877431565939603e-03,2.772570752210593101e-03,-9.796546143009551955e+00
5.880066791150069267e-04,1.593475047649057673e-03,-9.797779285976950803e+00
9.364762805361812395e-03,2.256888525863944266e-03,-9.789707306779465767e+00
4.482147300816961637e-04,5.234894043263512917e-03,-9.808900405535172951e+00
-1.580514961575830773e-03,-8.078685254958335856e-04,-9.785685017685780807e+00
2.801608646064855396e-03,1.149706134958516056e-03,-9.794858656232024785e+00
2.009924908083338731e-03,-5.733435668598001016e-03,-9.797522754148674906e+00
-5.278569738670881722e-03,-6.399487177887629684e-03,-9.799867050014389847e+00
4.994705754739157781e-03,2.390327622670665713e-03,-9.804956193375202744e+00
4.438109224514656843e-03,4.931757365092538821e-03,-9.799349646960541449e+00
1.041196245659647621e-02,-2.924804509707885306e-03,-9.793472547054317801e+00
-1.129265478580575516e-03,-8.119506237526200390e-03,-9.800277821632628061e+00
8.825020484565746295e-03,-9.279930409934085411e-04,-9.794580837415978181e+00
-8.948362607161834334e-03,-3.868823641958915301e-05,-9.798027160078676800e+00
6.723224904767541137e-03,-4.452781313044337254e-03,-9.795830597823876218e+00
2.717666509852603805e-04,2.964379490374998479e-03,-9.792729787906162997e+00
-4.560756724611139332e-03,1.279302060847861211e-03,-9.788462450089509659e+00
1.252274767144641266e-03,3.832573450577868128e-03,-9.806356346895329423e+00
7.552611936820039385e-04,2.273101715653174986e-04,-9.789201830873983212e+00
-2.033634317344313030e-03,-3.323006754791833946e-03,-9.806014179032622735e+00
-4.363890169534323689e-03,1.141397096330831230e-02,-9.772358535345947672e+00
6.433929749280739574e-03,7.278305378216075316e-03,-9.807118457977404447e+00
2.656541414624623374e-03,-6.779948555237324918e-03,-9.798839646543918036e+00
1.001813910294902009e-03,-3.122768069561937532e-03,-9.791762003845738249e+00
1.387692006586036452e-03,4.217210763549428428e-03,-9.783701995248119232e+00
-2.482709897660227011e-03,-3.054772462346652152e-03,-9.801296538464205454e+00
1.029485311048454910e-03,-8.689666824336882145e-04,-9.800062647158243934e+00
4.968652539425857766e-03,-1.030274206659030287e-02,-9.802923067784185207e+00
-5.876517747137832010e-03,-6.097191402501199106e-03,-9.795510094480434304e+00
5.404050989777786293e-03,6.308405680564136732e-03,-9.799839451083832031e+00
2.125434827978122960e-03,5.564469163000527845e-03,-9.806079015094521623e+00
-3.169458730135345410e-03,-1.064678660059254758e-03,-9.791442580124609663e+00
-2.783807487442297585e-03,3.811635827988694818e-03,-9.793895783830414814e+00
4.125367658594083034e-04,2.012157045521112582e-03,-9.801032138878298383e+00
-4.417576199475056905e-04,-3.158949653565661098e-03,-9.787773875881073948e+00
-2.251740864402780162e-03,-1.935591362487536476e-03,-9.792214047721996550e+00
-1.414268790784546127e-03,8.246617853089503042e-03,-9.794553623998481839e+00
2.166160590557898898e-03,-9.729233996785348381e-04,-9.786400931741058073e+00
-3.313068718779057717e-03,-8.371065698120269943e-04,-9.795798801714317605e+00
1.185453297687628742e-02,1.628335151750837225e-03,-9.812413310815779610e+00
9.383842503918703518e-03,9.968597089970259156e-04,-9.800386039337132260e+00
1.563230972233877478e-04,-1.905538754749391698e-03,-9.804060657348992791e+00
4.280640748506082255e-03,-6.331612659319796213e-05,-9.772963066476881622e+00
3.225613095030412363e-03,-4.496985328437228153e-03,-9.786035347033958942e+00
5.001027879297843641e-03,-4.842773661536358548e-03,-9.794722953021349099e+00
3.172896681723775115e-04,5.771815310907102599e-03,-9.802596238119138050e+00
