gyro_x (deg/s),gyro_y (deg/s),gyro_z (deg/s)
-3.188918607889437012e-02,9.573551024296644840e-02,-1.795770654265555627e-02
-5.393746491499114976e-02,-3.196352631933319088e-02,-1.965218004743805522e-03
-4.835025326650843613e-02,-3.208013879971795268e-02,1.666292621454966774e-02
-9.445381189362262939e-03,5.333716323035663648e-02,1.339782877456927208e-02
-5.499958603940952734e-02,-1.139201334547126389e-02,1.956752927801460110e-02
-1.073585595553220272e-02,-4.446790857547411498e-03,2.625266466937487171e-03
5.481125104255808039e-02,3.435507623607948757e-02,4.550710583699361933e-02
-2.556078457616231189e-03,-3.144184436201020311e-02,4.487499568608805528e-02
1.776236504498274194e-02,6.486614559134767921e-03,4.491214926323824908e-02
4.915538335120859560e-03,2.871344201770895457e-02,1.632031925298087563e-02
5.111205222153938216e-02,2.977968028211984766e-02,-2.821248835893148954e-02
5.353168185817228086e-03,-4.945971901987021059e-03,-4.086013904396324642e-02
-2.128924210687858573e-02,1.817293062101035112e-02,-5.004949914364834052e-02
3.745942249970521387e-02,-7.150155820095120338e-03,1.867396187870316859e-02
-2.443135695401880622e-02,3.291144583627628184e-02,-6.867005644568169309e-02
-6.619050195991962871e-02,4.382850729481661822e-02,1.435716388566668673e-02
7.967314468043959139e-03,6.523664949616128639e-02,7.670394248131906165e-03
6.654094316075631621e-02,1.378572488020192617e-02,-3.038523789552381379e-02
2.696356501681177950e-02,5.908060626192954135e-02,5.152875751421669148e-02
-9.354070234027756295e-03,-6.085158154660860741e-02,-9.071610941557376254e-03
-2.889165490531200170e-02,5.282271547281496699e-02,3.460071714854782293e-02
-4.517019796978237467e-02,7.623454662901639478e-02,8.363617769279940717e-02
6.572659238963671213e-02,1.436209511116466131e-03,3.408967578588422559e-02
1.873369410256210330e-02,-8.332893487058122203e-03,-6.267550782521272290e-02
4.134163176219649016e-02,-3.389853616414190834e-02,7.173316248300042053e-02
6.053918063308562358e-02,-1.749979150018379434e-02,2.628455924817672471e-02
2.103605701711087211e-02,4.772747944802099851e-02,5.135590523570027210e-02
2.993774889299211442e-02,7.636005116542387249e-03,-6.220561827113196829e-02
-3.482949187084125736e-02,-3.467470027352548279e-02,4.073699393043779017e-03
1.314479856991449674e-02,5.027637921714281886e-03,1.270821228734914793e-02
-1.679584683909770768e-02,-3.597443164733267473e-02,2.270433958510087447e-02
-1.458462797930648591e-02,2.651142423741541243e-02,-1.404220393451907078e-01
-5.697817503287495866e-02,1.999948300446748387e-02,3.270074179191350544e-02
-3.080984349899826974e-02,-2.071274315883178240e-03,-4.537862248777053270e-02
2.822634438764537804e-02,-3.436510748072278687e-02,-3.620660298308229358e-02
5.022872365437399539e-02,3.861201386127582902e-02,2.601016031964582462e-02
4.146298027479884685e-02,8.245297377133571290e-03,9.011969304018921031e-03
-2.893282565770911169e-02,2.856281566572848110e-03,2.908557943275907453e-03
4.306251613007420348e-02,9.243670809382683110e-03,2.920185006118185614e-02
-4.726978761888882274e-02,9.423249305980245516e-02,2.935750596156614517e-02
-4.205233223632177247e-02,-2.194438305098992542e-02,-4.694026899711137985e-02
-3.506720331452743700e-02,-6.305018385604356512e-02,8.034690020125319744e-04
5.499323520256483439e-02,-3.724150145903476483e-02,-7.258555768203142633e-02
-6.526294790589207140e-03,-3.416026888286816804e-02,-3.270551529519370032e-02
-1.599418998280016180e-03,4.552379231747861327e-02,2.682136770531526326e-02
6.016675667394449228e-02,-1.496864308598286168e-02,-2.357650390432701817e-02
-7.073805642576364017e-02,-5.103067177351528622e-03,1.126974720694424725e-01
3.924112712313473916e-02,1.067218897574807347e-02,4.001924659898990072e-02
-1.797371224411704535e-02,-6.000080601689582877e-02,-4.543153127167601224e-02
1.651403202281276697e-02,3.505445086304159741e-02,-1.132800216485609912e-01
-1.169198892629686598e-02,1.294588061301959851e-02,-1.950631048629222417e-02
-7.927793516264654283e-02,-3.989607087702291832e-02,2.069301675219037753e-02
-1.060591690042621410e-01,1.974670401852321802e-02,-1.696885969341661859e-02
2.889903587948830163e-02,2.821905746001535792e-02,5.796115930772152008e-02
-3.583139693479191895e-02,6.371527837892930479e-03,1.762788636363601946e-02
1.385114793124868522e-02,-1.891047608813343009e-02,3.057458189387159131e-02
7.951253995058661476e-04,4.768580469615539552e-02,-6.015358877672525965e-03
2.915792362500004790e-03,-1.479133749171185862e-02,-3.254091655394112520e-02
5.704021163316985721e-02,1.587270860271222661e-02,-3.236084155075050640e-03
-3.904123893838379322e-02,-3.366657309187408992e-02,-6.712627998335225776e-02
8.916760989722583020e-02,-4.557632811941791928e-02,-5.157859578218423890e-02
-3.181560348607851557e-02,3.364125556925318811e-02,-2.716998881502485572e-03
2.386196959953328436e-02,3.464477400618838632e-02,1.180665464064737172e-02
1.251844471816292680e-02,4.047700286355368667e-03,4.048346144412465902e-03
2.372120544170227760e-02,2.382284767109576346e-02,-3.413756550353422292e-02
-3.666782556430742135e-02,7.738696560001574742e-02,9.769579162256358112e-03
-7.218596770540075536e-02,2.058315316684224214e-03,-5.024613268524259942e-03
2.332865583290744463e-02,-6.036580991168455368e-02,-1.716644987840853717e-02
-8.207956722298960853e-03,-3.981285195384441644e-02,1.547160077473159513e-02
2.468492818059461399e-02,1.650891985002903711e-02,-5.697073453494867074e-02
-1.385371174301881260e-02,2.537201726264753932e-02,6.811887454561582622e-02
-5.881643305379206932e-02,1.391440399388864900e-02,-3.627476619776250077e-02
-1.276216419816055513e-02,-6.232482971308627405e-03,-4.091735695435423648e-02
1.099919402080407754e-02,5.266592594092548221e-03,-4.343390387597223512e-02
1.053342079581189028e-02,-2.269577989094100079e-03,7.551438004265355330e-02
-1.832634824821250882e-02,-3.483481131502016992e-02,-2.296603302281083683e-02
-3.436981571540737024e-02,8.530639500086156096e-03,2.776748833502867483e-02
-8.689063539049526885e-02,-1.038016808059630258e-02,5.380911883805306745e-02
1.987321543506778698e-02,-1.187315374753012201e-02,2.584010615373986269e-02
4.659345584770836768e-02,-4.207316704279418645e-03,6.171317663264222486e-02
5.443748061048220288e-02,-1.526635079573328627e-02,-3.274455712146664976e-02
2.527824654660324605e-02,-3.492682587526086541e-02,2.722429423010240893e-02
1.872725310382397645e-02,-3.465270377513036265e-02,4.702191043482302165e-04
5.013926281707837412e-02,-3.572676572604378820e-02,2.830410883373382647e-02
-1.069220483994826401e-02,-3.648509449331393401e-02,-1.946104432921275107e-02
-1.422824484801933111e-02,1.798170050544104642e-02,5.469358674078707294e-02
1.595160449646153278e-02,1.861441236444680986e-02,3.723317649993369144e-02
-2.383658283619603108e-02,4.324131857085028452e-02,8.016405698896569842e-02
-9.162921959959470508e-02,3.469226655895137762e-02,-6.778714338296635417e-03
2.058375871053183016e-03,8.116223153723088612e-03,5.485437500802516769e-02
-3.625018418308524355e-03,-7.996206500744926227e-02,-1.972970031844835034e-02
-1.460364575959316805e-02,-3.095314098700612665e-02,-3.101102970745503451e-02
8.239260799576937633e-03,1.003825890012780865e-02,-2.152356844709796702e-03
3.428617817756141051e-02,-6.172907996892652849e-02,2.464025488037234479e-02
3.913168815574968179e-02,-6.449974477753434021e-02,6.394540404062450112e-02
2.140065523512715839e-02,-1.410958369743944493e-02,-2.110362395004994687e-02
-5.303370486017574409e-02,-3.150253222408230108e-02,4.730707576091498778e-02
-5.854979664090734226e-02,-4.362343123514544202e-02,-2.926079611178306408e-02
3.234677357145382404e-02,-5.661851604134855026e-02,-4.728010582468660655e-02
-3.980306084854411813e-02,-2.810724064419276372e-02,-7.711382848433233350e-02
5.185158698364252666e-02,7.510120858411428735e-02,1.503297258167993089e+00
2.510442375050796898e-02,1.957124043087449597e-03,2.802229923521279087e+00
1.949241841588350219e-03,-3.623748912863758442e-02,4.025451425721469079e+00
3.834922832928231579e-02,1.561675398360643473e-02,5.165872770201905162e+00
-6.535492948152107906e-02,-6.175562909388618987e-02,6.161039533983758254e+00
-9.078431871893537231e-02,5.390645117387037923e-03,7.005777023632909106e+00
6.291797956122410773e-02,-1.996279211622072405e-02,7.820984822574622797e+00
1.270683692258400485e-02,7.426787861548539427e-02,8.554159174940956234e+00
-7.081299674804281130e-02,1.107584890511974403e-02,9.155184698492014661e+00
-1.234980890931528831e-02,4.285184233500781426e-02,9.789435133972213876e+00
-5.075503778359054252e-02,1.042729977399183341e-04,1.023667615489708282e+01
4.950215916048410908e-02,4.078836597034871808e-02,1.076804900776334328e+01
-1.078857647637363956e-02,1.482400642206934196e-02,1.116833339293889260e+01
9.399955526346391588e-03,1.055899102610668300e-01,1.161734115421156055e+01
-1.664593245508779254e-02,-6.287211261386810301e-02,1.195589945118947917e+01
-2.241652186403142455e-02,5.809521741040979230e-03,1.226680359246968344e+01
8.151993650880286213e-02,6.907859970328936693e-03,1.247555417829647340e+01
1.556846424631900573e-02,-4.437254457650230410e-02,1.276567304854229334e+01
2.404017386096980388e-02,-7.974418788239440170e-02,1.294413065669779783e+01
-2.922337700911440544e-02,-7.138735484362258854e-02,1.315578650236791169e+01
7.639200287603889472e-02,2.832373469959573870e-03,1.334901602431153300e+01
7.752334826412903002e-02,-4.705015570398489444e-02,1.347871071144850497e+01
-2.449500260770229657e-02,-1.847512128999001177e-02,1.367534345385780981e+01
-4.720972157411049835e-02,6.645894611104542771e-02,1.384214760058391391e+01
-4.828983526723494568e-02,1.994145396466211542e-02,1.393358140636267883e+01
-3.523038185780965476e-02,6.843705024195899898e-03,1.400828814414403745e+01
1.849327576751820870e-02,-3.969749659881585679e-02,1.409718970589416820e+01
1.444498533085006482e-02,-1.470142880520356084e-02,1.424504690867687984e+01
-6.184895853192098284e-04,2.648487369588258325e-02,1.432564679436859123e+01
-7.091600487613725079e-02,-2.941692814993526750e-02,1.440796023587107477e+01
1.478708248147504734e-02,6.081164537493258943e-02,1.446280331536248909e+01
-4.495999131708948438e-02,2.136324087067869443e-02,1.448849435560518728e+01
-9.836390013997808532e-03,-6.811048338542245728e-02,1.458880373748124626e+01
-5.780531757458638731e-02,8.007468721865754896e-03,1.447755720548688352e+01
5.487451848511823264e-03,-4.937733142358077115e-02,1.455740235875200206e+01
-2.536085872454558673e-02,-6.662222108395331535e-03,1.467116100827854375e+01
4.528867349788707336e-02,3.585905716998412374e-02,1.467700051050051258e+01
2.502026297404094310e-02,-1.257278462131538113e-02,1.468099997094498121e+01
-1.982483367305477168e-02,3.214800203913990850e-02,1.469882395770058992e+01
-3.992715631625218253e-03,-2.017986240850620436e-02,1.483886959867665567e+01
5.133983771215629502e-03,1.542143655800239967e-02,1.478442871537294323e+01
-1.612791415801363010e-02,-7.941293646942867643e-03,1.482625031572692365e+01
1.721688070509309887e-02,1.122323844426502577e-02,1.474392452445492729e+01
-9.472166199794428143e-03,-1.240550333365702564e-02,1.491110423897136705e+01
3.706123761684096624e-04,3.656345842002944185e-02,1.487400886503349362e+01
-3.766869988899424621e-02,-5.254703749066885754e-02,1.488309607969048010e+01
1.852345571104927618e-02,-2.248308680372679974e-02,1.488169943226502667e+01
-1.970899603603458103e-02,-4.035669426014649314e-02,1.483000675342443841e+01
-1.029487017892029149e-01,-7.216444053547631243e-02,1.496121681380810386e+01
-5.509558894514902244e-02,-7.303837641589866481e-02,1.491381532351447170e+01
7.176809536461522263e-04,5.121236066549732929e-02,1.496678395847442999e+01
2.826859413234420132e-04,-3.054063894560928721e-02,1.493853169521538327e+01
-2.853520139240254064e-02,1.677675165468048984e-02,1.498743009949891380e+01
2.406331276936341315e-02,2.045103528355174741e-02,1.496051162511008314e+01
3.287484290501260092e-02,1.723295114051239321e-02,1.501598999657576705e+01
-3.584365409005372920e-03,-1.381518676169753677e-02,1.495101937778032841e+01
-6.904689609443657311e-03,-1.245803501073389219e-02,1.503632888144522539e+01
-1.331623314895148506e-02,-4.849326090022137992e-02,1.492132281713764108e+01
-2.461177799785457115e-02,-2.806247348461107446e-02,1.499809603488167298e+01
1.221431968356847565e-02,1.353011583966198805e-02,1.494223959784228306e+01
7.650693957915642718e-02,-1.021112194953111008e-02,1.493173639054102608e+01
3.717360591029277017e-03,-4.195997386339309076e-02,1.496440833627784706e+01
8.091944137654348557e-02,-1.876407550421202019e-04,1.495463932200515877e+01
6.049791057812779066e-02,1.397628523899971213e-02,1.503555400743785420e+01
-1.097588359287892529e-01,5.683690995661843694e-03,1.492397712242480523e+01
-3.175739944269650311e-02,5.034992284697303866e-02,1.497891452759841968e+01
2.199096849007568105e-02,-7.257745125574823451e-03,1.501352468254878225e+01
7.982064757678837552e-02,-8.300508147286603244e-02,1.508022070130465941e+01
2.716510819060890744e-02,-9.319764685212167735e-03,1.490540082500214147e+01
-1.893233459549849632e-02,-5.994653346196560095e-02,1.500329313868886061e+01
-3.705039592135235538e-02,3.765266176155508682e-02,1.499854021241901414e+01
-4.869121300663602214e-02,1.196769056757003014e-01,1.500788251766752879e+01
-2.350424401456208384e-03,-3.595922940012812909e-03,1.504543238039469522e+01
-2.745495318971307233e-02,-4.217181225201806390e-03,1.507574284621641425e+01
-8.248279172133439474e-02,-2.882377657160236153e-02,1.495018159899107246e+01
3.681570499052788572e-03,3.402628286282955578e-02,1.502011341340552875e+01
3.159334040226727952e-02,4.693434541011838970e-04,1.493112677361599872e+01
-6.036791481524959174e-02,8.934015684204477808e-03,1.500642160483350551e+01
4.189128531742660616e-02,9.285120868733296243e-03,1.499676608246489806e+01
-1.096798797081622798e-02,7.815924657544917956e-03,1.502951417059919592e+01
-1.920999253514785871e-02,-7.412362269627402467e-02,1.503335384900568172e+01
1.370646613589221116e-02,-8.309467263615252092e-03,1.505724398681101661e+01
-2.709389315430672796e-02,-4.213670582991300832e-04,1.503765680516059788e+01
-5.386162605820622729e-02,-3.291716087313335121e-02,1.497672182068665236e+01
-2.818178797968555818e-02,4.288452965970696723e-02,1.505621733722300348e+01
4.308461385131619886e-02,4.504308001613918644e-02,1.504905256222645171e+01
1.013371280623621973e-02,7.431099889275603713e-03,1.495964323440043131e+01
-7.666923117412387245e-02,-1.488742051528283740e-02,1.507930229533547895e+01
-2.245553432270815108e-02,-9.627632135731077102e-04,1.503793674824816939e+01
4.955441335740281596e-03,-3.663132119663779773e-02,1.496523962783914818e+01
-3.491308852752807168e-02,-1.701502319002992300e-02,1.499409103783845332e+01
5.112627450308132593e-03,-1.141204886823153457e-02,1.501373719290204178e+01
-3.606047631747588689e-02,-1.335260859976843129e-02,1.500503055809434017e+01
-7.099520833835282208e-02,-6.954966027341232503e-03,1.502996922408969738e+01
8.304584450826375808e-02,3.095782187281184705e-02,1.503728338348045845e+01
3.682804436522243291e-02,2.819441163414159249e-02,1.503391520863854147e+01
2.480580379757565956e-02,-1.811518257178299646e-02,1.503679742535144825e+01
-2.872323289400861498e-02,-1.104680504923438375e-02,1.487633775717509899e+01
2.385555490377555890e-02,-2.717126424841697155e-02,1.498993531080706632e+01
-3.494614227656206440e-02,-6.784416825883617282e-03,1.500165987763127085e+01
-3.952008476229437739e-03,-3.245064881618271724e-02,1.497658639550096815e+01
6.665461765306773811e-02,-1.478694817253482785e-02,1.507354225998721553e+01
2.605072192702647185e-02,9.812579198483550869e-02,1.500584679151469025e+01
3.531207850251967539e-03,-3.776443543112099899e-02,1.500994687258890181e+01
-1.349973392846434868e-02,-4.766157458324067620e-02,1.499842704044129071e+01
9.539430132836148116e-03,5.921183067647126097e-02,1.511886527230980626e+01
-3.546792015514612598e-03,-8.071718811966355211e-02,1.504246281625145443e+01
3.700642850196310396e-02,-1.116247500692320663e-02,1.489449827645074187e+01
9.515669522705207106e-02,-9.467926666033171096e-03,1.499121168325527442e+01
-1.950382652842357067e-02,6.297532855154482924e-05,1.500188456352173816e+01
1.164142481189378228e-02,-8.856496100770565316e-02,1.504322670695428776e+01
4.925675575399813405e-02,-1.932464554039121582e-02,1.500854655664613269e+01
-2.326884385755602705e-02,-1.857877167475563765e-02,1.506147575362080815e+01
-2.118253668078223795e-02,6.384977459428455016e-02,1.499988083014791584e+01
-8.264625428686949923e-03,1.084494333649633074e-01,1.500777942052610214e+01
-5.008874623693269218e-02,-4.392557083652583877e-02,1.499693263485865202e+01
3.584651640716403440e-03,1.668347498437908194e-02,1.502544102255424896e+01
-3.853589453927248193e-02,-6.961006568609903571e-03,1.496144778698169731e+01
-2.131986416042387297e-02,2.302899003161873112e-02,1.496229000735011994e+01
4.238580868761065990e-02,-1.767802735763571859e-02,1.510178119860311163e+01
9.213835340734340129e-02,-8.010603068018233228e-03,1.501340066570136145e+01
3.256289786241545192e-02,-5.519650493340031577e-02,1.496816764679365441e+01
-2.347020715867536092e-02,2.773093724767352166e-04,1.504976642703642042e+01
5.263012029530671904e-02,-1.395922543701435571e-02,1.505997398863372894e+01
2.640101831998307655e-02,-4.863006409183863454e-02,1.498385674607223983e+01
-1.811103682457801747e-03,1.298360353611052558e-02,1.490194930469729329e+01
6.790932583777119225e-02,-1.415478412458174261e-02,1.499325382034688126e+01
5.173706114196804234e-02,-5.393806627696084034e-04,1.497908323568604594e+01
-8.497004236429654689e-02,-8.190825491528032354e-02,1.502673974686734759e+01
-1.361377517689069810e-02,-3.189744854840596833e-02,1.495427200629790931e+01
9.129601595247905862e-03,1.940759237191417436e-02,1.498667029028105446e+01
-1.878776973206678844e-02,-5.083470143390842605e-02,1.493474547654809825e+01
5.015262914914432602e-02,4.510143025140015555e-02,1.496934046154039422e+01
-2.252392426187925858e-02,8.754963788803651892e-02,1.496644984498665387e+01
1.010627952953242065e-02,-1.834210369505126156e-02,1.504540428161450727e+01
-4.629804243946341463e-02,-5.318132368729864938e-03,1.503152762418808130e+01
-1.464610609656313671e-02,-1.175870705669848984e-02,1.496024668867633878e+01
-1.364767932804016211e-02,5.955965854600237669e-02,1.502463967177577864e+01
9.812601603203996437e-02,4.732828744087691324e-03,1.498253202587338784e+01
3.406144663940184614e-02,2.842930942854322504e-02,1.498320639675220889e+01
-3.391010485627984732e-03,-3.709411019302862045e-02,1.495417376837392531e+01
3.432412225077538515e-02,-1.766150595901521542e-02,1.504533418816449597e+01
3.252149452299592236e-02,-6.445955591741990565e-02,1.505555417245545868e+01
4.917849316179852270e-02,-5.648438155164867830e-02,1.497456745812950096e+01
-9.366400837227506493e-03,1.795313984309117664e-02,1.504139264222429695e+01
-3.387990508599819650e-02,-6.103797659035415518e-02,1.493939382859071507e+01
-5.649497232707643285e-02,9.030087847676664115e-02,1.501691189381280722e+01
-3.704653354364632195e-02,-1.059834673342091929e-02,1.501506830295735817e+01
-2.956481703278201686e-02,-1.858100716035229055e-02,1.499432403624258114e+01
-6.868446341389042309e-02,6.718943081794582182e-03,1.500642173445018912e+01
-1.483574633101498660e-02,-7.820596519274131131e-02,1.501311972221593294e+01
-1.810722811601700108e-02,6.179672617302437235e-03,1.496834430554095441e+01
-4.219054627172153654e-02,2.608857984347396491e-02,1.496517494412678140e+01
9.682280199610239502e-02,-4.263138416591921026e-02,1.510236529479327494e+01
-8.399385291156324929e-02,1.455611430887304540e-02,1.500374383625566210e+01
-1.996117628504054387e-02,1.271465165428639459e-02,1.496279577108668590e+01
-3.387111581863706117e-02,7.939592622570861707e-03,1.498548760854807504e+01
8.817036666534527759e-04,-7.469600554846443641e-02,1.508148667513414587e+01
-3.507516943575619828e-02,-2.517986587330474564e-04,1.498731461949280330e+01
-3.712635568246132334e-02,-2.159830707552837931e-02,1.497606879862238216e+01
-2.960463024035009036e-02,-4.322483164263069000e-02,1.496852814797198938e+01
3.773422539655098967e-02,-1.321121623529885464e-02,1.505665510542399232e+01
4.736350759792224557e-02,1.704923121046370699e-02,1.501022141185360681e+01
-2.830619817036536187e-02,8.488913876040972417e-02,1.505430773808873113e+01
-1.336533373920714349e-02,-1.077758030864969449e-02,1.501040057941596828e+01
5.365383229451372443e-02,1.819737788174568757e-02,1.497006525903893959e+01
6.822491595692080357e-02,4.324704535765250962e-02,1.501544528083455177e+01
2.461987673710433130e-02,-3.333608655331764953e-02,1.501958146664219562e+01
3.720021017872934821e-02,6.404009241721096701e-02,1.492593745170181840e+01
4.972391169192089816e-02,1.618789152799365166e-02,1.501443650738314872e+01
7.023553570966353798e-02,4.871668518907915774e-02,1.502544651237340112e+01
-1.849105885471324234e-02,-5.927506362008451435e-02,1.495658061658128268e+01
3.810210268610104284e-02,-4.094156463326406592e-02,1.500466719835173635e+01
4.178432804147591551e-02,-2.067297660729280895e-02,1.499857657024582203e+01
-2.965994835356314946e-02,-4.321585860165882281e-02,1.500077766815207880e+01
-1.653296598413278237e-02,-4.493924106628436818e-03,1.502601327181370650e+01
-8.721789020210253540e-02,2.410153006843815393e-02,1.503174546218770580e+01
3.437028318218950801e-02,-5.847309437733361204e-02,1.501859408206931690e+01
8.214368471554626613e-03,-3.489982684624320236e-02,1.499879715739357522e+01
-1.320859496045085832e-02,7.498194853336923038e-02,1.494140080830306339e+01
2.265662544564994371e-02,-8.840094808995926619e-04,1.495722499053172250e+01
1.632228228031489328e-02,3.327030484863684190e-02,1.497979274593367549e+01
-6.186628418118900186e-02,2.371695314939162649e-02,1.498487799336838933e+01
2.557596821222709454e-02,-1.030093165910128256e-01,1.505703155639563384e+01
3.171600804931851841e-02,7.748085979781624277e-02,1.500007826212857154e+01
-4.026059596602544512e-03,-2.180178048502489849e-02,1.502302925668456979e+01
-3.128722724250303927e-02,5.260385708599790711e-02,1.503355876633808030e+01
3.590361184110733156e-02,-3.757461814606621181e-02,1.497945460483825109e+01
5.069210116255411236e-02,-3.246863028429589071e-02,1.500122048909558892e+01
-2.104854126936238010e-02,8.616789124759968721e-02,1.496987138551290819e+01
-4.844962521370650699e-02,-4.427314353250314666e-02,1.503976189568027166e+01
-7.476481986916871936e-02,-4.852503107528209625e-02,1.496147044011638805e+01
-1.932156279707620064e-02,-3.710164029028990146e-02,1.505225281700687390e+01
-6.990621137303838772e-02,-1.644886259648178223e-02,1.498758631424488641e+01
4.675755635460973614e-02,-5.158239322654803276e-03,1.499958675041886913e+01
3.846309372470626403e-02,-4.743044432445529118e-02,1.494336704328677889e+01
3.536234994176451485e-02,-4.580437749127586750e-02,1.500303525808333482e+01
-1.496711919664110886e-02,-3.408551747340016896e-02,1.497160481087951389e+01
-6.297766528880167913e-02,8.631854936654168725e-03,1.499020049647285369e+01
-1.475919867991797897e-02,-5.567993335436924318e-02,1.491570254179386090e+01
2.128996277878832111e-02,-3.177157806122111322e-02,1.506245857349894202e+01
-8.180566616686352210e-02,-1.746181483378934918e-02,1.499806712885935411e+01
-5.075376022141975946e-02,7.031040290710707796e-02,1.505386444912383404e+01
-4.575553770290047284e-02,-8.200320320044364800e-03,1.507736446949939157e+01
2.374242128862039461e-02,-3.262231032610997394e-02,1.498199986185590049e+01
-1.723489619538169301e-02,-5.762141183722419013e-02,1.501516638531679781e+01
-4.509666452704726852e-02,-9.094403638718512317e-02,1.500884323280085297e+01
-3.162381404444292859e-02,-6.523472492612619744e-02,1.496244431963907751e+01
2.623850845272172883e-02,2.237236357936323028e-02,1.486142905834612726e+01
-5.908219666292804234e-02,-3.343477740081741284e-02,1.500611847946832356e+01
2.221695508719618434e-02,-4.954689897692416550e-02,1.501862880590056548e+01
-6.061484303550542657e-02,-1.140600762080603778e-02,1.496272204127890681e+01
-1.706889140721327622e-02,-5.038435594697854292e-02,1.501457793875122348e+01
-2.212261939346707451e-02,-4.907818676278051517e-02,1.498044205845249266e+01
-2.846487877076570635e-03,3.016136902470429107e-03,1.504103760141867951e+01
-1.009808976696978805e-01,4.312089172714633767e-02,1.502560531357772255e+01
-4.919423696429082310e-02,-6.015709157453502653e-02,1.502425503557440933e+01
-5.818059313939664967e-02,-7.720893634839176567e-02,1.499019007935189052e+01
-3.829194084961268230e-02,-9.901660234290522375e-03,1.499911327030317665e+01
-5.837517067986788127e-02,-4.180535431658559652e-05,1.509320910698384210e+01
7.470485313811256467e-02,5.938264679551302772e-03,1.498598604347108498e+01
-2.006572223681464279e-03,1.515533691329980139e-03,1.498520587711637830e+01
-7.010225482485939186e-02,1.506388124357857516e-02,1.511520680406382056e+01
-3.345280962057996937e-02,-1.958570971482101811e-02,1.497585387304650872e+01
-3.321667955741605671e-02,4.619135792699111814e-02,1.506570068648743543e+01
-6.325037487846613127e-02,6.966592414895793686e-03,1.503271771627349018e+01
4.965955940147837727e-02,5.039479854108432771e-03,1.505573464094892522e+01
-8.324121736913803193e-02,3.744114796251372945e-02,1.504266619416908490e+01
4.826152599452420561e-02,1.105812626778423895e-02,1.498756280568717791e+01
-1.153495986652590677e-01,1.501102871734245718e-02,1.505339232589037834e+01
3.270653818345198305e-02,-2.080549203537815708e-02,1.501793305937871814e+01
3.423828472083390723e-02,-1.914130609036806402e-02,1.505382980048701391e+01
5.064244204933120858e-02,-9.707320780962817169e-03,1.494756148359841497e+01
3.676320423434659146e-02,1.791584467307348258e-02,1.508206678890173436e+01
2.189689351715343874e-02,-2.352908861505330698e-02,1.498201949095008700e+01
2.668128233044582756e-02,6.382507969067753584e-02,1.513213676489288595e+01
-1.656868133192173492e-02,1.425597480401361895e-02,1.499237799892846468e+01
-3.616317438571325926e-02,-9.451885805827044129e-03,1.503197566794389139e+01
-6.148338402502386002e-02,4.937647967422125611e-02,1.499112309613743399e+01
-3.960559453958745896e-02,-4.119450266195593541e-02,1.498462979724817501e+01
-1.443196214382901424e-02,1.606408150300360146e-02,1.501384307792743122e+01
-3.946312610074363680e-02,-2.289650167042675544e-02,1.499242203943692786e+01
-1.525222273386928583e-02,1.763199474157045588e-02,1.509720721716564107e+01
-1.941722685718474603e-02,-9.557498921616270487e-03,1.500936267943375846e+01
-2.291251829319916611e-02,5.605750953445787221e-02,1.503126538842471405e+01
-2.058368584344402730e-02,-5.094970462761095817e-03,1.497474825765791806e+01
7.245111927115181760e-02,6.874236259717751360e-03,1.502985349214736566e+01
-5.055344583865085950e-02,4.776339013899817687e-02,1.500265028734109407e+01
6.547934511389934265e-02,-1.139119562154082739e-04,1.500465761151044930e+01
4.355789111908720673e-02,1.080637527670891794e-02,1.503277870548966177e+01
3.389928209058851345e-03,-6.156660999766121189e-02,1.504254542855948884e+01
-1.466324353666656260e-03,1.222705318821224428e-02,1.501531642768566144e+01
-7.494571408484637653e-02,-1.943558182341495119e-02,1.502495744845512426e+01
2.519227497546524999e-03,-1.261956458139536913e-02,1.502599420753943349e+01
2.934974058202792502e-02,4.808391051076728318e-02,1.511279778926223827e+01
-3.875373238859238650e-02,6.791913306365722491e-02,1.506355310866323194e+01
2.202416917999218404e-02,-2.822471953862426206e-02,1.503523839285984209e+01
4.160755763365062143e-02,2.249217426449722293e-02,1.500365667730747710e+01
-3.919559763305573152e-02,3.054969680744315519e-02,1.498712112524155238e+01
-4.535761449626068281e-02,-5.452314157640315850e-02,1.497287579413659664e+01
6.072551985694726179e-02,4.501799145889424231e-02,1.498908322486295042e+01
2.342130570793374972e-02,-1.413900583745919190e-02,1.505126965786160831e+01
-3.621811941720344541e-02,4.864831601956278589e-02,1.501260721552272592e+01
6.011571785465849582e-02,2.148576980857245383e-02,1.488597002519233925e+01
4.361014626634801550e-02,4.015355496641893895e-02,1.502801914835949937e+01
-6.595806642794072028e-02,5.836092307466633940e-03,1.494527612431819641e+01
5.050887603138180110e-02,-1.787040614579122819e-02,1.501445945803260074e+01
-5.111870978729451259e-02,5.069679792487839787e-02,1.499257185946784787e+01
-7.448976414908228816e-02,-1.786821391646143189e-02,1.496597779214616253e+01
1.477074393456840815e-02,1.020127429304809458e-01,1.500082592014404703e+01
-2.368680212728204240e-02,-1.077049472559566887e-02,1.498822451463550820e+01
7.582998118019186953e-03,2.702634528381231416e-02,1.501715515019120950e+01
-2.273056048370623167e-02,2.193555279107819306e-02,1.503161545810418609e+01
1.855867633640613870e-02,-1.308764994260878771e-02,1.490412532960035286e+01
-5.393201348775938930e-02,-2.468264993969574578e-02,1.508525160161249623e+01
1.720592416113543577e-02,-1.610213622944837650e-02,1.493555695612161571e+01
6.709895633926646862e-03,-5.351960623509051385e-02,1.495302085787001012e+01
1.125565773482180565e-01,3.003692900876278257e-02,1.502373238307607117e+01
9.910439912496531514e-03,6.195008532487344260e-02,1.502502094128767318e+01
4.549731203809155577e-02,-4.306622820145895284e-04,1.498161865870622833e+01
2.048346701234918937e-02,7.010483805845332816e-03,1.499403130076995794e+01
-1.649375462562343783e-02,-6.822861396433162195e-02,1.503923131746017638e+01
-5.119624620634026513e-02,-5.071581649798906008e-03,1.505174576457102020e+01
-1.363481758124140963e-02,-8.977902963033129735e-02,1.504732167122401876e+01
3.447554950128478525e-04,-7.178053951222472528e-02,1.507238880838392880e+01
2.299595649060255653e-02,-2.806981699186238480e-02,1.502335220090984258e+01
-3.740164872320909939e-02,2.700159540229210564e-02,1.497091764634797251e+01
-3.251260506876076789e-02,3.646422766378656227e-02,1.506546306928026624e+01
-5.282548739857128445e-02,-2.044272537846937576e-02,1.500486377017185369e+01
-9.149649524369718803e-03,-6.592090150617744291e-04,1.504452718461738847e+01
-1.909668036833437818e-02,1.041420190839748017e-02,1.495613496571317391e+01
1.984903905168448543e-02,-5.259629617055968862e-03,1.498166734755162466e+01
3.157922251147524811e-02,1.924683013667337177e-03,1.498809432264770436e+01
-1.465387654424907260e-02,-4.970985922131258145e-02,1.497563815362021700e+01
-2.271918061861815199e-04,1.298184908525602810e-02,1.502430871109019428e+01
1.615399200989507331e-02,8.031827894821258473e-02,1.502252477709719614e+01
2.835907580108005741e-02,1.402500830435637457e-03,1.496836277693205197e+01
-9.911151744166658839e-02,1.801942598376617827e-02,1.498459610499534378e+01
-3.852218319668838237e-02,-1.229507150450857324e-02,1.498792951557653375e+01
-1.124434829105303429e-01,-5.051678761226541248e-02,1.502285630844008146e+01
5.438562393384193359e-03,-2.535485875265466177e-02,1.500618076331402939e+01
-2.475147023323301387e-02,5.782184708712310300e-02,1.500252702439733810e+01
-1.618198610000279314e-02,1.603629571534891454e-02,1.496784396099674019e+01
4.776735741910370647e-02,4.975787843611588490e-02,1.504225791214350849e+01
4.375216603543061883e-02,-1.767501605247692037e-02,1.506774374400759164e+01
-3.071491681466801196e-02,2.565365114121016463e-02,1.503503734208047149e+01
-1.082112301422239187e-01,3.720707094923057789e-02,1.502928720133955842e+01
-5.372096844399691651e-02,-2.859495382715094430e-02,1.500086120553704205e+01
2.069686313529391086e-02,5.760866738114323038e-02,1.499174225604777000e+01
2.090677443757917725e-02,-7.452344812176368849e-02,1.493216082052015281e+01
-6.938547381298554306e-02,2.372942466435365091e-02,1.495425256358895716e+01
2.145108025168214905e-03,-2.999327292004202311e-02,1.500426702662649703e+01
-4.084647838352353788e-02,-3.284455175044029979e-02,1.496362093308633590e+01
5.739668907967822309e-03,-2.725316057607603606e-02,1.498656733574217093e+01
-6.073640785088979532e-02,4.514065160759797579e-02,1.504657782002186117e+01
4.017769996682765687e-02,-6.444479140054583388e-02,1.501025845107958645e+01
-4.925070642197364873e-03,-3.813625876988099156e-02,1.501469692739659223e+01
1.202148696810784734e-01,-2.931020682870462066e-02,1.500551936781732287e+01
2.939595534898540100e-03,3.829573718069243654e-02,1.499691111349095785e+01
4.147977253997545133e-02,5.042435276256286569e-02,1.504286643332436313e+01
3.633534576262299060e-02,-2.593634299973599650e-02,1.501548255522693331e+01
2.174878606441093751e-02,-5.646039436939166017e-02,1.497993519280529817e+01
3.233421994112368331e-02,5.412871382502898454e-02,1.510453085615851698e+01
-4.276445896914557454e-02,3.255051841001069951e-02,1.506697286329135999e+01
3.544567769836559634e-02,-2.374913125778509507e-02,1.502791813540510724e+01
3.308887805539743182e-02,-2.903990217954071848e-03,1.501259584738061470e+01
1.308045477757264173e-02,1.313465546015113623e-02,1.503168451077170253e+01
4.311658180334726476e-02,8.571402106243299068e-02,1.504078422417997984e+01
3.405219330285071816e-02,-2.712800910704564819e-02,1.503671766544020372e+01
4.780419929210528995e-02,5.368931107935432517e-02,1.504469178679788044e+01
-3.687046316176023630e-02,2.898334157658057769e-02,1.496096707737279274e+01
-3.846600917863216701e-02,5.083945029718210662e-02,1.493519054724381867e+01
-2.695607493908120170e-02,3.357307962022707676e-02,1.493841563920563331e+01
2.736406644003694377e-02,5.930760161550447523e-02,1.486248257554061780e+01
-8.511973034123140880e-03,-4.818680788006586557e-02,1.493617534099746713e+01
4.330301739738419420e-02,-4.788420431792513726e-02,1.501151132654355358e+01
1.586624474251603981e-02,4.766213587997866069e-02,1.500734142294765761e+01
-4.775967304087361254e-02,4.428911583879966557e-02,1.509500323784254583e+01
-3.936551793481073147e-02,-1.824582526303121163e-02,1.502166261620710230e+01
-2.379476146823929911e-02,2.851202981532626607e-02,1.495810869575898394e+01
-7.384832500135841624e-03,1.706152890975327213e-02,1.500035035522906135e+01
-4.489077740233451963e-02,-3.941597116727530575e-02,1.499304745969561203e+01
-4.960213905871728446e-02,-8.489538273857497042e-03,1.493694861076160585e+01
4.055283522938823298e-02,-4.158940804651881096e-02,1.507200300264385717e+01
1.485592016102526419e-02,8.487722253753412008e-03,1.498084998616567809e+01
1.370411360843403793e-02,1.047734308523509293e-03,1.503600860786437998e+01
2.960297105065862536e-02,-3.413481665840131102e-02,1.500601519356712465e+01
5.652685113135844791e-02,-2.297262868327093477e-02,1.503294450517633507e+01
5.148318710584762724e-03,-3.759481109251407160e-02,1.498310258255036764e+01
2.149497408551698241e-02,1.201871537616024110e-01,1.494208945879557149e+01
-4.621462699447045214e-02,2.764042080465987927e-02,1.501570801961554835e+01
-5.860794955971107556e-02,2.758923823078189910e-02,1.490959259362309375e+01
-1.655669360327316486e-02,-2.681895488142158317e-03,1.500492750478519000e+01
2.829054978408393484e-02,2.579996750626471075e-02,1.499222201880586702e+01
2.168797009360978051e-02,-6.286345215441851986e-02,1.494193030572376735e+01
6.918986188183522124e-02,-2.241841899149202982e-02,1.499658452640163908e+01
1.258685641112127114e-02,-3.883508958293538198e-03,1.502967861532409266e+01
-4.864306491964325019e-02,6.155249168903646068e-02,1.498069328234850772e+01
3.789608012101049889e-02,2.277584488573056176e-02,1.495841948698696022e+01
3.022844558812414276e-02,-4.673948768335372400e-02,1.503667874087436829e+01
4.673503410018545884e-02,5.884370127750665827e-03,1.496683240638245138e+01
2.626514971345840499e-02,7.656039511780216023e-02,1.498868361385969727e+01
-5.974974034972845884e-03,-7.860370256417366711e-03,1.497614669002443577e+01
-2.127082708174886025e-02,-4.391447080435209593e-02,1.499934297893477897e+01
-4.912619661282376787e-02,-5.827514799923303596e-02,1.499077867567001121e+01
3.664560203432291885e-02,3.586660477173497785e-02,1.499246036682074745e+01
3.918297019083627486e-02,-2.813982512760302909e-02,1.500350125063790507e+01
2.968273446551599262e-02,1.139012483993353392e-02,1.510821189191351444e+01
7.950522349672322145e-03,-3.095698511097971437e-02,1.498302384071766014e+01
4.151468078036980869e-02,1.506024076164187708e-02,1.499428028812828906e+01
-7.835013078220197380e-02,-9.700113653810356340e-03,1.501041944359649882e+01
6.360427843205222753e-02,6.551603058107202671e-02,1.498948857721310368e+01
-3.105406617529696961e-02,-1.822740962873513337e-02,1.498456592291953804e+01
-2.347218587170433329e-02,5.138352976099609020e-04,1.504090645176618146e+01
4.480546576893073424e-02,-2.194326765104928634e-02,1.498094477636134592e+01
-5.746785103433174613e-02,1.782067484111891920e-02,1.497984615874299941e+01
-3.368635325669745717e-02,-6.678014570682586082e-02,1.497886166129454288e+01
3.328379294165537822e-02,-6.399672683184154387e-02,1.501673380287652648e+01
4.899237905506195756e-02,-5.708199777687299192e-02,1.504077943346456081e+01
-2.035928108607594142e-02,-3.435801531627661470e-02,1.501739961330363293e+01
-3.719139937316062045e-02,1.587074819218050117e-02,1.501985758351468725e+01
-4.584602098412932786e-02,3.316401278787500795e-02,1.500583469499025568e+01
3.448974970010781210e-02,-7.569542854231989248e-03,1.499919400346684561e+01
4.072426321862111787e-02,8.521150127631261367e-04,1.497510508151155584e+01
9.529116783086497011e-02,-2.708708540623253839e-03,1.507957366576839497e+01
2.530482099121068515e-02,1.134541379909836424e-02,1.501620424638631945e+01
3.208844468786926224e-02,1.158776035575011590e-02,1.495695910368217341e+01
6.331765917421124101e-02,1.538074323785103628e-02,1.503989188293241241e+01
7.471866534347049865e-03,-5.306099929350983208e-02,1.503224605962612337e+01
5.056005061649807009e-02,-8.190950471408934739e-05,1.496968189554545603e+01
-6.062457785316014564e-02,-2.973909169387221971e-03,1.502477147622496290e+01
3.496166559050741668e-02,1.019755911832978118e-01,1.496037797397868729e+01
1.353788341444311710e-03,7.692228490260261120e-02,1.495338697499170344e+01
5.291708216129207415e-02,-4.121222752527627098e-02,1.501147704915879189e+01
-2.711693133979933487e-02,1.722106411225938702e-02,1.496819048814448117e+01
1.128368543516914888e-02,-1.111040749873651035e-01,1.499367960950538858e+01
1.767813343373670840e-02,-3.632239261489247917e-02,1.499832145283425433e+01
6.462851409604160845e-03,-3.119066661480800889e-02,1.494290533567534496e+01
-7.264023081539421056e-02,-3.713902409978552671e-02,1.495323047573819331e+01
7.147206549147108734e-02,3.242045741488109017e-03,1.502628529814849223e+01
-5.249932859800097995e-02,8.445119298097020222e-03,1.497228088867421469e+01
1.829411691642738452e-02,5.250157130537563832e-02,1.499132319192225360e+01
-2.796490156799699006e-02,1.663998136595103150e-02,1.497819580132482642e+01
3.072341104983578389e-02,-4.576779281237008078e-03,1.500525677333198260e+01
-1.711924525387407622e-02,-2.943049889953020665e-02,1.505835369181869154e+01
1.003952136044230711e-02,-5.641460195058319027e-02,1.498515165700336027e+01
-5.429458452489890202e-02,4.373833236292237747e-02,1.499878077970159396e+01
-1.508322871678079331e-02,-8.218211206793485379e-02,1.490730198233376846e+01
-6.388548461677273638e-02,7.643710338943625338e-02,1.503164017314485434e+01
-1.283587310439348976e-02,1.003504958977041381e-02,1.499456324263226925e+01
2.111042917447452510e-02,-5.021788792055770050e-03,1.492520953442420684e+01
7.561417069343674691e-02,2.598198341408173347e-03,1.502557512123325090e+01
6.588034450127730479e-02,2.781472085048637341e-02,1.499583111385204681e+01
8.068666863986141691e-03,-4.014909682400790575e-02,1.497916002218414278e+01
-4.900122871002664249e-02,-8.938959750038862409e-03,1.497602013644869778e+01
-8.440775056774499352e-03,6.655285333807329368e-03,1.503546256007452975e+01
3.839421144970774774e-02,-3.623578276297310247e-02,1.492923843613608170e+01
-2.522018708563029954e-02,-2.622295587692182600e-02,1.495151273228398026e+01
2.267399150799778024e-02,-1.140882698671672434e-02,1.503458084308953246e+01
8.342512669339816056e-03,-9.557293966375475514e-02,1.500135512487072731e+01
-3.000497734609602288e-03,-2.727461552970289818e-02,1.489243586533140906e+01
-1.944468160808200674e-02,-1.731982731309323828e-02,1.494192128257138741e+01
-3.600258455610063843e-03,-4.599289028043399702e-02,1.506024757019975979e+01
1.870250399581959572e-02,5.301114069093554662e-03,1.496607776528630041e+01
4.891201771280100086e-03,-1.898581463679087020e-02,1.497608117196446820e+01
1.634940827784177667e-02,2.606603046887887368e-02,1.494551875579002953e+01
-3.000667854230409243e-02,-4.629420180112300484e-03,1.500653470175047488e+01
4.067011179255074216e-02,8.910851979499644082e-02,1.493042459687352164e+01
-1.136529257089628590e-02,-9.064234124738521081e-02,1.493005407459892453e+01
-2.987142170568540464e-02,-2.930165655936132693e-02,1.500208122116805320e+01
9.873009021325526713e-03,4.494105400775219583e-02,1.499488104326670346e+01
5.427858309530476238e-02,2.904881923876343613e-02,1.498450009576784758e+01
-1.733596729237893777e-02,5.496078741809392459e-02,1.498251433397712873e+01
2.804355104537990459e-02,8.330905924780617963e-03,1.500220362490308545e+01
-1.242325434030925289e-02,-8.638079235316314941e-03,1.500092365394818295e+01
-7.938219251458479564e-02,-4.329551304532881090e-02,1.494699060658247447e+01
3.185261021727484043e-02,4.026639123100220902e-02,1.499782460209138080e+01
8.145390667572144231e-04,-8.427082692714647771e-02,1.502470319337814431e+01
2.545391881605890347e-02,-9.240847183695189218e-03,1.499565883913338737e+01
2.659924719168378984e-02,-6.563113033415272912e-02,1.505808959271881164e+01
1.686858046731525354e-02,-4.183855205450870418e-02,1.505522766812142521e+01
-3.186865038615253887e-02,-1.657667344489755293e-02,1.499184959811309881e+01
9.252493217003703724e-03,-2.472038628340490762e-02,1.502228750657839562e+01
-2.487806128528889313e-02,-5.959670810104025079e-02,1.496798838414797927e+01
3.993474001370888454e-02,-2.358550434550666167e-02,1.496311089799643135e+01
-5.179201099831556160e-02,3.247744673984202975e-03,1.497700823398353620e+01
-6.482128801507638233e-03,4.845743050481620545e-02,1.494679879293009073e+01
1.464474369908499995e-02,1.303712868961797583e-02,1.502148301825834231e+01
-2.674973989341515590e-02,-4.833304817256997392e-03,1.505197283021702503e+01
1.612632838297259428e-03,-1.890283071176518045e-02,1.495432004546470672e+01
6.124025083514129247e-02,3.212361430717659838e-02,1.501624832159063772e+01
7.069072960243717903e-03,4.106584836592455830e-03,1.504782996649030835e+01
-5.898598474380951917e-02,-4.116149936457638020e-02,1.498241753087540395e+01
5.394576921498348693e-02,-7.155341972864969965e-03,1.497638423621188508e+01
1.041874967991714973e-01,1.499243683648096397e-02,1.504540617627593058e+01
-4.260658568973247490e-02,8.870493179487095453e-03,1.499366148919826891e+01
2.533340191027370208e-02,-6.283770978907803062e-02,1.505156249019360004e+01
4.533504609477345682e-02,-3.748904707748857562e-02,1.499921816483744408e+01
3.933663581285266192e-02,-2.728722755500114644e-02,1.499267507415325085e+01
2.097656140233498251e-02,-6.269012812210662811e-02,1.505445388924961492e+01
1.577541312240356847e-02,-4.921928000777612416e-02,1.499794968384977345e+01
3.137920235691232795e-03,-7.853046958413031908e-03,1.505471196134122813e+01
3.397945479475241587e-02,-9.324126068994452454e-02,1.496044915676056597e+01
4.340340755007822404e-02,-7.891944582078441739e-02,1.502227471433698547e+01
-6.673235156819914971e-02,-3.324861441373129500e-02,1.497105539969974330e+01
2.023992266178399699e-03,6.362336005087289303e-02,1.503190916151950240e+01
9.924736213758771075e-03,1.243062379604289829e-02,1.498904756078297495e+01
3.612554949658826342e-02,9.717398673250884911e-02,1.506751121876949817e+01
-2.163738453850669666e-02,3.244981478936417169e-02,1.493787814168212691e+01
-5.409778579925243053e-02,7.220756336684852617e-02,1.495840769070735909e+01
-6.220308160320737502e-03,4.871451340004341601e-02,1.497224006512436389e+01
-2.500769833364229616e-02,-8.844223761063332856e-02,1.501587185737356123e+01
3.210990697143280281e-02,2.500897530045321018e-02,1.496065115375157184e+01
4.492986631388286300e-02,3.992903661256203690e-02,1.508405451683605136e+01
1.298198475698926491e-02,-9.636897193564400790e-03,1.494663036004353529e+01
5.529749718396054919e-02,1.670115662422074279e-02,1.504436036151872536e+01
2.922141223182522383e-05,-4.291585002027644563e-02,1.497532127449870742e+01
1.527346227048351907e-02,-7.417965659642108620e-03,1.500655974237801260e+01
-2.866109349482025390e-04,4.674058455525215844e-02,1.504838850484698121e+01
-5.740533985425669283e-02,-3.723811983157215844e-03,1.495046589636705114e+01
-2.925971742855970614e-02,2.929649976187617601e-03,1.502847858408611259e+01
5.891139828181800146e-03,-7.222376644971580106e-02,1.506018431106105382e+01
-2.489252375431325395e-02,-8.753733082545581135e-03,1.500763624867507318e+01
6.447816433664176061e-02,3.279067027871229723e-02,1.496166229193062236e+01
2.274349331971780089e-02,-1.808303583554755553e-02,1.503409556420859339e+01
-2.052956387596261215e-02,4.952350631882156129e-02,1.500777768779281907e+01
-3.083958203196724129e-03,-1.120213790552910746e-02,1.498178583116258977e+01
8.833899530164290165e-03,4.693363884274580344e-02,1.498754166933203358e+01
4.785745154330937889e-03,-5.337207114483728115e-03,1.499930953551358392e+01
3.332142317271877957e-02,6.676959972888080186e-02,1.498313453966443554e+01
1.527439736276844408e-04,-7.062448677246997708e-02,1.502034448513832210e+01
-9.569795856038241025e-03,-6.618353702564896968e-02,1.495753576383541628e+01
1.518759482486499099e-02,-6.118254683867137278e-02,1.494906699543203921e+01
-8.750775728507303661e-03,-6.363192707836841377e-02,1.502996108735887582e+01
2.972616125229902290e-02,-2.236865512809788070e-02,1.498655725956685281e+01
-1.959455377203936366e-02,6.264438267021119056e-02,1.495042162545060371e+01
3.461873480136694325e-02,4.001921880592069353e-02,1.501233434320509019e+01
1.518510396265602448e-02,4.988052378557203577e-03,1.497763952988251823e+01
3.369073112285091154e-02,-2.260622140961096593e-02,1.500167277579376801e+01
-1.353375114538231307e-03,-4.082993330395022491e-02,1.504217119229248745e+01
1.332268333668436278e-02,-4.351984438343606265e-02,1.495729322816685780e+01
-6.960710237671858050e-03,1.792341377357140400e-02,1.501654806335328907e+01
-5.749384273725636346e-02,-5.201817244037197641e-02,1.504124748659992861e+01
-3.252679940292611122e-02,3.175237407496780961e-02,1.501542204552981552e+01
-1.403957217210388131e-01,-7.905065845263419336e-03,1.501616347429473741e+01
-3.378919288376339147e-02,1.095395778686683932e-02,1.499417556137003515e+01
-2.828550448849880342e-02,-9.149447821812569173e-03,1.502708551905136325e+01
2.011905925098660119e-02,-1.528225594549041839e-02,1.502334952763020759e+01
4.339558769251809084e-02,5.544252803218829503e-03,1.506550305602540263e+01
-5.868134205781899010e-02,-1.171500958615722884e-02,1.498593000167161371e+01
-6.028348315060313989e-02,1.912779466416235016e-02,1.495045171552051322e+01
-1.484215545333594571e-03,-2.090653618619072677e-03,1.499206480326327018e+01
3.181699524696761806e-03,6.898436825932333094e-02,1.496873644649504698e+01
4.544973271756463234e-02,-3.262944783141280558e-02,1.498156294272367539e+01
2.818052505125641718e-02,3.972979027008960440e-02,1.500332549531887416e+01
-6.926881934867230861e-02,8.666872791600070680e-02,1.503245029688764234e+01
1.039447512924576884e-02,7.132998910485761207e-03,1.504473050344254581e+01
-4.043731137641075682e-03,-3.399456389958466912e-02,1.501381628736210772e+01
-8.220849801403562473e-02,4.494785116798213909e-02,1.496297025808534187e+01
1.023462761100404645e-03,7.757614760195757388e-03,1.493484620782872874e+01
7.942035392263790960e-02,3.241084566246086891e-03,1.490511235708229165e+01
-4.186101533250451839e-02,6.776046885571900512e-04,1.495692476031469020e+01
2.105808945681336697e-02,-4.360916531453329359e-02,1.502886102133104806e+01
-2.232256505467345581e-02,5.581234315776871513e-02,1.494210276151242844e+01
1.276675345728515119e-02,-2.414420115093956001e-02,1.500413934669264826e+01
6.698248582802596510e-03,2.900756874882400374e-02,1.503202323229486126e+01
-5.929907710332926046e-02,2.181335082797695654e-02,1.503782129617116858e+01
2.992369746960528085e-02,-2.176810563260144632e-02,1.509831143903544159e+01
-1.282925990917960918e-02,-2.975955321680021082e-02,1.495138807149299254e+01
-5.635129578004372669e-02,-2.237013560274851015e-02,1.503192151346202721e+01
-5.104262517119857387e-03,-2.323993683067996502e-02,1.501604386485437459e+01
-1.529351693169358518e-02,-7.947157217546504948e-02,1.498950724623352748e+01
-1.285469602284780230e-02,7.355501843791931171e-02,1.506343404004771713e+01
-1.249677797888182687e-02,2.868332633108886323e-02,1.500849382403754717e+01
-1.895861431312467413e-02,3.537731088985529571e-02,1.503736012715462955e+01
-6.247067998528360588e-02,-1.933322982824411257e-02,1.493807300590384202e+01
-1.221202193342984035e-02,1.001904494011410848e-03,1.499819980735572145e+01
-3.390060056683844025e-02,4.748581303716773588e-02,1.501116554763182975e+01
-4.055806182215308288e-03,-4.069394669295373079e-02,1.495738088916064434e+01
4.427259407468110003e-02,1.162385086205753038e-01,1.500443777258816525e+01
-8.130033001391721859e-02,2.239011530589604670e-02,1.500588352749122301e+01
1.841783287581717082e-02,9.092143534197898169e-03,1.501851437841927250e+01
-5.270938131881994920e-02,-7.473448372637776782e-02,1.496465025094484957e+01
3.167461018923461297e-02,-5.903046771480554254e-03,1.497161488382222494e+01
-9.583293147397098366e-02,-3.385493973448661098e-02,1.502440989353291556e+01
4.608787235829114870e-02,4.313592788057714345e-02,1.500062430279617942e+01
-2.027500300524027674e-02,-1.518543562598996879e-02,1.497169587063184437e+01
8.020018952601556950e-02,-2.353153360241384828e-02,1.500490525813784615e+01
1.717847847812761092e-02,-2.825659121203865504e-02,1.502312538316322410e+01
1.047676037809591905e-02,6.779481495402989166e-02,1.495536574809338504e+01
1.082710793961920263e-02,1.815991172160431617e-03,1.497083963786169925e+01
-1.478424970586892371e-04,-1.115088092801212599e-01,1.498712363390269608e+01
3.632650904841092099e-02,-7.325601481961901973e-02,1.497043517111833211e+01
5.205321395588650285e-02,-6.859224420834644786e-02,1.500064083081031896e+01
-5.901861275031723697e-02,1.150938766218419923e-02,1.506668376541756338e+01
4.838324865210143211e-02,2.676343447931472941e-02,1.508077932738103399e+01
5.440984562200884556e-02,3.994182405780712097e-02,1.504661220244292252e+01
9.032403287265138372e-03,-5.418705474688889981e-03,1.502489435855899913e+01
-9.002505178370983838e-03,-5.731405790842914599e-02,1.505854090471428286e+01
4.204733231514176661e-02,-5.623916808591229027e-02,1.492501590180968307e+01
1.029056133285571016e-02,-1.033912819617420834e-02,1.496902310360249899e+01
3.688019133441898002e-03,-4.213962535652057348e-03,1.501461382157373770e+01
-2.451726881261650365e-02,1.813696885115640214e-02,1.503183078210603263e+01
4.547819590333689738e-02,5.476217677566442427e-02,1.503193262012305098e+01
-1.642479077299589807e-02,1.606522544700502569e-02,1.497270150063146588e+01
-3.681378383219232470e-02,-6.183517715117340524e-02,1.501482179515064530e+01
3.225150093132505419e-02,3.662286932641855425e-02,1.498089581990393349e+01
-5.434437846705788416e-02,2.547412995013110040e-02,1.498249153017465751e+01
1.720510805937752741e-02,-4.017724562495579577e-02,1.496002278765556248e+01
3.442898504184243452e-02,-1.363429090750200613e-02,1.503577344021130813e+01
-5.160379894678509757e-03,-2.003205984882336713e-02,1.496416861127217857e+01
-2.738593724925620504e-02,2.375301942921468831e-02,1.506226620100872005e+01
5.335372725649292075e-02,8.190739503171775779e-03,1.499065868684432878e+01
-4.134022463311923939e-02,4.540196662310441722e-02,1.501873424294431381e+01
-2.092959435946576199e-02,2.638399094918138926e-02,1.497586348570857417e+01
-1.830551294184249583e-02,8.398874660659003816e-03,1.504672662877497658e+01
5.921679668123790846e-02,-3.193600697595661009e-02,1.502008524427558811e+01
-3.461779833436824660e-02,-5.303881308365325335e-03,1.497254903538318693e+01
5.003826119347274531e-02,-2.198512432940244801e-02,1.501702713554557889e+01
1.695106164858261460e-02,-1.174121049258695058e-02,1.501200583681044165e+01
-2.346343343744219240e-02,-4.798226674915191670e-02,1.500392514747306549e+01
-1.769076360025254729e-02,-1.802311163224315504e-02,1.492657081312258782e+01
-4.252711716185249985e-02,-5.605136286726414459e-03,1.498726622185563251e+01
-1.600351474725417861e-02,-2.263755926541122926e-02,1.496364870274067016e+01
-3.954698290849682080e-02,-5.275586537401279370e-03,1.492898910240214327e+01
-3.123414404070577050e-02,-6.158589106659553836e-02,1.499677766462865414e+01
5.534109750772085029e-02,-1.671779178688593409e-02,1.501208272406879018e+01
2.502780120180025589e-02,-1.423978063616989677e-02,1.501853730964617206e+01
1.029257500705508220e-02,1.186143058592308876e-02,1.496841863162970832e+01
-1.871850195981502804e-02,-2.900490914247489185e-02,1.502383299021226470e+01
2.244382309762609634e-02,2.970988607045336669e-02,1.500394736679679930e+01
1.712471480623022633e-03,1.047896014120640318e-02,1.504440433046732473e+01
4.340667698680428233e-02,-4.737074235330155508e-02,1.502659095823189617e+01
-1.346476506641663094e-02,-4.079923721580136498e-02,1.498463351073143812e+01
-1.387265389314465804e-03,1.649682740404552136e-02,1.502144540793892169e+01
-2.948966792882883829e-04,4.969841549097170526e-03,1.506198233514755991e+01
5.928165691509532792e-02,-1.095490794360308023e-01,1.490625825576771568e+01
1.072759539026404974e-02,-2.445026952352319372e-02,1.506948077779750683e+01
3.393633132198695113e-02,2.560747847103266375e-02,1.496483386772935020e+01
-2.863137786098248275e-02,-9.240073140359149340e-03,1.496840094516201880e+01
-1.339198579625857331e-02,-1.681619509006926534e-03,1.353252212392274600e+01
1.887599271021790648e-02,-8.174294890522296880e-03,1.211379399325828210e+01
-2.370229057550239660e-02,-1.321865786401945145e-02,1.098018214613329491e+01
-1.074874034603136297e-02,-3.694764908838104461e-02,9.857665781460168475e+00
1.743080011567292933e-02,-8.543824552140671935e-03,8.853389044430983290e+00
2.565349120319173129e-02,-3.724590512065117237e-02,7.993627064973988006e+00
-5.082556528033220500e-02,-1.644760347475171525e-02,7.148262288662257546e+00
-2.933567366120533662e-02,-7.417808989296184596e-02,6.468995467506668540e+00
1.933427960474246379e-02,7.914575827292064797e-03,5.847034033047019186e+00
1.792072747157319457e-02,1.451717958157078270e-02,5.261472843524359178e+00
2.490025932223731680e-03,-5.731253930944864988e-02,4.777580397814692681e+00
-9.312086828864645990e-03,-2.215393364887177641e-02,4.227038873554898046e+00
4.006974001853631090e-02,1.930017939406972888e-02,3.820144714490586679e+00
-1.120786349734541609e-01,4.682484829307639179e-02,3.334562847877374558e+00
5.322765516951369000e-03,-9.274132875222691015e-04,3.029839102496212355e+00
4.371294335820378844e-03,-2.512937225988480169e-02,2.809289278023975989e+00
7.305021184863651207e-02,-3.322551835932160708e-03,2.527950546785829200e+00
-1.530440481187044996e-02,1.390587643801783485e-02,2.266734813239456692e+00
2.832484089719087324e-03,1.882741130247072778e-02,1.932995622720132589e+00
6.254111414533217173e-02,1.031100087593968609e-02,1.851768438897381186e+00
7.337427485875018529e-02,4.408307175699438529e-02,1.585868491516787993e+00
3.129285084069910461e-02,5.742208314436663720e-04,1.436700920266583026e+00
-5.194976398604014139e-02,1.429189307002669274e-02,1.382521704569042997e+00
1.261366420280836918e-03,4.323345551683415583e-02,1.217273650809449714e+00
-1.505923849773207861e-02,6.575386675869674367e-03,1.166240919369331941e+00
6.730251503175813110e-02,3.718377318905857071e-02,1.051734359180648282e+00
2.378245916040431715e-02,-1.803350401240885401e-02,9.148651958652689320e-01
4.036272826733116464e-02,2.111306626323708122e-02,6.909932845250249533e-01
-3.152777076795348909e-02,3.470447045199696184e-02,7.185801267080080823e-01
-3.961336487113674421e-02,-2.220291388697554283e-02,6.085910961324348945e-01
6.224745129391379139e-02,4.384796897812230399e-05,5.926117131202172095e-01
8.890436205450305681e-04,4.842837068169794645e-02,5.797389104935847248e-01
-3.287966907272330680e-02,6.998933613295314771e-02,5.135768043545653194e-01
3.039835853326146309e-02,-1.228807522853524702e-02,4.718797913938855837e-01
3.533715403694204921e-02,6.400530084432141942e-02,4.738941708577381617e-01
2.955650847145592161e-02,8.090846893360375755e-03,3.516342766817145415e-01
3.059836616600423650e-02,2.479980386932227610e-02,3.223920499912817372e-01
-2.134322517501200875e-02,3.479409515554077181e-02,2.343683673749752672e-01
3.734898532382323333e-02,-3.984952501738313335e-02,2.157952469616714608e-01
-9.723769335620626938e-03,1.195389932618668057e-02,1.547165816027771534e-01
2.917460273593154227e-02,5.425955316836492820e-02,1.380557366535862807e-01
-7.670702472219723123e-03,-2.080520494609233717e-02,2.291036265705166108e-01
1.269594177389624622e-02,-3.251763333613037071e-02,1.281582002107733709e-01
-1.807885164884241377e-02,1.271274558169680977e-02,1.712101723306870271e-01
-5.836663305246759907e-03,2.021042646280730559e-03,1.585405191339424313e-01
-4.781847743090941738e-02,5.169640397362445378e-02,1.316866759026379674e-01
-7.474857723454406133e-02,-5.673974133690655453e-02,7.298373364962380816e-02
4.254775666772330628e-02,3.845049620068183988e-02,7.660889626743998260e-02
-7.706450879666809986e-03,-2.454394167920639566e-02,5.266468037827248816e-02
-2.783535084186692515e-02,2.534588219016805158e-02,5.071896316312074493e-02
2.090056370063853031e-02,-2.169006260169840244e-02,9.191910513074316724e-02
-3.685454482398287795e-02,-6.673385888507314678e-02,9.544845241107419165e-02
1.080834023103979108e-02,3.090855416787290436e-02,-8.505002506302128396e-02
-2.617630967202313683e-02,-3.382175713588082139e-02,7.276419073557695294e-02
-1.570328239635711623e-02,-4.146675762545116994e-02,2.731407412965112386e-02
-1.173405999782046322e-02,-8.468753786565634545e-03,4.013100086363659974e-02
-5.387141680230738729e-03,-1.391808030510845867e-02,8.017338129338461017e-02
2.671477231497614360e-02,8.479161400354316702e-02,5.313176976470577323e-02
1.080154354614371384e-02,1.356665134487635045e-02,-1.830571046418025954e-02
2.985819352653060893e-02,4.373004427076170042e-02,1.090749148307729316e-01
-4.812250847477812093e-02,3.459753688704319402e-02,9.203130739312460895e-02
6.616639795774884036e-02,9.140500734803699845e-02,6.648159787847442159e-02
-7.652724549152573053e-02,2.803640651381091378e-02,8.309153025104754065e-02
-1.001148766933286942e-03,2.264156237322496878e-02,3.301619949596473758e-02
3.553561394226391335e-03,-2.762602672678564353e-02,-4.880582017882691137e-02
3.208920658412412613e-02,-2.419007422872586008e-02,7.208838149208926516e-02
3.195127681802804182e-02,-4.442035470417203882e-03,1.879400735441105058e-02
-6.886538598510627551e-02,-1.060099177877109472e-01,7.644203632527986347e-02
-3.644658787913148540e-02,2.710329405334575142e-02,4.563208653241438567e-02
-6.406363134147421978e-02,-1.202725663824401889e-03,-5.659732186109856650e-02
-1.122143283487809506e-01,7.867692274962380383e-02,-5.916789787926635819e-02
-6.601078255952110008e-02,3.754106267406706263e-03,-2.662314413012237604e-02
1.989345214329631129e-02,7.251244096490540303e-02,8.066045298818973197e-02
-1.027158445210830107e-01,8.208836399567483177e-02,3.489456659029841618e-02
-1.385425238987708337e-03,1.108701789951262728e-01,6.559148157197584698e-03
8.362070485372398443e-02,2.124318972070452297e-02,-1.551886295424347896e-02
-2.442987982115056231e-02,7.300004769752688367e-03,-9.423384176855986380e-03
-2.556279774711052791e-02,-7.186598799743411023e-03,3.119132174816442032e-02
-4.859474064595604992e-02,1.193009362482147506e-02,-1.853866827730428924e-03
8.552590732995310474e-02,-8.160904867792369288e-03,-5.528515443664754753e-02
1.151998996725140355e-02,-1.585963184829712602e-02,2.487355283642023185e-02
-2.086126346951439059e-02,2.347205075592692647e-02,3.199979230350162573e-02
-6.501742089173058285e-03,1.631909152094449325e-02,-3.141326540316868865e-02
-2.948484712481726222e-02,-1.298202848532853913e-02,-1.806883813891466128e-02
3.512510202538324808e-04,1.256490467222418084e-02,1.494768800481365012e-02
3.555767632082399571e-02,3.355954871473590395e-02,4.394840172038013554e-02
3.310412218782474852e-02,-3.897675317764356939e-02,-3.097820521946900718e-02
-4.709054155684169393e-03,6.305725430267417921e-03,-4.469377064692130891e-02
8.548466678107415062e-03,4.195249702299157918e-02,2.886713348988290823e-02
-1.065341826659224177e-03,8.783312159165723720e-02,1.114652751439426659e-02
-1.548532482585494342e-02,5.454954285003234954e-02,-3.693049579482426958e-02
-3.518830099479795109e-02,-3.395523601325361324e-02,1.843070409790285510e-02
-4.175365790456275414e-03,-4.712229168398346379e-02,2.030786052029211804e-03
8.347824463481685886e-02,6.349584946131335561e-02,2.421979907679448416e-02
5.328910107953774289e-02,1.320735975140690903e-02,4.969705299167530982e-02
-3.535485011074228356e-02,-1.295829617675914834e-02,-1.272956727509806651e-02
-3.669804493942890183e-02,9.949958091848103148e-02,3.081819670886138274e-03
8.035824507068511924e-02,-1.114706364357046647e-02,7.761005117499496231e-02
5.114773246866539946e-02,-3.688509232338774840e-02,-6.458326494079347224e-02
3.844395160853746572e-03,1.191192650262962865e-02,2.672784203587895077e-02
1.060940647164714500e-02,1.250682897900393456e-02,2.032658745761868266e-02
-6.960473133846104346e-03,-7.108671209543263383e-03,-5.607448076669301236e-03
-1.100335268561750401e-01,-2.303280610451866744e-02,2.382776788279451774e-02
-5.091430884940088830e-02,1.646401826737917129e-02,-1.376954098043534774e-02
3.619954023490922629e-02,7.842017378996164745e-02,4.980965048540640649e-02
4.290085677794900493e-02,2.748556597053246689e-02,8.558076467991357350e-02
8.090289678795957451e-02,1.689427872565633926e-02,6.630964213149035356e-03
8.059498430981429373e-03,-4.332902813195037978e-02,1.875621710400771774e-02
3.847384853060573789e-02,2.966162377140052833e-02,1.913381833870523435e-02
-8.670330665425822481e-03,2.816668511024185417e-02,1.282167295085812238e-02
-7.277131518775832586e-02,-1.727934600507153445e-02,-6.104967436725608487e-02
6.322222167010765892e-02,6.060667462131672824e-03,7.986848995688923536e-02
3.506742122802554429e-02,2.328522299186957297e-03,7.806464246026943721e-02
-4.879699372133255997e-02,3.765288030601648961e-02,3.505705168336221977e-02
-2.194312277098869890e-02,-4.230555929673283228e-02,-7.223457338067411707e-03
6.992584441920339337e-03,3.510956266133089931e-03,-3.475452972792908435e-02
-4.210164079975011603e-02,8.152036805874381120e-02,-2.942832014867400453e-02
-1.710613495743321111e-02,-6.072142408205993824e-02,-1.196640899534071739e-02
4.572753081631428240e-02,4.262732150017033844e-02,9.396777259610999966e-02
1.174885152454659219e-03,-1.957051131585141324e-02,-4.098830755987262729e-03
-2.551520795543447268e-02,1.054063286682608430e-02,1.873059827053132065e-02
-4.401310442888689556e-02,3.003438348106692111e-03,-2.475101666114989940e-02
-1.715981385286818872e-02,8.988823355246024216e-02,3.528793619536955278e-02
-2.158264305492283569e-02,-7.440843767355135967e-03,-2.719903329599965974e-02
-2.134751578544615697e-02,3.711206988093958964e-02,2.862644746908877061e-02
2.756712425816462697e-02,-5.185258906265957646e-02,-4.812755155360377499e-03
2.162460599666643155e-02,2.960375525400845212e-02,-2.416845670997626316e-02
-1.800351829043993213e-02,1.665045556896994211e-02,-1.603722306040168818e-03
-7.333219412571834531e-03,-1.104625134721101817e-03,2.818147105169294727e-03
-4.969162212257138833e-02,1.814734674984963200e-02,4.954469144482495820e-03
-3.198464249984594044e-03,7.504197522449014557e-02,8.457220500597372251e-03
-7.129385122384217233e-02,-9.808733252647783805e-04,-1.978124534786323760e-02
5.272558107761349255e-02,1.344539100519151834e-02,1.337472393431017072e-02
3.250253217249668425e-02,7.306543517868985260e-02,3.940717169655291383e-03
-1.035773904920744923e-03,1.543856018140389932e-02,-1.375315581472935644e-02
-1.917748127742278930e-03,5.740039330982345256e-02,2.956771569781008191e-02
1.248177714144376241e-02,2.653898264641054924e-02,3.905423114875072876e-02
-1.386105660352530446e-02,5.317179121349251830e-03,1.022552867154030432e-01
7.547768957941600187e-02,4.918591982497848292e-02,-4.049864886563555449e-02
6.224903542162778247e-02,-6.832174801327613178e-02,8.763053144621554130e-03
6.604843006764542224e-02,-2.554001950633994281e-02,1.817223890169466713e-02
1.708217475922000836e-02,4.202983078217255308e-02,-5.197160922066629274e-02
-6.036289861644613536e-03,3.279727378395093373e-02,2.413311736126381654e-02
2.697186354357107574e-02,2.437855601568644781e-02,7.272654539804641882e-03
6.052809202216254819e-02,3.276499305768830472e-02,-3.294493512659914941e-02
-3.792437990397429237e-02,-3.408514379438123357e-03,3.780948129730559576e-02
8.809708041977482029e-02,-3.337069267849495507e-02,-1.391515505883478450e-02
6.821585261085485498e-03,7.685379284955778587e-04,2.843163643057513082e-02
1.813129060609204937e-02,7.354440404064508914e-04,-4.616104796321147952e-02
-2.601115966333658602e-02,2.438776075310629746e-02,-1.361532391200511935e-02
2.594199361567943798e-02,3.492529982545529432e-02,3.496840499934533025e-02
-3.251916613804275297e-02,1.005316864862002557e-01,8.431973981204836724e-03
-7.165635924163596404e-02,7.793840377771170044e-03,-9.214026925856455899e-03
6.090150174199738392e-02,-1.861884015019677277e-02,-4.721563505677316835e-02
-3.088042848103277754e-03,-6.046538368703420485e-02,-2.290848599909427533e-02
1.206401111786494472e-02,-7.082605987926270802e-03,5.340870948693860615e-02
-1.030859536276967567e-02,1.002345180278848592e-02,5.161867086682344480e-02
3.660414001101952586e-02,5.732933024580603130e-03,-6.658480154760386405e-02
7.187143357707169444e-02,-6.179527408722035320e-02,-3.357832896266989709e-03
-1.158363874854445585e-02,9.994813108383840058e-03,-2.731698337054820971e-02
-2.344059421579765615e-02,8.323924005138902404e-02,4.869971036013516497e-02
2.860875689358370264e-02,-2.666098373493528892e-02,-5.344022374577621012e-03
2.152625030506650182e-03,1.187861753484570002e-02,5.598009871392280526e-03
2.497815329505380377e-02,4.233555870115834202e-02,-3.034925588313117789e-03
-4.342607269359732153e-02,3.902482334023878174e-02,-2.132139687580169099e-02
4.205684566911429417e-02,-1.958016356598929128e-02,7.246706298509620128e-03
-3.227478742214624080e-02,4.470427731903627022e-02,-1.207203673290618319e-02
-4.038083751276650736e-03,-1.795829594037804539e-02,7.346992671877398441e-03
3.015810934847074770e-02,-4.648514041071870329e-02,3.370047152071634772e-02
1.567996096430342504e-02,1.213621923715512557e-02,-1.540480940733424640e-02
-3.591727306130346881e-02,-3.558217672490211064e-02,-3.557694585903484891e-02
-2.260453163221054843e-02,-3.834242402675563932e-02,5.226450410319578854e-02
2.445108833427742448e-02,5.529956519749251037e-02,-6.493268358169450305e-02
-4.254350135336675692e-02,7.630260902926855326e-02,1.662085288073410216e-02
-1.231922878963001566e-01,-1.106505252424981600e-02,-6.023281325487699761e-02
3.135669785148412214e-02,4.343750875088332741e-02,-3.952424586043966348e-02
7.233943956212415816e-02,1.351611561265779471e-03,1.314697362661103319e-02
-6.151010975185654608e-03,-3.863579642873211234e-02,-8.621706072158302758e-02
8.605706188088931008e-03,5.326897998033035264e-02,2.450072619340108726e-02
1.709716336922556187e-02,5.330217619136629927e-03,-3.221156327725140101e-02
-2.294105734461002275e-03,-6.622060713849779734e-02,1.693212640777366209e-03
-7.372129455536237386e-02,-3.067391247120780651e-02,2.127292651689842787e-02
-1.225495768099678362e-02,-3.102755612523499379e-02,-1.305426607544615120e-02
1.528728849099886267e-02,1.274175708225228076e-02,1.949577198426112254e-02
-6.275952099130611972e-02,4.324475157678878828e-02,1.013095955514825425e-01
2.642159707037464167e-02,-1.419018498330642218e-02,-4.381271506694691537e-02
6.708889957707396892e-03,1.061927945011742827e-02,3.335873578479059409e-02
2.343701022842426419e-03,-3.408423241406133980e-02,-2.933756081088787632e-02
4.182680395605963691e-02,8.853233227954202672e-03,-3.155989140897793449e-02
-3.144583543788791180e-02,-9.446387511745197099e-03,-1.976357111753166383e-03
8.463856400844502192e-03,7.488765540296550560e-02,2.004846995653509351e-02
-5.699180791911932775e-02,-4.522827233338677644e-02,5.679437594136244744e-02
3.667953542094390396e-02,-2.057591065715732789e-02,3.163269212923838086e-02
2.873468357895498509e-03,-3.224488275122144865e-02,-1.978723986964871923e-02
3.561250547132269184e-02,-3.105725340017857425e-02,-3.801252615750608244e-02
6.343718706818952946e-02,-4.895439862922897067e-02,-2.428036767303445170e-02
-1.696433336145771950e-02,-4.358301416611735923e-02,4.849086029594252417e-02
4.366192524693909838e-02,-1.443727984853320108e-02,2.676347062374244412e-02
-1.797858864168743256e-02,3.470737568034085174e-02,2.351718947375717669e-02
-4.747642476430067107e-03,6.606031091696942803e-02,-3.316110608017288491e-02
-5.480204107196678248e-02,-1.400390705294277810e-02,-4.887290810739707003e-02
-1.844124328416529152e-02,-5.058365303161797139e-02,3.154405629593857313e-02
4.362893867367641232e-02,-6.135865923625378332e-02,-2.093029473300789603e-02
7.849719305371911145e-04,-1.013758602478103538e-02,-4.032188669426065020e-02
2.618467683075128422e-02,-7.824039324704333553e-02,6.922382868724290261e-02
-1.829540462390178877e-04,-1.547931696460839654e-02,3.809416509675750406e-02
-2.619897985599861645e-02,-3.627969177987568766e-02,3.349498653414946080e-03
3.758734081800915727e-02,-2.935094343674876389e-03,-1.673305522915099347e-02
2.562382762807059039e-02,-7.354120919257842171e-02,6.718834585314534258e-02
-4.418765458669415142e-02,1.326742858557061061e-02,-4.373159246040903697e-02
-7.035280366383681516e-04,-2.679376778546681270e-02,-5.244829855999177254e-02
5.335140276812594395e-02,-4.770002110712881493e-02,-6.223630427203238891e-02
-1.029191978660305012e-02,-1.103943512940979560e-01,5.055753854996417745e-02
-3.723613824775422187e-02,-2.313738821427943626e-02,-5.895068695971530937e-02
1.189965940942300411e-02,7.702831966080438348e-04,-4.862310206118161671e-02
2.054880484005783964e-02,-8.263289936060094071e-03,-9.779677167585451580e-02
1.965799724680468256e-03,-3.833515130175859254e-03,-7.187612637634384002e-03
3.817945311056742536e-02,-4.208638776007858455e-03,2.665431788477960404e-02
-1.827367376008423583e-02,-9.684762380324807643e-03,-4.975170363169460069e-02
-4.514269734484646635e-02,7.851837651010876162e-02,4.773542884646475581e-02
2.479663847284726066e-02,2.948554661975174435e-02,2.429419536223478143e-02
4.911895089544369986e-02,1.507046454884509133e-02,1.100315641548043483e-02
1.225610367841462392e-02,-1.690249544082119641e-03,6.785457531427241569e-03
5.234633749109940566e-03,-6.511366228301636305e-02,-1.764485184661748751e-02
9.278447521066860229e-03,3.098682914866897342e-02,4.100186191285530579e-02
-6.786488924246872334e-02,5.970300567695969313e-02,-7.707526827133345804e-02
2.347240914149481897e-02,1.080399154417444399e-02,-3.234068747850889908e-02
-1.096848524290555682e-02,-2.082790080333443705e-02,-3.290188051895749644e-02
-5.472432633040426667e-03,-5.083960910295325444e-03,1.140569315667148281e-01
5.279059996796209818e-03,-3.884767565521322387e-03,-1.580440004553123126e-02
8.602435123525138672e-02,-4.385202329868465726e-02,4.044651803263484002e-02
-6.399983163704002498e-02,-2.235822243750361848e-04,-1.819679347304483524e-02
-3.737987327322246037e-03,-1.504491059183228965e-02,-8.402519156714799778e-03
7.204802833264791102e-03,6.230547737437691636e-02,1.087679657546859920e-02
-2.340842590989327190e-02,1.518751310537646768e-02,6.743333070530109496e-02
7.294830745710655096e-02,-3.439527920302144770e-02,2.175274679990597815e-02
4.398070157544994169e-02,1.102998513847276187e-02,-1.108505281505956994e-02
7.553306081528827175e-03,6.571304716534163981e-02,6.608645772184539025e-02
2.760669576010815404e-02,1.761487511162216149e-02,1.507675171999270022e-02
-1.249432105020207261e-02,-4.397736151976040092e-02,2.155573067274217484e-03
1.035502350348134135e-02,-1.794464302193364211e-02,-8.137298192596592594e-02
-2.772461758107193017e-02,-6.440723528992961522e-02,8.960504869493544217e-03
-4.387985717128308621e-02,3.724220637924620381e-02,1.199720462316206972e-02
-2.311425086885933108e-02,2.107676073742932935e-02,-2.769400657523067577e-02
-3.681260454314496527e-02,-1.159132295340459598e-02,8.444903763248505502e-02
-4.503213159099567903e-02,-1.687663230500159942e-02,5.193148089746757456e-02
1.524489472936660026e-02,6.937774905638567462e-03,-1.564727352828242796e-02
-4.233978205961604763e-02,1.533649797312160341e-02,1.048336734239479762e-01
-2.776708375914296346e-03,2.326515429736386240e-02,4.945607356631741280e-02
1.869823588904070966e-02,1.912961849333493641e-02,-4.180629123520741841e-02
1.721209847412738525e-02,-3.331775601759199429e-02,4.904951423762938384e-02
-2.474858650666967100e-02,2.337946386579170879e-02,-2.265343553002706345e-02
-3.971756195677936252e-02,1.466282989490652264e-02,1.671862334421428051e-02
3.258398412060613258e-02,9.820501330188599609e-02,-1.833209529280925912e-02
-4.702477815201022704e-02,7.035172595724514984e-03,1.330975467182908371e-02
2.956121959236738400e-02,2.467923809737991581e-02,-5.292206700063124825e-02
8.112067801986415361e-03,8.376118396860265242e-03,6.022202042987002263e-02
2.477029675741765358e-02,-2.619011690639824058e-02,-7.251210576345483438e-02
1.029980600145888464e-01,-4.594012151016606260e-02,-3.967066386655872939e-02
-7.644110815532987463e-03,7.603436941770773394e-02,1.219850629939010604e-02
-6.522505032916418866e-02,-2.831938041139234891e-02,4.181010062816875594e-02
1.230321787490191651e-02,-3.029951264466284808e-02,-1.768372649066856511e-02
-1.945500715701593136e-02,2.725803461388069324e-02,3.050645973170984515e-02
2.248805850708515339e-02,-3.355628283630476827e-02,5.318636801913484251e-03
9.758888505233832486e-03,5.529730479398733273e-02,2.886250097297227493e-02
-5.399400322164744914e-03,-8.532073275034431081e-02,3.686542004667295314e-02
3.157488749318304415e-03,-4.828658406977365952e-02,-3.910676375642160862e-02
-8.108876169363597730e-02,4.388090902766373508e-02,-5.001557143066709399e-02
-1.110944597355341228e-02,3.679176227775509973e-03,-7.659668751364866190e-02
-4.864289647465818572e-02,3.809353739339157302e-02,3.879061748721386593e-02
-2.044238318501775259e-02,1.504349463445730888e-02,5.540047521830477467e-03
-2.455462356564494519e-02,-2.842299239176325487e-02,-7.381719647164210196e-02
-2.771998623211172075e-02,-4.086928928281771851e-03,-2.570749394237280272e-02
-4.506295452880750702e-02,-5.022135035810632031e-02,-4.104495730548889012e-06
2.839044625266015295e-02,-1.149415023993758181e-02,5.500266032975669600e-02
-9.368124860423068107e-03,1.689688806921263789e-02,-3.321645925992932485e-02
-3.261301812124253047e-02,-9.245546273306169682e-03,-6.464798742995256364e-02
3.416462656441287410e-02,-9.916635951983140962e-02,-1.703484743677204094e-02
2.685188079006413028e-02,7.403886923587188647e-03,9.692088374518459393e-03
6.829531448021000650e-02,-9.235644135130701218e-03,4.994524853338602743e-02
-1.332261382398956980e-02,-4.765064667610745958e-02,4.325960513247200170e-03
-1.150477532004117072e-02,-8.212097253479254746e-03,1.899189743294009804e-04
4.757820092684945240e-02,4.643679456722230037e-02,3.155578366234851329e-02
8.370114950286024202e-02,-6.700864019618935769e-03,-2.880131074670881988e-02
-4.590945330663953605e-02,-6.362702445229888315e-02,2.550127097171785845e-02
-4.316953801868571652e-03,3.302653351373494028e-02,4.340876463497514437e-02
-4.528150333385817794e-02,-4.056234086790219684e-02,-7.274373203032624691e-02
1.234052737783159978e-02,-7.960077277759372225e-03,-7.238015473827361101e-02
5.698932600166577850e-02,3.063778357349257030e-03,-2.806757720924281732e-02
6.681813708887066050e-02,-1.992162799936737089e-02,3.384007004932251123e-02
-4.137173826219214118e-02,3.531682986185268741e-02,-1.222817050011155808e-02
-6.116547362619687705e-02,-2.536240638218931198e-02,3.382501580531503075e-03
2.413544529264394917e-02,5.256051889185591602e-02,-4.119811792276426715e-02
-2.794087935177589840e-02,2.808532239517005577e-02,-7.310351260007548480e-02
-2.051437413934074222e-02,-1.997140082452413673e-02,7.281663681863073667e-02
3.260987247607038259e-02,-5.057757811721946134e-03,-1.505982897301104233e-02
-2.415079885200751772e-02,-8.591986112154863242e-02,1.796610452815628617e-02
6.557977371029881375e-02,1.347936869433032092e-02,4.474709209774670876e-02
4.293918092045433121e-02,3.318202274096659996e-03,-1.249914116444779261e-01
3.890557970551695999e-02,1.333593600963516382e-02,-7.342115949562617871e-02
