accel_x (m/s^2),accel_y (m/s^2),accel_z (m/s^2)
7.617246463463651289e-05,4.148261047734130651e-05,-9.795008353661335931e+00
7.349780225286718356e-05,-6.046162151368788244e-05,-9.794401092639175133e+00
-4.854370760136601635e-05,-7.771801840499675503e-06,-9.794931508262882502e+00
2.780364383582126361e-04,1.765143637014915422e-04,-9.794451705658326901e+00
-2.948960838541856973e-04,-1.570176018721824551e-04,-9.794489344923899665e+00
1.092486852292269382e-04,-5.172107131899037434e-05,-9.794701819284341582e+00
-6.074002821969463173e-05,-6.523879901941625180e-05,-9.794381972716655227e+00
2.330532914219022819e-04,-1.019380657082683472e-04,-9.794551008881962062e+00
-9.141342847644089251e-05,1.266137318620104229e-04,-9.794426383855768137e+00
-1.951905157390437361e-04,3.339830635021289471e-04,-9.793976793831841832e+00
-5.684470074831750639e-05,-2.437438768733086244e-04,-9.794739778265025620e+00
3.197984309665989318e-04,6.924383748608422639e-05,-9.794041524240919117e+00
-1.627241469052697373e-04,-2.089364021094579338e-04,-9.794145146411770142e+00
2.690865857381576076e-04,-2.624675522345990659e-05,-9.794289951743259337e+00
8.581719196199842962e-05,-5.079142896335599498e-05,-9.794981024834143568e+00
5.567782471630934599e-05,-1.244750901596852223e-04,-9.794729243667783081e+00
1.411880238458864648e-04,2.159548402802064719e-04,-9.793950573777724600e+00
-5.270705921455396401e-05,-6.935290655911874498e-05,-9.795161682428068062e+00
3.985468214749365791e-04,-7.772497926998652871e-05,-9.794496411776192346e+00
1.389305973973059668e-04,1.743142354082137405e-04,-9.794381704332021599e+00
-3.540379824682093521e-04,5.920834750967267601e-05,-9.794514933725096739e+00
-7.823332671903473879e-06,-9.903792738734983688e-05,-9.794711204129365356e+00
-9.316758817153066963e-05,-1.398335331474018651e-04,-9.794665453155278811e+00
1.239917687168884018e-04,3.119506117354949081e-04,-9.794790976071620747e+00
4.680615661541358236e-05,1.055430688104725133e-04,-9.794325802360377864e+00
-1.468417437153075110e-05,-2.269748526597357307e-05,-9.794297319967489202e+00
6.769098720937010262e-05,-1.603708541696964921e-04,-9.794183632051764121e+00
-8.186585375640018786e-05,1.733916946226106860e-04,-9.795311683177549966e+00
-3.365177044359755790e-04,-2.004699627597776568e-04,-9.794346013056827616e+00
2.674069774704698342e-04,-1.774056423417138357e-04,-9.794066793375010960e+00
1.660446780432762407e-04,7.410153262812916874e-06,-9.794721001200265675e+00
-2.551325097742498135e-04,2.287159557734836539e-04,-9.794506153916065827e+00
7.977968333849606809e-05,-9.696973206853319366e-05,-9.794836323734784855e+00
8.720913148798950759e-05,-6.031399283397218404e-05,-9.794619656471198255e+00
1.999287938679004679e-04,2.705838744204051372e-04,-9.794510414973238710e+00
-8.776874257970957306e-05,-1.263828079383702292e-04,-9.794550685138606383e+00
1.673250082593317372e-04,6.722535202515051952e-05,-9.794894063071872381e+00
8.296169865432205222e-05,-1.582695442281597154e-04,-9.794579008202827453e+00
-2.044634464595685038e-04,2.929210942858818056e-04,-9.794355572122638520e+00
1.041129832178226515e-04,-1.681420273045980938e-04,-9.795223693579039548e+00
-1.392586695755901404e-05,-8.435356230426250266e-05,-9.793939025729725856e+00
-5.576213137631619022e-05,-2.017155030310481198e-04,-9.794583805690288969e+00
5.578394703418656982e-05,1.392864262715512002e-04,-9.794270121968690290e+00
-9.316957081613985432e-05,4.313983757596336055e-05,-9.794736814624567245e+00
1.067992950069457706e-04,-1.346900315379645681e-04,-9.794626637064865804e+00
3.445682244640679501e-04,1.552249708487253631e-04,-9.794243782612079841e+00
-8.095113060554244479e-05,2.831160827482521704e-05,-9.794592985220699433e+00
-5.616973019682606984e-05,-2.592714481884409551e-05,-9.794468135278378895e+00
-6.241244689398598063e-05,-1.101406140019501397e-04,-9.794184203113072584e+00
-5.494667128935429588e-05,2.668722493073065992e-04,-9.794728652621968124e+00
2.354339707318809261e-04,-9.764329992067178059e-05,-9.794487397048582622e+00
-1.183098906094551977e-04,8.494885717791741877e-05,-9.794316924138016134e+00
-2.292118653578429169e-04,1.246303133759575394e-04,-9.794453184673820090e+00
-2.592992047243400182e-04,-1.516073817706311405e-04,-9.795107798651079278e+00
-3.707923909614278877e-04,-7.647424639770769778e-05,-9.794288607001945479e+00
-2.362980929920532056e-04,-2.072773329176507372e-04,-9.794149530904304513e+00
1.199603123006712279e-04,-1.576206260110031251e-04,-9.795099139793519427e+00
1.437676212042455083e-04,-3.727136972673617492e-05,-9.794491420217992683e+00
-4.316742449718780295e-05,2.113661484524501164e-04,-9.794702598599066334e+00
-1.766244493578287059e-04,1.279041502198221506e-04,-9.794664673179381609e+00
4.150366372296749803e-04,-6.098164395505498110e-05,-9.794853471120749333e+00
-3.030658408023187596e-04,-6.229702937387139421e-05,-9.794290882016845501e+00
1.147735322834982232e-04,-2.394535327255438667e-04,-9.795054167643350240e+00
-3.968836994212485126e-04,-1.073671048887878988e-04,-9.794112747162120769e+00
2.048299929638591605e-05,-7.559475180917426347e-05,-9.794702291380952275e+00
-3.915483329972238157e-05,-4.533962369947336189e-05,-9.794557790096380501e+00
-1.397882183072430618e-04,1.743113943706346106e-04,-9.794409740597536995e+00
-1.659271946285464529e-05,1.492113035216584955e-04,-9.794330246465772660e+00
2.604201220328910930e-04,-1.717855803947990778e-05,-9.794632920137921417e+00
-4.488093810985813680e-05,-3.747053174613906965e-05,-9.795181885366107011e+00
7.759607037834916532e-05,-2.051872339238980530e-05,-9.794500173037175017e+00
-8.927082293578328344e-05,-5.407832624292255563e-05,-9.794571897722191167e+00
1.858353561809929287e-04,3.836401264379353098e-05,-9.794645793272833245e+00
-1.121612489069732447e-05,-1.885073729493002431e-04,-9.794600609758372656e+00
1.326246544575309706e-04,-6.943564664761077182e-05,-9.794815889879259885e+00
4.000420340455596008e-05,3.696337212635645425e-05,-9.794557358011406478e+00
2.093548088919629750e-05,-1.254081585569261363e-04,-9.793731915718851155e+00
6.079596890468376246e-05,1.697178975508300744e-04,-9.794444709127162696e+00
-1.471505637221048564e-04,3.379767480318434758e-05,-9.794194226294912653e+00
1.202992662390828173e-04,-2.567040244466001133e-05,-9.794909621064446625e+00
9.072912303799869559e-06,-2.010115642547215774e-04,-9.795414792537677329e+00
2.087697286984581077e-04,-1.449674432447105982e-04,-9.795415646433077939e+00
-1.933590274571631536e-05,1.390408161796835411e-04,-9.794628903257578401e+00
-1.261952933426136348e-04,6.640910882920028407e-05,-9.795262513773783652e+00
1.578145823807981178e-04,-6.766838567585451033e-05,-9.794346974898195057e+00
1.303053029906059597e-04,2.390519134665944378e-04,-9.794646836172161031e+00
-6.246965994403237915e-05,1.091404327106491201e-04,-9.794585324300566498e+00
-2.508449156420105897e-05,4.735127066394843290e-04,-9.794611345694242743e+00
4.349499613404875611e-05,2.518094787904467030e-05,-9.794880767098142371e+00
-1.709200335869148215e-04,-3.772202515339911422e-05,-9.793891979275224813e+00
-8.788512231728573835e-05,-1.344258125065132536e-05,-9.795062518296647980e+00
-1.368431125791052627e-04,1.510901489131551004e-04,-9.794879958347872062e+00
4.602921679513048312e-04,9.281304535607228193e-06,-9.794672609141512609e+00
9.840845242955658441e-05,-4.938939279955398238e-05,-9.794315237507772665e+00
8.278198324203963222e-05,-1.172274526400369235e-04,-9.794107024191754718e+00
1.367190342737241752e-04,-2.995896921495650464e-04,-9.794603555365180014e+00
-1.451300692076399355e-05,2.271253912777734243e-04,-9.794101829527757985e+00
-1.056472486394408506e-04,-7.839094620865321838e-05,-9.794718460816499217e+00
-2.055748950273436149e-04,3.803459712573870489e-04,-9.793707279183340830e+00
4.898917631031662174e-05,-2.086877688374558476e-04,-9.794150181583187731e+00
-1.308783871495363771e-04,-1.848510756293203342e-04,-9.794702873836293122e+00
1.315975754481163570e-04,-6.994410377186305739e-05,-9.794452805242617188e+00
2.538862801675474614e-04,9.879426505237549081e-05,-9.794847327592986375e+00
-1.432013074800002285e-04,3.126961234397273551e-04,-9.794592123368426329e+00
1.545437961319652445e-04,-7.089871521113656923e-05,-9.794584554521316377e+00
-5.612134956157142760e-05,-8.186367453472050441e-05,-9.794619691444658827e+00
7.823550552180204363e-05,3.379920719555848407e-04,-9.794589937963898763e+00
2.355456234971115069e-04,1.057409857902512484e-05,-9.795015844736971289e+00
-2.236150649732333428e-04,-9.731579021758395346e-05,-9.794598711362439758e+00
-1.670292446127017469e-04,-1.158191880897111478e-04,-9.794476218915152188e+00
3.220541285531564046e-04,4.468167244836786418e-05,-9.794867126527382339e+00
-2.809096962090246996e-05,2.042269849687259448e-04,-9.794653148351518013e+00
1.674787068889816604e-04,-1.067497148462965678e-04,-9.794654641901360037e+00
-1.454285365004016038e-04,4.933501148079918195e-05,-9.795127384047214392e+00
4.768178551075268865e-05,7.896568923120289975e-05,-9.795228293569207878e+00
7.567607482168050670e-05,-2.353665427532059407e-05,-9.794611131166947260e+00
9.905778279459914422e-05,-1.098101640318492139e-04,-9.794291112370475005e+00
-1.047410437496060215e-04,-1.438800279879274982e-04,-9.794369302247027065e+00
-2.001726390760210327e-04,1.386731202379351058e-04,-9.793953999868723059e+00
-3.653251586095005501e-05,-9.166447943008542982e-05,-9.794425239092506175e+00
3.056153616699571059e-05,2.087169140880864584e-04,-9.794404602785853342e+00
-9.877510177337400505e-05,-3.942834574462639934e-05,-9.794480644273738434e+00
-1.294505666820781637e-04,7.514413418611399999e-05,-9.794820985872148000e+00
-3.046751466428786323e-05,3.997721256683954560e-04,-9.794222907549126944e+00
2.804247945468665436e-04,2.689639161020387849e-04,-9.794056684864770546e+00
1.856161412500878180e-04,-1.033985449505961114e-04,-9.794666800874956891e+00
-1.579497610706685653e-04,1.754538468570263196e-04,-9.794445924889702226e+00
-1.323934155741106236e-04,2.888251469237672472e-04,-9.794752514378444630e+00
-3.812456363263721820e-04,-1.539910033218981188e-04,-9.794314762922047279e+00
-2.291338042116184044e-04,-1.382920558413661279e-04,-9.794618184951934481e+00
5.050450521660892789e-05,1.295781985070221113e-05,-9.794157717569420996e+00
2.495186606037922008e-05,-5.184267285152300208e-05,-9.794358808605895916e+00
-2.867279696161332278e-04,-1.839235391493199503e-04,-9.794523797308178459e+00
2.330449071731281079e-04,2.168838819370222292e-05,-9.795088973410924993e+00
-2.223813588225394006e-04,2.045482226200702941e-05,-9.794435241907295975e+00
4.879047819487634398e-04,6.780960725485074786e-05,-9.794948888090820205e+00
8.518791756381976100e-05,-3.176681416535139055e-04,-9.794118932955816703e+00
1.818746754496188174e-04,1.354096737051236883e-04,-9.794589655401640726e+00
2.491897254281040842e-05,-6.893042690744585548e-05,-9.794795463165911542e+00
7.422999751366107844e-05,1.328183429354128903e-05,-9.794761053122645222e+00
-1.181027847936528901e-04,1.819356290493646662e-04,-9.794626388179846543e+00
-5.684419161227184588e-05,5.711232059303273018e-05,-9.794267382694613389e+00
-1.022927824855994333e-05,-3.266827162091221338e-04,-9.794666538854722049e+00
1.138071052579666932e-04,2.570929122267412458e-04,-9.794269414613784974e+00
1.935660129287948583e-04,-1.607825545098348521e-04,-9.794361204354981254e+00
2.647365203939511919e-04,1.787615146723149778e-05,-9.794651222036520721e+00
2.228411016571723885e-04,8.671411617752889766e-05,-9.794435348356133275e+00
-3.089904063944032449e-04,-1.086270017850224492e-04,-9.794991070154207335e+00
1.105717377424064398e-04,1.877137507062200843e-05,-9.794850446313647652e+00
1.263724632891779381e-04,-1.889662965479311152e-04,-9.794557100673472405e+00
8.262745872763330908e-06,-3.108012486933121811e-05,-9.794706977434874062e+00
-3.420740172807022511e-04,4.233443713624461427e-04,-9.794407729304538179e+00
1.755119105900795429e-04,-7.329011805966654657e-05,-9.794703813563620187e+00
-1.260028236522598712e-04,-8.484491525592770408e-05,-9.794163477037253429e+00
1.813650662884648253e-04,-1.274414797703166298e-04,-9.794424454319839768e+00
-1.260276465111143562e-04,3.715634143881105700e-04,-9.794421162612835019e+00
4.458505241261619817e-04,2.942333756060582189e-04,-9.794433097494758655e+00
-2.354330431697055698e-05,-1.618394142796473101e-04,-9.795261447123737142e+00
-2.045065840935353352e-04,-2.198332861122833615e-05,-9.794436655229125321e+00
6.036399336370667856e-05,1.765623377090475563e-04,-9.794598695407058742e+00
-3.668021806532003009e-04,2.745585466284786429e-04,-9.794291461490239215e+00
1.567942701980268522e-04,3.024074016428543172e-04,-9.794401295083089209e+00
-3.078964181447702139e-04,6.148219613648914900e-05,-9.794322691348209986e+00
5.648329401577376639e-06,-1.409332778884132495e-04,-9.795073962377868426e+00
2.710534666545046383e-04,-5.751750427921652729e-05,-9.794590137063755364e+00
-4.171654266706700218e-05,-2.144111963353838139e-04,-9.794100569213298968e+00
1.170068521052435742e-05,-3.024551217626954974e-04,-9.794726512900918891e+00
-2.220584306426667842e-04,1.740851741538751972e-04,-9.794686042067937137e+00
2.725417546955468179e-05,3.931203368198698096e-05,-9.794526739239833191e+00
-9.415905391296766142e-06,2.146048535716899941e-04,-9.794384100296969820e+00
-4.414627356373424736e-05,1.286227847669113155e-04,-9.794516796130878333e+00
-1.697394436578789577e-04,-3.842120522924620884e-06,-9.794459396138453400e+00
1.409875137532278909e-04,4.729541952849290547e-05,-9.794707496623109577e+00
1.923114651251204351e-04,-5.865828240568831173e-05,-9.794845500554757223e+00
-8.794302623864220798e-05,2.856956071050314300e-04,-9.794339442842606047e+00
-1.021130778067588145e-04,-2.153742546602890873e-04,-9.794700685814083485e+00
-3.908355094664683015e-05,-3.825818850180234950e-04,-9.794039402595984711e+00
-6.303218598500121938e-05,2.006171163181337752e-04,-9.794421612706843305e+00
-1.086140189516183921e-04,-2.426170339688866481e-05,-9.794279656846414994e+00
2.839114532007346912e-05,1.248663562932282719e-04,-9.794960526160121361e+00
4.795784923746897752e-05,1.029445714971145609e-04,-9.794509114948974471e+00
-5.798748591316202816e-05,1.285299844275792508e-04,-9.794971311986289564e+00
-8.042115834131376942e-05,-1.748279225864853015e-04,-9.794778224046934767e+00
-3.882353046242339989e-04,-1.175668597779858863e-04,-9.794740597225521483e+00
1.279236907156814566e-04,-1.266040605073168992e-04,-9.794698066332770736e+00
3.588026612397571475e-04,2.432676424450088402e-04,-9.794492511170453497e+00
-9.763750219843030250e-06,6.091710300146761819e-05,-9.794499479421741484e+00
3.614623713222343566e-04,-5.939264677501397466e-05,-9.794721737637807735e+00
3.546815102063938176e-04,1.354693720031718786e-04,-9.794972988982996398e+00
-4.187384490833128423e-04,4.093337777220582008e-05,-9.794699961116872799e+00
-2.296659450422286201e-05,7.206086378727187796e-05,-9.794454142119382922e+00
-1.470361800083374389e-04,2.817507869168102419e-04,-9.794711589876564872e+00
1.381836570735597890e-04,-8.919167383312461342e-05,-9.794896375465722116e+00
5.671631577671515064e-05,2.753520074146097543e-04,-9.794470593268398417e+00
-8.774499481825414693e-06,4.864937441787847087e-05,-9.794361753061322062e+00
-2.696528109478565547e-04,-1.253011322430423887e-04,-9.794894733343994631e+00
1.152019328756760235e-04,9.580651207994048720e-05,-9.794738069165985550e+00
-1.208574307956566599e-04,-1.485613935879026559e-04,-9.794921311011050236e+00
2.681523199562360561e-04,1.856658780149402182e-04,-9.794653993825917837e+00
2.741305913761217712e-04,-2.027274064163445198e-04,-9.793932746801351286e+00
-5.154833912932325814e-05,-6.732259230335920842e-05,-9.794601283143299142e+00
-2.944302710565190658e-04,-1.448112923468219959e-04,-9.793983143309668904e+00
-3.014437608580064075e-04,1.369481230144051578e-04,-9.794422163114312241e+00
-4.681554666620704427e-05,-1.979980594636001517e-04,-9.794472954476514559e+00
7.789262984495234931e-05,8.810429570445049100e-05,-9.794842154504188159e+00
-8.958237822269984711e-05,1.677950084918172638e-04,-9.794525572593531848e+00
1.444008183612513637e-04,6.909608749080887243e-05,-9.793755490559769683e+00
-1.253368360273754824e-04,1.659238408731875643e-05,-9.795193511769891614e+00
3.207781655650229790e-04,2.694220263681337065e-04,-9.794607140488924557e+00
-1.254929795972569600e-04,-5.571865325318168220e-05,-9.794358586799813082e+00
1.847758777633808655e-04,-1.652180954715408185e-04,-9.794663049016106626e+00
-1.343375383983279599e-05,6.243394248946089584e-05,-9.794341674307764478e+00
-2.689256167264910476e-04,-5.761589845595077423e-05,-9.795055254210408791e+00
-8.527658011673931542e-05,-2.416737800039222661e-04,-9.794072238452564250e+00
-3.076553376790066858e-05,-2.621121984869759333e-04,-9.794457805037382059e+00
-3.724691148825261413e-05,-6.413129446464823497e-05,-9.794326736732221761e+00
7.010203613124964489e-05,7.866648608014509682e-05,-9.794560857228804096e+00
-5.518814310913842529e-05,3.035733525728507047e-04,-9.794372636071098981e+00
-5.744993032242480817e-05,-2.796661723473189000e-04,-9.794382929646024749e+00
-1.246453126941381303e-04,-5.577116316856515815e-05,-9.794603271887982743e+00
-4.900272960446982665e-05,-2.120307722267804199e-04,-9.794408297152171983e+00
-1.180058563194651041e-04,-1.311187347081577842e-04,-9.794173292617204041e+00
-4.510988868681964044e-05,5.937513037951605511e-05,-9.794682778069324414e+00
3.506545931180675933e-05,2.725615229837341676e-04,-9.794969408534958788e+00
6.250009251156314930e-05,-1.966641937070772470e-04,-9.794511856763497448e+00
-2.798339543994078139e-05,-1.641042409273111007e-04,-9.794463486089933113e+00
-2.238190636346212366e-06,-8.873190707477470905e-05,-9.794462336439838879e+00
-2.795411124775173842e-04,-1.019384453176774261e-04,-9.794779908521766387e+00
7.847507897792342733e-05,2.527939887242469289e-05,-9.794429442454708479e+00
-6.615751255825591298e-05,4.671101431311181960e-05,-9.794497324121330450e+00
-2.272077575482241510e-04,1.276574326849811477e-04,-9.794431003726280949e+00
-1.162644227727266274e-04,1.193548500795805932e-05,-9.794132566286446462e+00
2.295855491003838194e-04,2.332149180742496052e-04,-9.794296942667248373e+00
-4.773072301394745610e-06,2.396076296014738730e-04,-9.795241295426956540e+00
-1.476795051591885480e-04,9.016514916346458127e-05,-9.794291097994269890e+00
-1.892048950546253053e-04,-2.466482447863434040e-04,-9.794705769787460881e+00
6.602522448986261451e-06,1.784060020917102541e-05,-9.794968198164815121e+00
1.451556718537494483e-04,1.267221287759090281e-04,-9.794886733290393721e+00
-1.871743225551055845e-04,1.264129323418970274e-04,-9.794915883975074067e+00
9.537899627503040379e-06,1.812216770527332868e-04,-9.794768745557714595e+00
1.079591852717683598e-04,9.748038279674819267e-05,-9.794779866595018092e+00
1.266268187039471557e-04,-3.317922755357240899e-04,-9.794257348410170039e+00
-1.719223428995203539e-04,1.705525176494736359e-04,-9.794705426073708310e+00
7.399382033906911596e-05,-3.241323914913832359e-04,-9.795108456592732438e+00
2.834823709174977193e-04,-4.580718422044745080e-04,-9.794518576927117692e+00
-4.363020374698273825e-04,8.254214319859851069e-05,-9.794514321763616138e+00
1.845390829559127041e-04,-1.320179788557308798e-04,-9.794597468834822962e+00
3.478880685130287197e-04,1.368596322403711123e-04,-9.794496592663538337e+00
1.724966131555715192e-04,-1.097312010647193955e-04,-9.794871929524180842e+00
6.808244197211351929e-05,8.719189869361431374e-06,-9.794056809521112683e+00
7.276493252949331871e-05,-8.221685648922161401e-05,-9.794397474206697041e+00
-3.005844331291410675e-04,-2.762067403688864015e-04,-9.794606435551935775e+00
1.112086813676331693e-04,1.555656457827092211e-05,-9.794552298482482655e+00
-1.645810967686881301e-04,-1.175327458923214783e-05,-9.794277494456157029e+00
-3.203129472975943629e-05,-1.177349629080271388e-04,-9.794454420311250686e+00
-1.799003851145371659e-04,1.714794828918042775e-04,-9.794765081838512799e+00
-2.389404127869800118e-04,3.781191528124810387e-06,-9.793961159753189705e+00
9.222356667513312929e-05,-4.248486068942092670e-05,-9.794275908165396061e+00
-2.746918087002738775e-05,-1.279848242023577437e-04,-9.794674624788928696e+00
1.811933066362388458e-04,-1.201794562038536812e-04,-9.794269651743388039e+00
-2.327762147943033242e-04,5.966944125823168292e-07,-9.794846989104375012e+00
-2.065399825669745834e-05,-1.514130736192393179e-05,-9.794311087596177856e+00
-3.083042918486729629e-04,1.472684938053776783e-04,-9.795176480254351503e+00
-1.641833071834151352e-04,-1.624489407783040961e-04,-9.794018493942925119e+00
-3.936377655083119577e-05,-4.174873759620462946e-04,-9.794822626041453262e+00
-1.282177309066033033e-04,1.357799582445186619e-04,-9.795034733155461026e+00
5.606212391793424267e-05,-1.484129233241924682e-04,-9.794879975862182064e+00
-1.055189609831674467e-04,7.248475633779993159e-05,-9.793882475816049649e+00
1.331610975396978842e-04,1.230618771360436137e-04,-9.794604003780218449e+00
8.341332608995637036e-06,-2.414510815244486801e-04,-9.794448297893518784e+00
2.055871170995090126e-04,6.675143453561606370e-06,-9.794076135518146486e+00
-9.758255540595698599e-05,-1.300689681262370845e-04,-9.794270267082669790e+00
-2.385743915578018848e-04,-1.646917633386632876e-04,-9.794554632249370840e+00
1.141218019574757013e-04,6.546383102793157523e-05,-9.794751360834348830e+00
-1.084840563679170073e-04,2.048960602493915469e-05,-9.794592675235277213e+00
-2.344235801971960480e-04,-8.567462913768870275e-05,-9.794752627437064874e+00
1.676219925390128789e-04,2.441579587619930832e-04,-9.794516366615667380e+00
1.481615332587376025e-04,5.181985122111468570e-05,-9.793330491994829856e+00
-2.163759402797023671e-04,-2.904666077831236548e-04,-9.794712585939294058e+00
1.941656117064983296e-04,-1.853905157189863811e-04,-9.795217075883440927e+00
1.785848938711351471e-04,-1.268051836414989155e-04,-9.794476995133276631e+00
-2.321460012993092079e-04,-1.239923530555098641e-04,-9.794964243812247062e+00
-9.304713874295379033e-05,-1.496258780449970260e-04,-9.794576187584006277e+00
-2.527044364700963648e-04,9.797589889252382011e-05,-9.795187866828744205e+00
2.026416363781258006e-04,-1.298836656704125260e-04,-9.794276632728319498e+00
-1.739646071685529603e-04,-2.202718295734493149e-04,-9.794335575107410818e+00
-2.410885228121368510e-04,6.803220818190602848e-05,-9.793940582492862035e+00
1.337164723780133381e-04,9.273639880448871495e-05,-9.794918140032823572e+00
-3.510241062416423474e-04,-1.097175356984873734e-05,-9.794654829992552436e+00
-1.606568487862006819e-04,-5.930453376166509562e-05,-9.794002723942474731e+00
3.864663456592387088e-05,9.744516200886193255e-05,-9.794139893696129917e+00
6.750207775388595966e-06,1.428895557362260471e-04,-9.794968808019570261e+00
3.607412535974450531e-04,4.207612383338843042e-05,-9.794545848043334502e+00
9.720831403963809325e-05,2.337351537024645717e-04,-9.794474142950646112e+00
-1.641895819636733200e-04,-7.934447651749027973e-05,-9.794618258851397030e+00
-1.888987183735052196e-04,-2.854700923977457208e-04,-9.794828035771940833e+00
-3.417083115426903969e-05,3.438718585558842792e-05,-9.794352351033685622e+00
-3.171834119355426587e-04,-2.353035021025272125e-05,-9.794864277857920243e+00
-1.746421091406272262e-04,8.620398519622957058e-05,-9.794968417320001564e+00
5.913395160153780755e-05,9.090733109013480302e-05,-9.794707273886285037e+00
-2.476368953581515242e-04,1.323999084498215302e-04,-9.794522197925870088e+00
-2.957208790496469513e-04,-2.275507230642926325e-04,-9.794376342350602727e+00
-2.028914698989185965e-04,2.140820265100690570e-04,-9.794778389207444036e+00
-6.190569535778129477e-05,7.103310774624330603e-05,-9.794615218627622966e+00
8.649452486524015322e-05,1.944624443159549416e-04,-9.794470744648089422e+00
-2.636776944129785383e-04,2.713292495615730098e-05,-9.794289426027908974e+00
4.539371609318885303e-05,5.478231810852652890e-04,-9.794570596638312310e+00
9.720725482289168935e-05,-2.129406732319423393e-04,-9.794453826139339014e+00
7.951312230531911178e-07,2.375167678464557778e-04,-9.794492819108437942e+00
-6.878160466051689182e-05,-1.830636300589770699e-04,-9.794012966415378330e+00
-2.831293356167408797e-05,5.222157756915293874e-05,-9.794396636436390580e+00
2.652978645384491897e-04,3.917914841098530114e-04,-9.794745331589224335e+00
2.819885658226337533e-04,-1.017758645024644410e-04,-9.794327854578499526e+00
2.428364122326760180e-04,-1.570396394681127650e-05,-9.794524241074148208e+00
-7.020412952121315238e-05,2.475461574692099445e-04,-9.795014476472656995e+00
1.746749937497985841e-04,3.250427997674245234e-05,-9.794733946237656141e+00
-3.828075837614029146e-04,4.827108899227206570e-04,-9.794922107648286413e+00
9.176163085551943932e-05,5.643505755587005420e-05,-9.794672915017859083e+00
-5.658538099073437779e-05,-2.871763932519209796e-04,-9.794547364387602428e+00
2.046763917871515935e-04,-1.977177964396054598e-04,-9.794248596350449532e+00
-5.151427067444667779e-05,1.791277081345186894e-05,-9.794494330681530414e+00
5.354384395805845303e-05,-3.060173392323618812e-04,-9.794782515719878901e+00
2.115333134483860980e-05,7.885387274778129661e-05,-9.794646705931549846e+00
1.391324049192744973e-04,3.876290468737176368e-06,-9.794369396765343794e+00
1.074479902264638108e-05,-4.770467543686673180e-04,-9.794132341175073364e+00
8.190416041499998918e-05,1.440544261184786543e-06,-9.794248687575244361e+00
-3.290668435785364348e-04,-7.301252507142218511e-05,-9.794250123076693626e+00
-2.652908433820312618e-04,7.419925096310213235e-05,-9.794375809958427936e+00
-1.020771056043451660e-04,-1.060268378910700891e-04,-9.794771806203410591e+00
-6.583149106690785438e-05,7.972489599962408885e-05,-9.794372700156930733e+00
-1.639308370761583997e-04,8.607244900573698140e-05,-9.794726232520112319e+00
-1.054766119732851215e-04,3.655720720338939754e-05,-9.794472299455140529e+00
1.821119487086424800e-04,-3.020501382086301380e-04,-9.794439531926379061e+00
1.803760553939081788e-04,1.800423586341929759e-04,-9.794212268053842152e+00
6.486326447597981840e-05,1.037704248420590926e-04,-9.794799993013405981e+00
9.427149085976770093e-05,5.287437473631432171e-05,-9.794668140341117990e+00
2.426546165322266909e-04,-1.443013525033359822e-04,-9.794322057721860375e+00
3.747533172244203650e-04,-5.771691020183241028e-05,-9.795127538758187313e+00
-9.573483651792804878e-05,1.981763717423050918e-04,-9.794294393128225806e+00
5.911248489420195881e-05,-1.786167160861801110e-04,-9.794333924365254518e+00
-1.672047189586926296e-06,-1.473600226393207281e-04,-9.794329646944772705e+00
-7.159304187638161154e-05,1.470564642315591824e-04,-9.794562301697604667e+00
9.176870033150846614e-06,1.025957668979522226e-04,-9.794810211647670073e+00
-1.134552502404383194e-04,-4.164586387183084708e-04,-9.794409381931316716e+00
-1.598061794375133990e-04,-2.868143472378338458e-04,-9.795139882514501295e+00
1.099398808616262673e-04,-2.675490415610144051e-04,-9.794628639329280517e+00
-2.160927374744844788e-04,1.920496313831728127e-04,-9.794933077172531810e+00
9.267877639871617437e-05,4.593176893158748644e-06,-9.793901973881826706e+00
1.553770793270527594e-06,9.870887877949177940e-05,-9.794798972539449977e+00
7.504857889418354265e-05,-5.589377149095930779e-05,-9.794839536615732811e+00
-8.026982294605927975e-05,1.625776414169022971e-04,-9.795090837902893810e+00
2.203233575911371189e-04,-2.939327880169206549e-04,-9.795043827390943036e+00
1.438104708219521113e-04,-2.093997087715559373e-04,-9.794655816040249263e+00
1.495621243702979981e-04,3.334702612243627015e-05,-9.794643644442874830e+00
-3.094072343633747906e-05,-9.736867772455383852e-05,-9.794098905762231411e+00
-5.240961480808641851e-05,-1.659220711283379080e-04,-9.794045991953845842e+00
-8.488702728567208288e-05,9.028102365467404651e-06,-9.794729090401441240e+00
-2.774536356012702256e-04,-1.515164905189581958e-05,-9.794240027134822668e+00
-4.521398325149950272e-05,7.175530029254833478e-05,-9.794776994788174207e+00
1.433689329319928079e-04,-9.976318381287418275e-05,-9.794273209070709640e+00
8.455647937828172109e-05,-5.165718663469577940e-05,-9.794066813900071722e+00
-6.440857692346288455e-05,-2.696279433977548119e-04,-9.794481997325988232e+00
-2.492716910694909313e-04,-1.267445154627707250e-04,-9.794498250384229721e+00
-2.371843408927566069e-04,-1.795802281364634542e-04,-9.794063092266833692e+00
-4.455222122834853673e-05,-8.857963775292121303e-05,-9.794193255118505803e+00
-1.034501282609985497e-04,2.278553078809683662e-04,-9.795064732577319688e+00
7.643558190385495838e-05,1.555656176285946511e-06,-9.794487930240549645e+00
-1.504626794115744723e-05,-6.061926069710917410e-05,-9.794752123686359724e+00
3.729844873562381349e-04,-9.019553892557366861e-05,-9.794782993553258876e+00
-1.824436208274805035e-04,-6.186612409762646907e-05,-9.794470681173811144e+00
1.813744675762487174e-05,2.706440640352254993e-05,-9.794169796915809911e+00
-7.473678104494537789e-05,-5.298382991232244857e-05,-9.794409968307839165e+00
-1.891599051134689249e-04,-4.171510826984379324e-04,-9.794514513048088844e+00
-1.230593960210403986e-05,-2.259816602832605118e-04,-9.795165868042863266e+00
-3.970602239954322793e-05,1.731886788672001485e-04,-9.794575833321236047e+00
6.548402096538482220e-05,-2.011171387745474962e-04,-9.794586332779129378e+00
1.259938296411369839e-04,-3.249109499287952695e-04,-9.794529150522613747e+00
-2.489413793853416379e-04,-9.962651121696907753e-05,-9.795152373210266106e+00
8.272230163934612187e-05,6.739088477648409660e-05,-9.794482933536329483e+00
-4.885358929426463897e-05,-2.343496168248511132e-04,-9.794733027738544706e+00
-1.454534813232863269e-04,1.473712010379742273e-04,-9.794875031724140868e+00
2.796152644293702921e-06,8.626145025367214832e-05,-9.794618355065333404e+00
1.570479460463436157e-04,5.825377917990925291e-05,-9.794182628237424026e+00
1.694183974449034685e-05,-3.334115756628008311e-04,-9.794359442983875397e+00
1.140184314838273513e-04,9.983017252771673393e-05,-9.794669447768479031e+00
1.438597328363217431e-04,-8.963186618662146192e-05,-9.794542989610004469e+00
1.629554638622441080e-04,-4.081102664473731245e-05,-9.794415775453584772e+00
1.168099377441927212e-05,-8.761835310518562134e-05,-9.794408493816286310e+00
-3.164425048739348583e-05,2.388446852422300974e-05,-9.794196094208977854e+00
-2.651524526637286019e-04,1.796821890049087479e-04,-9.794210278924483148e+00
-8.845757319306973322e-05,1.454876813793211550e-04,-9.794308007390025494e+00
-2.130267736086941704e-04,3.476375951088329051e-04,-9.794705893152757525e+00
1.862390043781321513e-04,-1.419256131330876437e-04,-9.794971055999598164e+00
2.302619851629613711e-05,1.648975258292824906e-04,-9.794918525747830174e+00
-4.736778847544236942e-05,9.313439306557204063e-05,-9.794261522565019362e+00
8.042358886659692222e-05,1.020348367716974840e-04,-9.794983897106980919e+00
1.304537860368571643e-05,-1.288238641257148003e-04,-9.794367203538348221e+00
1.780996681514628716e-04,1.034916176801480394e-04,-9.794738170405786093e+00
1.467216499918590493e-04,6.901205139347277957e-05,-9.794505058622453575e+00
7.930817210793801575e-05,8.212722480718613995e-05,-9.794239301398720343e+00
4.375075775059089362e-04,-1.508312349833827747e-04,-9.794013502392139969e+00
-2.227373526451728884e-04,7.243386301828036347e-05,-9.795005572496025437e+00
2.337113062018559705e-05,2.728095471893489699e-05,-9.795274971223037141e+00
1.159600200132466423e-04,-3.612151503477585655e-04,-9.794782299137152037e+00
1.283068193703692302e-04,1.366240382428260186e-04,-9.794466760672833061e+00
-1.186449317124199551e-04,-7.580857798798716635e-06,-9.794695670292339784e+00
2.182221581312301006e-04,-1.078486564139856141e-04,-9.794673352147974299e+00
1.423604024027404550e-04,-3.344711646058699670e-05,-9.794695705596344837e+00
-2.083782580709759081e-05,-6.453369038417300732e-05,-9.794518930320540662e+00
-1.136509532926850230e-04,3.611944393401840905e-05,-9.794558845018162430e+00
2.053948534929860221e-04,9.280591805365062761e-05,-9.794684065732134570e+00
-8.198433639961792577e-05,-4.261750388709038015e-05,-9.794262246541471484e+00
-5.529171284894307162e-05,-2.868377837968499909e-06,-9.794693960531574817e+00
6.825907656745974100e-05,-1.104342055331527329e-04,-9.794072703260498614e+00
1.271846377174123185e-04,3.871110226752204261e-05,-9.794196602697187615e+00
1.046810074108308291e-04,-1.049649958234238640e-04,-9.794524667134412610e+00
1.952098735649168899e-04,1.366701640302843683e-04,-9.794770378734307670e+00
1.474042932879921626e-05,-1.993645978201943056e-04,-9.794138427238582523e+00
-1.805457108962464652e-04,1.884556317069028761e-04,-9.794565290391371803e+00
2.005807963900433288e-04,-3.162163210087590940e-04,-9.795144591233905018e+00
-1.132300602742437380e-04,-1.161514076316468003e-04,-9.794804124754737273e+00
8.466520361895099502e-05,-6.915267644725499937e-05,-9.794782456722126440e+00
1.788800148031840641e-04,-6.908423221449310890e-05,-9.793992130213087677e+00
2.133038482644058478e-04,2.821349726657809595e-05,-9.794880661735806626e+00
1.037990338019314281e-04,6.470337998075223322e-05,-9.794414539213601500e+00
-1.794019576680128559e-04,7.057219993508528043e-05,-9.794270660691017483e+00
-1.027278862908924368e-05,2.036267743194862339e-04,-9.793384829619057541e+00
-1.157424656100286455e-04,-4.070091979811053112e-04,-9.795102458988312222e+00
3.349198970615893277e-04,-2.620417450583288556e-04,-9.794617151275692990e+00
-2.910037869445958238e-05,9.325478794938314828e-05,-9.794626138718616204e+00
3.924523354824109784e-05,9.955348581358453822e-05,-9.793827262018528046e+00
8.335291507498968403e-05,3.708578282807008253e-05,-9.794565215284148252e+00
6.928303231968629548e-05,1.838864955231563287e-04,-9.794678945158860728e+00
1.054242891574459383e-04,-1.091118121850888156e-04,-9.794501292164236261e+00
1.805929625366014298e-04,2.138652155223584909e-05,-9.794251649851618780e+00
-1.091638599965258951e-04,-1.329346024149874125e-04,-9.794474955626439439e+00
2.265276781272406348e-04,-1.025540995548862102e-05,-9.794337338159472495e+00
2.238761258959419149e-04,-1.692378440736868738e-04,-9.794087901133572416e+00
1.997973312421909146e-04,-1.117122052007486359e-04,-9.794524380020771304e+00
1.477390925905683534e-04,-7.737951947071784067e-06,-9.795048174506160166e+00
-1.518793497568140334e-04,-1.496079201106655348e-04,-9.794483733939159720e+00
-2.162083032276708515e-04,1.996526259089855351e-04,-9.794489598649478879e+00
-6.076676574375579879e-05,1.087325430536537643e-04,-9.794737724910678622e+00
7.223140528647035237e-05,-1.773662929139451156e-04,-9.794349251475360063e+00
3.158074738437460267e-05,1.088209680349132611e-04,-9.794205179830258956e+00
2.503166675317054150e-04,9.927161234748222861e-05,-9.794494258146221100e+00
2.523877214759323497e-04,-2.327238559450438748e-04,-9.794378134884631493e+00
-6.857685964469272596e-05,4.917754273411721063e-05,-9.794998509810090681e+00
2.751006118936079789e-05,-1.189169121461195795e-04,-9.794256531784039765e+00
-9.474221078423133231e-05,-8.460198630893690634e-05,-9.794447938651988039e+00
-2.403912690317166188e-04,-1.055101830447147457e-04,-9.794320074090036243e+00
3.321902307573196679e-05,-2.546027987298701767e-06,-9.794393295868017546e+00
1.701384322021697609e-05,-7.822143997372785586e-05,-9.794836168779131214e+00
2.478062716091715065e-04,-1.792679186296440770e-04,-9.794269814012983133e+00
-1.713231874720355890e-04,-1.865281393604050115e-04,-9.794682901716393886e+00
-4.220710973393658884e-04,8.665430890635118289e-05,-9.794950884968375959e+00
1.446019651068524065e-04,-1.551925105879911181e-04,-9.794540340913201248e+00
-1.840922834348961981e-04,2.415614394179542524e-07,-9.794571114037553983e+00
-1.220033515688523086e-04,-1.491904602783380670e-04,-9.794952044441613381e+00
-1.694616102040266941e-04,-1.487966019783854775e-05,-9.794617948563514531e+00
1.667766822578954872e-04,1.790318630500080746e-04,-9.794858727146978694e+00
-1.466141266303836854e-04,-1.622375619401343703e-04,-9.794482353484172066e+00
9.570028826325366214e-05,-1.705450624248979613e-04,-9.794937976346568931e+00
2.189381600661827578e-04,6.271893530725920524e-05,-9.794578256194693466e+00
-1.701023493091148283e-04,-1.963308337680976260e-04,-9.794712479403161254e+00
-3.959533818760745805e-05,1.897932003726812602e-05,-9.794292472943691763e+00
-1.008178087063114783e-04,1.703208472916042644e-04,-9.794695633862058770e+00
-5.354678136009978539e-04,-2.613215377521289326e-05,-9.794443352397777858e+00
9.457724859954821364e-05,1.822844863874994547e-04,-9.794643412496062851e+00
-2.930734660804294365e-04,4.880949261723934503e-05,-9.794430242659322161e+00
-1.644979562784490803e-04,1.894726881787932933e-04,-9.794720548878480315e+00
-1.301007433448974982e-08,-4.528424583153318247e-04,-9.794327295618689533e+00
-1.312684197271952107e-05,-1.003625760083027538e-04,-9.794646021369196376e+00
4.033415063090973357e-05,9.433558144761329371e-05,-9.795008745988088350e+00
-9.579744159950316483e-08,-8.203762879804686213e-05,-9.794982384220018545e+00
-6.795354153655574075e-06,-2.650132072108101746e-04,-9.794595692124199005e+00
6.058668849534033821e-07,-4.091931546307711566e-04,-9.794766077983153352e+00
-1.175848820861959468e-04,7.852225395528211478e-05,-9.794692693299396069e+00
-9.563629842308142971e-05,-1.260696891943904158e-04,-9.795219789809454625e+00
-2.144632523998328826e-04,-2.068396860389287934e-04,-9.794494509353764755e+00
-1.176151756794079290e-04,5.814812660836321767e-05,-9.794787809495243636e+00
4.167268048488566366e-04,6.957017843265443440e-05,-9.794913150831730420e+00
-4.241406127973985451e-07,1.030090829473257548e-04,-9.794562597703032836e+00
-3.183123834832342602e-05,-1.448289170237444053e-04,-9.794119915866945192e+00
-2.793299872954448633e-05,5.824036387469685804e-05,-9.793744524983878819e+00
1.856430736966049958e-05,2.534131346379758758e-08,-9.793983020608630241e+00
6.173636936231606217e-05,2.577108921709730016e-05,-9.794318079065373439e+00
-1.555528763399426063e-04,8.115695814969723135e-05,-9.794588560835579827e+00
4.305143611198895441e-05,1.105025879171133286e-04,-9.794816927739695700e+00
-1.375089594501634953e-04,1.552192851238006334e-04,-9.794852038949283468e+00
-1.399972973893045289e-04,8.282585704982311321e-05,-9.795043265599911564e+00
1.257634254429863775e-04,-2.379955946917096821e-04,-9.794674637495836222e+00
-1.685875478204895505e-05,8.658417993111465472e-05,-9.794713413511166422e+00
-3.073375769404802554e-05,6.734807652427987981e-05,-9.794617262334949004e+00
2.189302763599629015e-05,-2.740146253925354971e-04,-9.794980912417210916e+00
7.963409193669514468e-05,-9.178526266193435718e-06,-9.794748912268145702e+00
7.814034619397444172e-05,-2.344464052173142910e-04,-9.794176519525667146e+00
2.384645041821285545e-04,-2.714334846242451001e-04,-9.795400184588107351e+00
-8.322547695290562718e-05,1.562276727253642726e-05,-9.794472423301769481e+00
-1.027058046640921260e-04,-9.806706430586127621e-06,-9.794290656331025247e+00
9.998840941435351848e-01,2.003975104294446956e-04,-9.794305064009657613e+00
1.000515996427535859e+00,-6.163646309700477992e-04,-9.795314543184868938e+00
1.001647809889283813e+00,-1.210363142202941803e-03,-9.795291501253711175e+00
1.003336996504145207e+00,-2.502309008477858476e-03,-9.795560468253501796e+00
1.004765887714927697e+00,-3.617930575510166103e-03,-9.795721896099598425e+00
1.007496031166864370e+00,-5.299839560059984266e-03,-9.796306086719614115e+00
1.010258691208238968e+00,-7.366093041916623591e-03,-9.796529153876766927e+00
1.013487205911099309e+00,-9.709009858735538623e-03,-9.797214217556179605e+00
1.017385594019252437e+00,-1.207335579428845361e-02,-9.797896173041005241e+00
1.022038147071167469e+00,-1.501563885691947937e-02,-9.799271598056682464e+00
1.027000647803457900e+00,-1.760446083876859510e-02,-9.799615939552218435e+00
1.032145784586982140e+00,-2.059868734450970643e-02,-9.800448132554404168e+00
1.037379392735125139e+00,-2.336415022068747543e-02,-9.801360075188318532e+00
1.043121107533507175e+00,-2.656371248473378410e-02,-9.802544690183099263e+00
1.049313507735388340e+00,-3.021131912294387767e-02,-9.803080714976742271e+00
1.055295398972782905e+00,-3.335595593302311673e-02,-9.803948449300859735e+00
1.061445547216932406e+00,-3.665118829750558388e-02,-9.805360915631986529e+00
1.068460381583566932e+00,-4.025818287893033476e-02,-9.805866105939022859e+00
1.075133691761342991e+00,-4.345878448711074094e-02,-9.806938776478927977e+00
1.082151574295396435e+00,-4.717182320815153929e-02,-9.807654702446557238e+00
1.089190638849837578e+00,-5.068487624470630060e-02,-9.808554571048201609e+00
1.096220399283025948e+00,-5.468513124737202358e-02,-9.809624487502498269e+00
1.103861426207601637e+00,-5.827783970542447373e-02,-9.809891603485782596e+00
1.110786367045630607e+00,-6.218676069376911919e-02,-9.811211620514615817e+00
1.118375981447780054e+00,-6.594233400573078219e-02,-9.811912179494019171e+00
1.125975818918455218e+00,-6.949076938209812482e-02,-9.812672320079597554e+00
1.132888495147006180e+00,-7.347225490681742743e-02,-9.813229049266027459e+00
1.141086061966388510e+00,-7.766389328907248590e-02,-9.813899464604070033e+00
1.148380218789382123e+00,-8.105785966965300959e-02,-9.814734647726659489e+00
1.155809889926001421e+00,-8.494900862378987338e-02,-9.815244219006821425e+00
1.163474331021923325e+00,-8.889002929757908178e-02,-9.816804808884247890e+00
1.171180535547922563e+00,-9.253860663883749227e-02,-9.816493154828849654e+00
1.178789453204875493e+00,-9.588273496969236531e-02,-9.816692941060027877e+00
1.186099289833413284e+00,-1.003336625697147932e-01,-9.818463240148480153e+00
1.193654215362201620e+00,-1.039389829868892362e-01,-9.818342722303933456e+00
1.201451548490432675e+00,-1.081189482862680296e-01,-9.818764884453889508e+00
1.209361419822603256e+00,-1.119859464010642403e-01,-9.819699343947874581e+00
1.216961072386610443e+00,-1.154610292439803565e-01,-9.820123066478842588e+00
1.224434781610615364e+00,-1.190459007158492649e-01,-9.820499309901631335e+00
1.231952052689159638e+00,-1.231690414560046715e-01,-9.821301633903697592e+00
1.239590118894356108e+00,-1.268316011117452402e-01,-9.821446677601544550e+00
1.247205362877779944e+00,-1.307309441185805776e-01,-9.822000302409069405e+00
1.254484157949469436e+00,-1.342439974585949991e-01,-9.823110700372234660e+00
1.262192759317424251e+00,-1.380764684428921751e-01,-9.821655982349804859e+00
1.269876405243459905e+00,-1.420657803315309442e-01,-9.823139083023832541e+00
1.277085440979782049e+00,-1.457804941126775722e-01,-9.823602285209316776e+00
1.284265034343272438e+00,-1.495518528346462539e-01,-9.824130344939565163e+00
1.291990588440679044e+00,-1.529501350158390394e-01,-9.823443452066761949e+00
1.299423515860271161e+00,-1.565267305984885393e-01,-9.824588838980497840e+00
1.306616984333245801e+00,-1.603239916140722920e-01,-9.824753990117260471e+00
1.313612945986615488e+00,-1.638975826624111121e-01,-9.825511355793368651e+00
1.320631708022071971e+00,-1.674705414906151879e-01,-9.826025589682632955e+00
1.328151013366990707e+00,-1.712553082891212775e-01,-9.825554346396362604e+00
1.335350037854785787e+00,-1.746473051600442583e-01,-9.826287556148880498e+00
1.342662633530924410e+00,-1.781371729347159261e-01,-9.825823361579155701e+00
1.349657182812711964e+00,-1.818784256290505164e-01,-9.825744572006776423e+00
1.356664441409049626e+00,-1.852770530539263605e-01,-9.826506554261024817e+00
1.363931365991933653e+00,-1.889959501327919400e-01,-9.826586196167861331e+00
1.370616493317314388e+00,-1.923388424165939914e-01,-9.827067927194930164e+00
1.377581581385657339e+00,-1.960533922111037941e-01,-9.827203362675072995e+00
1.384768892174497834e+00,-1.997028068057594974e-01,-9.827638771410127205e+00
1.391638317621028076e+00,-2.029671423093706017e-01,-9.827753442940920792e+00
1.398534874975249309e+00,-2.061288763075323771e-01,-9.827330333303665455e+00
1.405777007764204889e+00,-2.099050291357796305e-01,-9.827727807807507432e+00
1.412306792252682186e+00,-2.128756607410593193e-01,-9.827636171512118324e+00
1.418872704753125547e+00,-2.166672680411222129e-01,-9.827937161915462738e+00
1.425855154813681747e+00,-2.197407296784077979e-01,-9.827901494440137498e+00
1.432767107247464589e+00,-2.231313791795093981e-01,-9.828690853090833457e+00
1.439361235336767297e+00,-2.262940924479331928e-01,-9.827760464609747615e+00
1.445736508175676116e+00,-2.297833666392288532e-01,-9.828716550400661944e+00
1.452572610938358766e+00,-2.330939866292587037e-01,-9.828360123361450817e+00
1.458798785860809355e+00,-2.362372150468649012e-01,-9.828251808974760806e+00
1.465751697619845251e+00,-2.396205745834742995e-01,-9.828494240168048179e+00
1.471928108747075470e+00,-2.428431163145914895e-01,-9.828888983359325593e+00
1.478356355709874004e+00,-2.462856904894250576e-01,-9.828468384984354600e+00
1.485155233153658383e+00,-2.493630133322593534e-01,-9.828255751214285851e+00
1.491335321362732280e+00,-2.527904806220716560e-01,-9.828507883847724003e+00
1.497832427207316686e+00,-2.556337125090784035e-01,-9.828702937225942904e+00
1.504117682518412602e+00,-2.589123115836156619e-01,-9.828921474327703578e+00
1.510375502923561042e+00,-2.616948697302639015e-01,-9.828280216411426906e+00
1.516425573731049026e+00,-2.650377135619909064e-01,-9.828334404955663572e+00
1.523043221925148849e+00,-2.681763000927931961e-01,-9.828698760514882338e+00
1.529406511536942848e+00,-2.711378989408312901e-01,-9.828195260677031087e+00
1.535439954363602588e+00,-2.742439414441208423e-01,-9.828444327969608096e+00
1.541446283395486949e+00,-2.773794947972035851e-01,-9.828219138728886861e+00
1.547820677424788682e+00,-2.805703451358090295e-01,-9.828474330856620256e+00
1.553757698454730996e+00,-2.837477966699376020e-01,-9.828080364295384896e+00
1.559866412452935114e+00,-2.865474312719926142e-01,-9.828323618065503808e+00
1.565760872362756073e+00,-2.895790467910037136e-01,-9.827844165580104985e+00
1.571799883319659807e+00,-2.925372593261831855e-01,-9.827919241312192966e+00
1.577833899410303165e+00,-2.956362329402764111e-01,-9.827514308884492067e+00
1.583658956096646531e+00,-2.983481810796875799e-01,-9.828012705639711299e+00
1.589402523036066883e+00,-3.016615883523444674e-01,-9.827505509779765447e+00
1.595375672478382967e+00,-3.043839712665887820e-01,-9.826870224803945675e+00
1.601454475914768860e+00,-3.073849629348765489e-01,-9.827037819474426783e+00
1.606713738145077564e+00,-3.099639361687699934e-01,-9.826481049311768246e+00
1.612724360401911472e+00,-3.129651605841079487e-01,-9.827005082102179045e+00
1.618332678014386961e+00,-3.158521620019841269e-01,-9.826521964389314689e+00
1.624364850702356033e+00,-3.187445785923411767e-01,-9.826025461701567210e+00
1.630322408758792196e+00,-3.213135662846827723e-01,-9.826034601551469905e+00
1.635718225858971531e+00,-3.244151329024454466e-01,-9.826192553982357580e+00
1.641267667148746057e+00,-3.271474093584625931e-01,-9.826043903424350745e+00
1.647180358630914609e+00,-3.297798210069573521e-01,-9.825035814601202233e+00
1.652302093178229958e+00,-3.327595057458785366e-01,-9.825350782235011238e+00
1.657951519407236285e+00,-3.352557467401224289e-01,-9.825157485052669060e+00
1.663668326467570902e+00,-3.378635127312751840e-01,-9.824846457136887423e+00
1.668996458903387881e+00,-3.405460976225839764e-01,-9.825139066207308147e+00
1.674676121592101996e+00,-3.438398412460443865e-01,-9.824304287698030436e+00
1.679615895334960918e+00,-3.461041707733486517e-01,-9.824440247971036655e+00
1.685162516973879310e+00,-3.488738119725899867e-01,-9.824146947811795982e+00
1.690546330564926647e+00,-3.515408196681425457e-01,-9.823383670754715524e+00
1.695596026402379719e+00,-3.540684668318109796e-01,-9.824011216006098834e+00
1.701189364338679066e+00,-3.566924502863182411e-01,-9.823928638125018153e+00
1.706573825737290662e+00,-3.594298865686050837e-01,-9.822988718889966719e+00
1.711605219080287066e+00,-3.623136033098628972e-01,-9.822885815409767574e+00
1.716936054264136757e+00,-3.646067727354235788e-01,-9.822781161737848876e+00
1.722145922656352912e+00,-3.669372929850528431e-01,-9.822966477024548837e+00
1.727450759871905106e+00,-3.697063738557346824e-01,-9.822137096931493616e+00
1.732444827577204860e+00,-3.722612574166076493e-01,-9.821804503930158248e+00
1.737430765598872773e+00,-3.753659877755265994e-01,-9.821319642131177474e+00
1.742491564868751786e+00,-3.772230665782461134e-01,-9.821043179046013094e+00
1.747759162737508865e+00,-3.799130012247639021e-01,-9.821046805003327052e+00
1.752682586079376215e+00,-3.825730749711341305e-01,-9.819655573639192170e+00
1.757704229911292382e+00,-3.851576551127733339e-01,-9.820345169306728295e+00
1.762720081943898398e+00,-3.873615010391289748e-01,-9.820178462823301757e+00
1.767523001688007245e+00,-3.899396746617272425e-01,-9.819273238395886949e+00
1.772971728881302278e+00,-3.921684557717792230e-01,-9.819412949307459115e+00
1.777669968731385941e+00,-3.948704496835574451e-01,-9.819535076039755950e+00
1.782281196975544768e+00,-3.968275707987767853e-01,-9.818761878941684174e+00
1.787203615380733579e+00,-3.996527072010067627e-01,-9.818594991500326330e+00
1.791979113962445025e+00,-4.019710099802774605e-01,-9.818367733198311242e+00
1.797078467116396183e+00,-4.043199251775773106e-01,-9.817927573021691501e+00
1.801465734060152757e+00,-4.068192885484176458e-01,-9.817032020104726087e+00
1.806429355269303372e+00,-4.088056069352899446e-01,-9.816647944909675516e+00
1.811125292848980495e+00,-4.109606805419868669e-01,-9.816543144149601829e+00
1.815605358238664646e+00,-4.136356356788340460e-01,-9.816409080175624524e+00
1.820461249999793418e+00,-4.159346849857959993e-01,-9.816199628472181971e+00
1.825059815485944092e+00,-4.183688493315173562e-01,-9.816250097786303641e+00
1.829572399238639457e+00,-4.205241458413398470e-01,-9.815431024217259548e+00
1.833998412791365995e+00,-4.229561294053822973e-01,-9.815417826972771209e+00
1.839014880584540101e+00,-4.249377402229979617e-01,-9.814516834396346923e+00
1.843167919479517414e+00,-4.273980044483228768e-01,-9.813868805363222592e+00
1.847988929792279578e+00,-4.295431269266787311e-01,-9.814496245729660728e+00
1.852354198520877793e+00,-4.320050602817128715e-01,-9.813652113158644497e+00
1.856902753072763756e+00,-4.343793548278477856e-01,-9.812480148382382694e+00
1.861193701382087617e+00,-4.365520069036620265e-01,-9.811986216936658067e+00
1.865646749880868871e+00,-4.384928409493762391e-01,-9.812661289242187834e+00
1.870083096956646651e+00,-4.409815658015891482e-01,-9.812030748857063500e+00
1.874105246925819701e+00,-4.429521201611530401e-01,-9.811664382309990273e+00
1.878880935964542642e+00,-4.452271481566489886e-01,-9.811116456871451064e+00
1.883309796477400377e+00,-4.472904981044743544e-01,-9.810725439859275809e+00
1.887736290955109197e+00,-4.491243295045383443e-01,-9.810858982501661885e+00
1.892004252900857386e+00,-4.511280638825102551e-01,-9.810072976712914894e+00
1.896252033041831542e+00,-4.534066695496610788e-01,-9.809578375058714883e+00
1.900377771815350281e+00,-4.556764804015545067e-01,-9.809064224773852203e+00
1.904561423015690647e+00,-4.576203446328488966e-01,-9.808383644361983400e+00
1.908729630180457937e+00,-4.600218640703827577e-01,-9.808521897974690873e+00
1.912716245989604325e+00,-4.618785324109251356e-01,-9.807691256767448351e+00
1.917240969904739245e+00,-4.640582194748233968e-01,-9.807963835322802026e+00
1.921373828093183356e+00,-4.658682606165542861e-01,-9.807371378554233132e+00
1.925325522918132082e+00,-4.679636512402567394e-01,-9.807154842296737840e+00
1.929065253495311216e+00,-4.702359671113280903e-01,-9.806239104460926725e+00
1.933283373126576166e+00,-4.718223067821858407e-01,-9.806130173087041157e+00
1.937618773930051441e+00,-4.742395526719677679e-01,-9.805517027339176295e+00
1.941691319800446180e+00,-4.760756836920747026e-01,-9.804713149511300685e+00
1.945553399608273448e+00,-4.780412892120518564e-01,-9.804955686351986444e+00
1.949443481221940999e+00,-4.800566230853456351e-01,-9.804221012678482339e+00
1.953506376854488913e+00,-4.820498614243419744e-01,-9.803822900763506709e+00
1.957738488349046957e+00,-4.842069767258812552e-01,-9.803197757423150804e+00
1.961500895027598057e+00,-4.859221841292246657e-01,-9.802828046345059221e+00
1.965246727716944530e+00,-4.880051902064931335e-01,-9.802287975531323028e+00
1.969152740575083271e+00,-4.900053103660507170e-01,-9.801984998113654868e+00
1.973277415260872969e+00,-4.916646068984831808e-01,-9.802127677775507308e+00
1.976592470314124217e+00,-4.934330767328633516e-01,-9.801052420231416207e+00
1.980508022471786589e+00,-4.950870245289742955e-01,-9.800878886604909468e+00
1.984504978420252863e+00,-4.971498565799333247e-01,-9.800281497342171022e+00
1.988346584642642911e+00,-4.990763497697997542e-01,-9.799365315523619557e+00
1.991841096307543246e+00,-5.009773763978834227e-01,-9.799164255008927071e+00
1.995670430856287370e+00,-5.026772141732439581e-01,-9.798445978413377944e+00
1.999541800516360768e+00,-5.045589523938119880e-01,-9.798615853668181330e+00
2.003206056264859036e+00,-5.066114930582089615e-01,-9.797715159627143677e+00
2.006924110230820624e+00,-5.080006875475525652e-01,-9.797264202483365381e+00
2.010374605253976821e+00,-5.100356297441397402e-01,-9.797119378802880973e+00
2.014315219907604426e+00,-5.118632118785662044e-01,-9.796535161997827146e+00
2.018028080169870897e+00,-5.137561212650397779e-01,-9.795936793087795635e+00
2.021621024727187965e+00,-5.153410576408959942e-01,-9.795890556772109292e+00
2.025410150168172496e+00,-5.172326466217851415e-01,-9.795737000724900057e+00
2.028459508388019028e+00,-5.187780389426492889e-01,-9.795047035474352626e+00
2.032222146405734620e+00,-5.208181131014592014e-01,-9.794291137069359721e+00
2.035422634275040554e+00,-5.225220826068974755e-01,-9.793588889238128203e+00
2.039204318154629547e+00,-5.241740079072780834e-01,-9.793417493970208554e+00
2.042556143532124224e+00,-5.258725391871608146e-01,-9.793094152986842715e+00
2.046135928810706606e+00,-5.277725037848639555e-01,-9.792497279499480456e+00
2.049236015652671661e+00,-5.293623289112573405e-01,-9.792136994361760216e+00
2.052952228883179853e+00,-5.310195266075244946e-01,-9.790727103711930113e+00
2.056383005057945468e+00,-5.328962387988587235e-01,-9.791090866644598378e+00
2.059814553001098503e+00,-5.342555525322193466e-01,-9.790530802701114865e+00
2.063150862425855880e+00,-5.361615980916731861e-01,-9.790134836971480681e+00
2.066663457130347048e+00,-5.375713322872585076e-01,-9.789259662303347653e+00
2.069865444346627559e+00,-5.393125272699160755e-01,-9.788807980437052692e+00
2.073063194128116127e+00,-5.411000621376851338e-01,-9.787899993696012046e+00
2.076599546620231163e+00,-5.427294764327895704e-01,-9.788088947652164862e+00
2.079852020509213695e+00,-5.442059793169747861e-01,-9.787099023318383217e+00
2.083277676359506003e+00,-5.454374829934407476e-01,-9.786928612802705985e+00
2.086253898902272308e+00,-5.472998140441913684e-01,-9.786771421559917528e+00
2.089714800978283549e+00,-5.489385145972085489e-01,-9.785890582200121202e+00
2.092751366379634437e+00,-5.504152188515676336e-01,-9.785884034937197384e+00
2.096167740809357305e+00,-5.520341832847629471e-01,-9.785136061299578358e+00
2.099207812298916842e+00,-5.535360925463400639e-01,-9.784478842075568394e+00
2.102142244768438140e+00,-5.551795035875869422e-01,-9.784238726696028010e+00
2.105493526128483062e+00,-5.566588478461030887e-01,-9.783991180739427307e+00
2.108399776461983954e+00,-5.580996393338194528e-01,-9.783652730318014079e+00
2.111781203229218917e+00,-5.598662401603734518e-01,-9.783702807211628993e+00
2.114883341237249859e+00,-5.612701500938477306e-01,-9.782431928059530435e+00
2.117804220881474020e+00,-5.628867040771697861e-01,-9.781907476922363287e+00
2.120929849007714196e+00,-5.642157441421082886e-01,-9.781589990064675888e+00
2.123860876947505805e+00,-5.659360356366579525e-01,-9.780879226276789851e+00
2.127132166891449128e+00,-5.674686556004255866e-01,-9.780613753571010704e+00
2.130025200349279224e+00,-5.686942366114956515e-01,-9.779853607687709172e+00
2.133182625125442655e+00,-5.705141394899183593e-01,-9.779607728704670322e+00
2.136037891432172486e+00,-5.720421490981036916e-01,-9.779430101265129238e+00
2.138982437863749198e+00,-5.730549300527594259e-01,-9.778591481775187333e+00
2.142000586229110937e+00,-5.747534677116066248e-01,-9.777646050466856309e+00
2.144972522378218560e+00,-5.759538811796295343e-01,-9.777417592738784080e+00
2.147868571342902655e+00,-5.775900730606083888e-01,-9.777202797100498444e+00
2.150939278791096587e+00,-5.789100918327463319e-01,-9.776271339383567849e+00
2.153486072324013456e+00,-5.809680626756714705e-01,-9.775925481303584519e+00
2.156599181352596872e+00,-5.820227282656629253e-01,-9.775920415474521619e+00
2.159596970298330199e+00,-5.832276501462799745e-01,-9.775371163699491106e+00
2.162242695663797232e+00,-5.845942291823540415e-01,-9.774295594051915614e+00
2.165085063194884363e+00,-5.860759826435987252e-01,-9.774018443774957987e+00
2.168116380299771162e+00,-5.875464437391956229e-01,-9.773406391529476878e+00
2.170616696269542789e+00,-5.888692097243550805e-01,-9.773343824829137105e+00
2.173791451856236456e+00,-5.901844266997350319e-01,-9.772451063397033622e+00
2.176468692948289707e+00,-5.911428837771296463e-01,-9.772202869859816232e+00
2.179047109687537009e+00,-5.928461123820105705e-01,-9.772247131167077328e+00
2.181939514731711327e+00,-5.941444142259462158e-01,-9.771057096035022482e+00
2.184817829372208919e+00,-5.954109648470037319e-01,-9.770543954585299673e+00
2.187183479624548621e+00,-5.968971098155957389e-01,-9.770309156671926232e+00
2.190269604082066834e+00,-5.984505185157504847e-01,-9.769338774593519403e+00
2.192906589284306929e+00,-5.994280653661150371e-01,-9.769457566963962947e+00
2.195656764395847116e+00,-6.007816670237640100e-01,-9.769417117509210158e+00
2.198255231031007728e+00,-6.020924117971978573e-01,-9.767854304526506937e+00
2.200600911502955448e+00,-6.036184371660572312e-01,-9.767942137594605612e+00
2.203540052292541240e+00,-6.044495428764066203e-01,-9.767449419912328068e+00
2.206130462280440518e+00,-6.057645706850866008e-01,-9.766809118493847919e+00
2.208569290900989301e+00,-6.070945189389782559e-01,-9.766433251624890843e+00
2.211416552551339620e+00,-6.086507414240966973e-01,-9.765989419272125716e+00
2.214008200934579840e+00,-6.098515357293062822e-01,-9.765828999531665389e+00
2.216470206946017374e+00,-6.110571493564120882e-01,-9.765238284464112795e+00
2.218998032518217034e+00,-6.123298644762412701e-01,-9.764755846157667563e+00
2.221523663425679196e+00,-6.135121858109067183e-01,-9.763776017480630287e+00
2.223782576433297020e+00,-6.146632680718490116e-01,-9.763361421130474227e+00
2.226555505646499622e+00,-6.161081989214949317e-01,-9.763171912442610179e+00
2.229006652188519677e+00,-6.170760714237623068e-01,-9.762635078431124214e+00
2.231447380235190625e+00,-6.184098748340602913e-01,-9.762570689777405164e+00
2.233933280987230319e+00,-6.195403997980133415e-01,-9.762086581991189504e+00
2.236381234130449425e+00,-6.205860986046122241e-01,-9.760989178406061839e+00
2.238825848582318478e+00,-6.221141208657928745e-01,-9.761507958710092581e+00
2.241266139234534549e+00,-6.226849574479821348e-01,-9.760544579298620960e+00
2.243770891085425045e+00,-6.243429716292374643e-01,-9.759926213338260936e+00
2.246342638693038296e+00,-6.254834452744852946e-01,-9.759608235820259381e+00
2.248371837700486875e+00,-6.266376524302501583e-01,-9.757943362128441933e+00
2.250722802404774292e+00,-6.280095392908280338e-01,-9.758059356424245934e+00
2.253080359348894390e+00,-6.290166510980663706e-01,-9.757554544276004549e+00
2.255408282221002203e+00,-6.302289531270828249e-01,-9.757574609435119228e+00
2.257963303537547262e+00,-6.312993112690444830e-01,-9.756886219208391609e+00
2.260247011329965972e+00,-6.324894226907357142e-01,-9.756588504474242640e+00
2.262688752998437636e+00,-6.333254861890216247e-01,-9.755624700971671004e+00
2.264741922980230804e+00,-6.344417286535066758e-01,-9.755486449709968255e+00
2.267131090656829162e+00,-6.355966408898111597e-01,-9.754701603213300487e+00
2.269571060814119523e+00,-6.371011025724281351e-01,-9.754485548101854420e+00
2.271569168322335130e+00,-6.379707063530585254e-01,-9.753817068489295750e+00
2.273943715178021741e+00,-6.391598125730069135e-01,-9.753300862997644316e+00
2.276199545500050991e+00,-6.401380280966232350e-01,-9.752636077281005456e+00
2.278544375519409915e+00,-6.413748045935527831e-01,-9.752330371577258461e+00
2.280437952519859035e+00,-6.423666495751703120e-01,-9.752372795005427975e+00
2.283138479788001440e+00,-6.433222301915010322e-01,-9.751993461770810612e+00
2.285030261937302409e+00,-6.444808653139791899e-01,-9.751280936006189393e+00
2.287602291453532555e+00,-6.454828937367206310e-01,-9.750898572471196957e+00
2.289768109854882994e+00,-6.465366979910720513e-01,-9.750267870426908345e+00
2.291453215136395549e+00,-6.475590282080119220e-01,-9.749827414404022008e+00
2.293856811244430638e+00,-6.484646213988368713e-01,-9.749102554441362756e+00
2.295693578348529496e+00,-6.496646675250389302e-01,-9.748795870726780777e+00
2.298104875356708821e+00,-6.508420144537843122e-01,-9.748487357650260421e+00
2.300112388548014586e+00,-6.517846014395448639e-01,-9.748262555812953423e+00
2.302698256770683294e+00,-6.527430281386827904e-01,-9.747502918506706138e+00
2.304349234894956577e+00,-6.536849125641615021e-01,-9.746815287361799918e+00
2.306317121210868848e+00,-6.547277471747148248e-01,-9.747137976227993050e+00
2.308655171103733306e+00,-6.557136854404043147e-01,-9.746060834816626439e+00
2.310868517652154175e+00,-6.569169160570031973e-01,-9.745501494189655389e+00
2.312634456940589889e+00,-6.579380640726127938e-01,-9.745012642430994632e+00
2.314694916673909031e+00,-6.589293758313999883e-01,-9.744680819106896763e+00
2.316954193786966432e+00,-6.600851716391780144e-01,-9.744881922511723360e+00
2.318857462181688867e+00,-6.607612845712496075e-01,-9.744225144353771739e+00
2.321109369239658715e+00,-6.616308517040038195e-01,-9.743784510708282554e+00
2.322683750899332544e+00,-6.629239515814653316e-01,-9.742532803439445388e+00
2.325142377912923219e+00,-6.635469073535805729e-01,-9.742500816895091731e+00
2.327003280024066534e+00,-6.647174917776454972e-01,-9.741970784275524764e+00
2.328671106893616116e+00,-6.658991998911921728e-01,-9.741439817795992440e+00
2.331011708414381989e+00,-6.666424815727529651e-01,-9.740772522884881823e+00
2.332485650700744539e+00,-6.675343379578690950e-01,-9.741048416705973878e+00
2.334643914487054772e+00,-6.684532345665974429e-01,-9.739907400202111987e+00
2.336608174042194008e+00,-6.692703199472228581e-01,-9.739330669222804104e+00
2.338452055881809155e+00,-6.703792503405870962e-01,-9.738766647978209789e+00
2.340573269853531979e+00,-6.709937982567125703e-01,-9.738984453107450534e+00
2.342101644652874626e+00,-6.722261735122667670e-01,-9.738511596700556439e+00
2.343953774474721197e+00,-6.729119425700526014e-01,-9.737859045946580139e+00
2.345815847335298354e+00,-6.744113502572597341e-01,-9.737104963399588087e+00
2.348073158962349360e+00,-6.750202799794606801e-01,-9.736891634255906425e+00
2.350026746135405187e+00,-6.761023159506454050e-01,-9.736624716504216792e+00
2.351518950837889754e+00,-6.764796679308063831e-01,-9.736673144032899074e+00
2.353549734377127667e+00,-6.771038020291838544e-01,-9.735924230626874731e+00
2.355302667423972984e+00,-6.781968825443389637e-01,-9.735773777887093416e+00
2.357103783104023353e+00,-6.795149061487344433e-01,-9.734626615027083929e+00
2.358898340104058633e+00,-6.804275009678262265e-01,-9.734180157942171618e+00
2.360260265596334062e+00,-6.810366125555898931e-01,-9.734373486076068005e+00
2.362726254932676628e+00,-6.820042317263862452e-01,-9.733353690542658754e+00
2.364139962154828467e+00,-6.825732172984616541e-01,-9.733603926667964146e+00
2.365927529814987551e+00,-6.838258497063391950e-01,-9.732965156075142232e+00
2.367997218806096260e+00,-6.846825096660263954e-01,-9.731807688981211513e+00
2.369652992825461713e+00,-6.855952168588059781e-01,-9.731193671564707159e+00
2.371420244198127580e+00,-6.861382235781103844e-01,-9.731208086770667620e+00
2.373015752209648443e+00,-6.869459814546978738e-01,-9.731099970815085598e+00
2.374796910683269147e+00,-6.878451585055103124e-01,-9.731063040194937841e+00
2.376336308584376056e+00,-6.885811463447160108e-01,-9.729771499788649081e+00
2.378031088916262359e+00,-6.893714340416896569e-01,-9.729213819236944616e+00
2.380114200813636227e+00,-6.903581898463762023e-01,-9.729100561655107171e+00
2.381533616956946542e+00,-6.914036921319255402e-01,-9.729237221719854389e+00
2.383405156000386160e+00,-6.917203623243773913e-01,-9.728500827393469663e+00
2.384873688852982454e+00,-6.925640005561884971e-01,-9.727996872562620467e+00
2.386573766748480985e+00,-6.936011574874897390e-01,-9.727557018716625592e+00
2.387957819871530329e+00,-6.944332680005673719e-01,-9.727285574846119331e+00
2.389880725359264879e+00,-6.954937789428466965e-01,-9.726922443938697427e+00
2.391342331674120025e+00,-6.960029199829067537e-01,-9.726294687498738156e+00
2.393052724240082973e+00,-6.966414414679730216e-01,-9.726169800820805733e+00
2.394757146085754407e+00,-6.975658725406765903e-01,-9.725640234451475408e+00
2.396353079016882770e+00,-6.982249518281429257e-01,-9.724933519690056372e+00
2.398123525502475317e+00,-6.992635679721956876e-01,-9.724587808901084429e+00
2.399899223961249106e+00,-6.998774714207252057e-01,-9.724255510646694134e+00
2.401328170783525895e+00,-7.004300049652449900e-01,-9.724351073604161400e+00
2.402969037208085634e+00,-7.013399759303889924e-01,-9.723991947855237683e+00
2.404407075042703124e+00,-7.021021296041118909e-01,-9.723090497423862999e+00
2.405866239824950181e+00,-7.027333146262347841e-01,-9.722247155950466180e+00
2.407185904485167338e+00,-7.036580744490539274e-01,-9.722602579462082062e+00
2.408792587183839817e+00,-7.041659779801618946e-01,-9.721821700678530576e+00
2.410591283780636473e+00,-7.049548929140719844e-01,-9.721723511166214138e+00
2.412162034333791283e+00,-7.059457677563946154e-01,-9.721588862915835350e+00
2.413642681267087919e+00,-7.067171421295874723e-01,-9.720926160748200928e+00
2.415112073591280772e+00,-7.070801079843944681e-01,-9.720869617877422542e+00
2.416495869119765771e+00,-7.079273157408791928e-01,-9.719600977190234303e+00
2.418112044162641361e+00,-7.083743869971668161e-01,-9.720192055299429867e+00
2.419408527638223561e+00,-7.092374771058848060e-01,-9.719414759944790205e+00
2.420894915925105639e+00,-7.101190855629179177e-01,-9.717577306802706261e+00
2.422396131321400414e+00,-7.107714579578012781e-01,-9.718366913960164055e+00
2.423725615355937890e+00,-7.114702180317696856e-01,-9.718210550276333848e+00
2.425399304612741780e+00,-7.120772246265091310e-01,-9.717446117597695832e+00
2.427079857858881695e+00,-7.130859845282855325e-01,-9.716461378189931608e+00
2.428141615341682602e+00,-7.136719958219603921e-01,-9.716610571439288080e+00
2.429797834992516670e+00,-7.143348897133772191e-01,-9.716325479265496057e+00
2.431005514899696518e+00,-7.148996087390456777e-01,-9.715906656402559349e+00
2.432596087722173284e+00,-7.155849822287930762e-01,-9.715220729551074186e+00
2.433857272822416817e+00,-7.164700878880447821e-01,-9.715205160228498116e+00
2.435214811788210643e+00,-7.170591897141708193e-01,-9.714275132862827178e+00
2.436830067762058682e+00,-7.180966057706098526e-01,-9.714131367197978761e+00
2.438281991416900940e+00,-7.182705902574824108e-01,-9.713228969420985237e+00
2.439597585456536599e+00,-7.188851473981170415e-01,-9.712846510940813971e+00
2.441088269033118152e+00,-7.198381635641891707e-01,-9.713877728407528167e+00
2.442421094649955826e+00,-7.204470606953486955e-01,-9.712757928526050577e+00
2.443328589129754036e+00,-7.208096981526472824e-01,-9.712575588021415740e+00
2.445179004576647941e+00,-7.218028731251285857e-01,-9.712048967547099565e+00
2.446736541660876174e+00,-7.222592259882170129e-01,-9.711321896683269728e+00
2.447886738348395319e+00,-7.228524485449542292e-01,-9.710552036534213727e+00
2.449252145171620043e+00,-7.234628196409097489e-01,-9.710583203756991466e+00
2.450477733890426446e+00,-7.241056091783297788e-01,-9.710372662675037958e+00
2.451529980172727274e+00,-7.247044104982706125e-01,-9.709715930723580968e+00
2.452995199456583730e+00,-7.256307826161962904e-01,-9.709646854698478435e+00
2.454687031520271567e+00,-7.261819059048058023e-01,-9.709607746579486331e+00
2.455431698247294126e+00,-7.263024237868151989e-01,-9.709252245475767040e+00
2.457031375339157275e+00,-7.273058929480712420e-01,-9.708833607566697665e+00
2.458096527395754016e+00,-7.278064829447302708e-01,-9.708276177851111299e+00
2.459349613544029811e+00,-7.284764110403990633e-01,-9.707891459761698982e+00
2.460626402884745989e+00,-7.290680969953650115e-01,-9.707858650926585398e+00
2.461999318774765300e+00,-7.295067167917889117e-01,-9.707352777583134085e+00
2.463345112890409805e+00,-7.301757591562026972e-01,-9.706840371339024998e+00
2.464393052912899673e+00,-7.306911300954490596e-01,-9.706125487247431849e+00
2.465618080601409634e+00,-7.314421517099780612e-01,-9.706163248759555273e+00
2.467124088000504312e+00,-7.319414146992683223e-01,-9.706142362389641676e+00
2.468114657488199803e+00,-7.325775758570293172e-01,-9.705385741308736769e+00
2.469154752810495346e+00,-7.334090557607116923e-01,-9.704197888859624754e+00
2.470473269855705478e+00,-7.338672984766101415e-01,-9.704409980599278285e+00
2.471891484704505260e+00,-7.343227380033537921e-01,-9.704149909988194267e+00
2.473173390328319510e+00,-7.349779606776536411e-01,-9.703761426147289981e+00
2.474350436059098879e+00,-7.355987392506680989e-01,-9.703297574119979174e+00
2.475329221615436115e+00,-7.361397281854483721e-01,-9.703135318742432958e+00
2.476518391708919964e+00,-7.363216359752421392e-01,-9.702650058794048959e+00
2.477831175783746787e+00,-7.375333774711512191e-01,-9.702480930416690796e+00
2.478626482571045564e+00,-7.380205438038708321e-01,-9.701785149679293951e+00
2.480194419775030301e+00,-7.384023143002035328e-01,-9.702209742258766312e+00
2.481323269621347194e+00,-7.391195804948256232e-01,-9.701340297093420162e+00
2.482461430020248994e+00,-7.395904743697195860e-01,-9.701328831460378055e+00
2.483517838424956548e+00,-7.399611326384033516e-01,-9.700362056133297273e+00
2.484812374212238328e+00,-7.403257274653985975e-01,-9.700382156475599871e+00
2.485862777663316425e+00,-7.408853309782720276e-01,-9.700274227896676038e+00
2.486666619084190177e+00,-7.417940476158335628e-01,-9.700028719268756205e+00
2.488313777399200788e+00,-7.419423640475227844e-01,-9.699798872383592396e+00
2.489473513127831605e+00,-7.425183798946253244e-01,-9.698490944203056685e+00
2.490334715043927005e+00,-7.434384367777006064e-01,-9.698457329829283324e+00
2.491181625116813514e+00,-7.440473379096843587e-01,-9.698093713186127118e+00
2.492701304799592066e+00,-7.442503011572243476e-01,-9.698229957250314115e+00
2.493752056194431965e+00,-7.447175184558335603e-01,-9.697550316646813329e+00
2.494900357777270816e+00,-7.453756879314984429e-01,-9.697069145964871240e+00
2.495759448775914269e+00,-7.456573674851493250e-01,-9.697188705958163624e+00
2.497025071142554342e+00,-7.463897902935242579e-01,-9.696057820580474385e+00
2.498050244304332868e+00,-7.468314024135975782e-01,-9.696618392437397205e+00
2.499033225382471191e+00,-7.475338154527293444e-01,-9.696721789657535950e+00
2.500245377054873153e+00,-7.477192978854916294e-01,-9.695542866782783875e+00
2.501146540858413925e+00,-7.484971023000643875e-01,-9.694881194883476994e+00
2.502312518923347717e+00,-7.486762689515159552e-01,-9.694455256582628522e+00
2.503106099848551480e+00,-7.495055218270795239e-01,-9.694564211491828232e+00
2.504104416523150967e+00,-7.499679501631314471e-01,-9.694471176386210587e+00
2.505256540272973176e+00,-7.503302045869759684e-01,-9.693799236241073203e+00
2.506222852679762525e+00,-7.506898003930575491e-01,-9.693923879952574651e+00
2.507289609380528361e+00,-7.514375128282421157e-01,-9.693420615095330817e+00
2.508580826327285518e+00,-7.519550069556816263e-01,-9.692927158441341007e+00
2.509616780554629667e+00,-7.524593222090137923e-01,-9.692800451166993625e+00
2.510477946422637441e+00,-7.525071891927549439e-01,-9.692408718991563532e+00
2.511542795582239584e+00,-7.531662112722881108e-01,-9.692387346222020028e+00
2.512592751629485921e+00,-7.537629798800155045e-01,-9.691662750947351412e+00
2.513572200206142693e+00,-7.542481647695991054e-01,-9.691234602445552682e+00
2.514377935884867465e+00,-7.544712323177188429e-01,-9.691187862282360399e+00
2.515488645518039412e+00,-7.551425976128559592e-01,-9.690768753382238643e+00
2.516408018365647425e+00,-7.556075511838495906e-01,-9.691098972232367714e+00
2.517154808253118770e+00,-7.559857370300022694e-01,-9.689791714346091211e+00
2.518326208955049328e+00,-7.562642313085278234e-01,-9.690222941614679897e+00
2.519304183382411466e+00,-7.569984923884859329e-01,-9.689112307631134513e+00
2.520474287912322087e+00,-7.575499013846614949e-01,-9.689446769317585861e+00
2.521272482046278629e+00,-7.576263971744017223e-01,-9.689047629423807706e+00
2.522031526639812782e+00,-7.582787987431744980e-01,-9.688610908640725938e+00
2.522951149149496253e+00,-7.587595366518645745e-01,-9.687969546744962912e+00
2.524017408071014490e+00,-7.591485997428252253e-01,-9.687464444788675522e+00
2.524815390421934591e+00,-7.594234102847782220e-01,-9.687244114349608637e+00
2.525644835208826322e+00,-7.602487712591751157e-01,-9.687591577433527945e+00
2.526955522371286733e+00,-7.603715204655012716e-01,-9.687306678109772307e+00
2.527520232801985678e+00,-7.609862775496198939e-01,-9.686467579176007092e+00
2.528701295069468724e+00,-7.611488615080111986e-01,-9.686843918346669469e+00
2.529592224295421410e+00,-7.619310451190047795e-01,-9.686292431344980969e+00
2.530239004737700803e+00,-7.621035699066291969e-01,-9.685364038414245869e+00
2.531180627337055178e+00,-7.628223094180088815e-01,-9.685675234606641482e+00
2.532032701519097984e+00,-7.631572869623516331e-01,-9.685455631785464092e+00
2.533082404230408535e+00,-7.634296299562480792e-01,-9.684832657117963706e+00
2.534023559199232611e+00,-7.638721195974660372e-01,-9.684547626585759517e+00
2.534893995902641972e+00,-7.641684676162395773e-01,-9.684607776284673619e+00
2.535577648932289208e+00,-7.645584291521057008e-01,-9.683817623521845164e+00
2.536497249953496347e+00,-7.650077141304714168e-01,-9.684029558881553257e+00
2.537208064454592904e+00,-7.655248119655476691e-01,-9.683189153376273950e+00
2.538467290378076946e+00,-7.657483702110576829e-01,-9.682502170586143819e+00
2.538910579053996308e+00,-7.665635531170341688e-01,-9.683068494895129774e+00
2.539833084456706747e+00,-7.665658485873654282e-01,-9.681988579493101099e+00
2.540872938537114045e+00,-7.671863935941714008e-01,-9.682146807317842274e+00
2.541468653618451423e+00,-7.676056963902853081e-01,-9.681999956766441429e+00
2.542495804844730145e+00,-7.676939495543194658e-01,-9.682004950674837573e+00
2.543233628839240978e+00,-7.683370039459659351e-01,-9.681383951273298649e+00
2.544221281445532945e+00,-7.686463309867130889e-01,-9.681377691451626077e+00
2.544828501733578108e+00,-7.693283009282410045e-01,-9.680936827071477069e+00
2.545922409133008379e+00,-7.692420052178210454e-01,-9.680200803669693599e+00
2.546898845480567886e+00,-7.697964101219580968e-01,-9.680373371792041937e+00
2.547433666334767199e+00,-7.703102061700445313e-01,-9.679768625186769171e+00
2.548042284511919497e+00,-7.703369837444821178e-01,-9.679081649975568524e+00
2.549258732145949669e+00,-7.708832901085003186e-01,-9.679141155889436021e+00
2.549796300090290568e+00,-7.713669722180558352e-01,-9.678888493393335679e+00
2.550606333667870818e+00,-7.717634013017083960e-01,-9.678179708892672650e+00
2.551499719404307420e+00,-7.721739524077886330e-01,-9.678309936136718861e+00
2.551787361388782482e+00,-7.721287962278864381e-01,-9.677789528546536957e+00
2.553316139159261144e+00,-7.726826924107783601e-01,-9.678476312679116234e+00
2.553914302014203663e+00,-7.733468910000245167e-01,-9.677709167770336407e+00
2.554797210080590464e+00,-7.734120892241969081e-01,-9.678063280782282618e+00
2.555084240189431366e+00,-7.740810104820112780e-01,-9.676616782433542951e+00
2.556040820689065907e+00,-7.744322600187354411e-01,-9.677298020162043102e+00
2.556807254175605948e+00,-7.748069258729645137e-01,-9.675988647423267253e+00
2.557479140697142661e+00,-7.751219889099805194e-01,-9.676590529055284051e+00
2.558499639007924209e+00,-7.751261031199786489e-01,-9.676293200518914617e+00
2.559216174827484647e+00,-7.756961043481719331e-01,-9.676059452021410934e+00
2.559865160554784413e+00,-7.759210458336518457e-01,-9.675840183416967832e+00
2.560583957991528159e+00,-7.764784390886305676e-01,-9.675069943173975062e+00
2.561479949874768014e+00,-7.770233055834870894e-01,-9.674526012550948906e+00
2.561975762769052256e+00,-7.769038864025755720e-01,-9.674454100707507109e+00
2.562666011693877088e+00,-7.770620389317867138e-01,-9.674310916468447985e+00
2.563448468519983425e+00,-7.778508320868361414e-01,-9.674186615766952713e+00
2.564368218130602894e+00,-7.782890711038527032e-01,-9.673829475694548208e+00
2.565063950823816441e+00,-7.783997522727378326e-01,-9.673585961451587778e+00
2.565611046217580515e+00,-7.788860483553359249e-01,-9.673230485504056730e+00
2.566090524420843622e+00,-7.791638579701525291e-01,-9.673051732034332773e+00
2.567132973982973798e+00,-7.795588292309478806e-01,-9.673195966986202876e+00
2.567748924421679568e+00,-7.797307239959611058e-01,-9.672881996478770006e+00
2.568232638278664659e+00,-7.798841129949307671e-01,-9.672546843139819828e+00
2.569050035240348695e+00,-7.806853429091334950e-01,-9.671792432796619821e+00
2.569687584066617791e+00,-7.806141282250197433e-01,-9.672190420248947262e+00
2.570312910642876592e+00,-7.810537756433749701e-01,-9.672082710725966592e+00
2.571320822016553986e+00,-7.813288539300099478e-01,-9.670760564076310573e+00
2.571920218695172622e+00,-7.819828037809558596e-01,-9.671247923175640082e+00
2.572312053148583022e+00,-7.820904621550222036e-01,-9.670995875918658058e+00
2.573125393370669034e+00,-7.822865733027286606e-01,-9.670579208364742385e+00
2.573923724844396688e+00,-7.828123106992368463e-01,-9.670834367040331614e+00
2.574620889755466546e+00,-7.829689704732490929e-01,-9.670121994055593362e+00
2.575147139839966126e+00,-7.832777137646493859e-01,-9.669880443057380148e+00
2.575962054727952921e+00,-7.837238862052010591e-01,-9.669626246305401907e+00
2.576823723339291217e+00,-7.841327328729256196e-01,-9.669241063170577632e+00
2.577104966458093838e+00,-7.844115698967969452e-01,-9.669055072877696944e+00
2.577815037758003136e+00,-7.841613885258067462e-01,-9.669147494538654186e+00
2.578743723924125320e+00,-7.847950779725637593e-01,-9.668886072773497986e+00
2.579465119311362908e+00,-7.848861127960560236e-01,-9.668492433618029125e+00
2.579879969563779074e+00,-7.853765299003849787e-01,-9.668348636293659482e+00
2.580443393271803387e+00,-7.855208426052447956e-01,-9.668112005852631086e+00
2.580686739668663687e+00,-7.858959789802988372e-01,-9.667606777686287955e+00
2.581495695706605531e+00,-7.862147668054748628e-01,-9.667532405133904660e+00
2.582675210725770221e+00,-7.866594994771377580e-01,-9.666881114470690761e+00
2.582902933242549715e+00,-7.867275878767125974e-01,-9.666918785322026864e+00
2.583637151948479538e+00,-7.870737064056043675e-01,-9.666776870305875846e+00
2.584266815921766547e+00,-7.878777853807122922e-01,-9.666060567444967333e+00
2.584646804813822918e+00,-7.875494117500891900e-01,-9.665870954846521812e+00
2.585738171656774664e+00,-7.880423189494903946e-01,-9.665883657563956177e+00
2.586088826599582280e+00,-7.883805589292853799e-01,-9.665991531316727503e+00
2.586547550372233051e+00,-7.885114333708277412e-01,-9.664653315504018849e+00
2.587777806575576989e+00,-7.891147538782338211e-01,-9.665118396349392071e+00
2.588042531169568949e+00,-7.889176836173679153e-01,-9.664778214215004937e+00
2.588427064286245027e+00,-7.894528314659980950e-01,-9.664778895631485511e+00
2.589056882444957797e+00,-7.899179378880671898e-01,-9.664493950675836942e+00
2.589513206640901899e+00,-7.900667202040340120e-01,-9.665101558688757422e+00
2.590157931784082823e+00,-7.902910351139912359e-01,-9.663934015295430058e+00
2.590603584019951722e+00,-7.906353332067574957e-01,-9.664686598525502603e+00
2.591129195922068362e+00,-7.907747366780782938e-01,-9.663956825011240426e+00
2.591762554793723083e+00,-7.912023438032332878e-01,-9.663650707957906150e+00
2.592717978659937916e+00,-7.914673126013441751e-01,-9.662677427273054676e+00
2.593123483376445826e+00,-7.916738607124241822e-01,-9.662695202226155189e+00
2.593882742249371098e+00,-7.915697341505505413e-01,-9.663057926773653605e+00
2.594148605944823771e+00,-7.922460406028724034e-01,-9.663185103785213670e+00
2.594393503809826029e+00,-7.924647692685633515e-01,-9.662429749442230431e+00
2.595138821494888948e+00,-7.926580908914228063e-01,-9.662512100132227388e+00
2.595793814941826927e+00,-7.927496030078223788e-01,-9.662015085269741732e+00
2.596321817677908594e+00,-7.933011014670764416e-01,-9.661619151885005863e+00
2.596876213388429111e+00,-7.933920451101693638e-01,-9.661410087311500305e+00
2.597210933862321713e+00,-7.934446116578302011e-01,-9.661186202446808480e+00
2.598129007169037052e+00,-7.937914117936795133e-01,-9.660779739303150038e+00
2.598677366309869896e+00,-7.941015236972199798e-01,-9.661216132437839832e+00
2.598816774670049679e+00,-7.947005928977370903e-01,-9.660660174239875886e+00
2.599694844903302826e+00,-7.946448981634051112e-01,-9.660157636781065094e+00
2.600401745424406386e+00,-7.951327584518502745e-01,-9.659796985356855714e+00
2.600834996429196355e+00,-7.950562366796363190e-01,-9.659234280138342399e+00
2.601142710551010317e+00,-7.952304302165849048e-01,-9.659777497503780452e+00
2.601838032353813723e+00,-7.958523685705231054e-01,-9.659278775762372149e+00
2.602341635338750958e+00,-7.957940721023728514e-01,-9.659367874356103556e+00
2.602640270223111951e+00,-7.961416058334577217e-01,-9.659070355884034953e+00
2.603490767890209057e+00,-7.962467957329859569e-01,-9.659006239970867824e+00
2.604174982480542244e+00,-7.966620265801453993e-01,-9.659078703641055696e+00
2.604407756267559826e+00,-7.967344301454517552e-01,-9.658584395321671678e+00
2.604682907627874577e+00,-7.970165237263213687e-01,-9.658503403414623989e+00
2.605350610135348521e+00,-7.979196270280752845e-01,-9.657827747388191497e+00
2.605909811251173380e+00,-7.971330771015717742e-01,-9.657889830633674677e+00
2.606404489933151769e+00,-7.976726299954819410e-01,-9.656876164349098346e+00
2.607124134353211442e+00,-7.981016987010324248e-01,-9.657526570407398481e+00
2.607326253007590466e+00,-7.984499656276127233e-01,-9.657879605927451649e+00
2.607874934947933099e+00,-7.986570904389165282e-01,-9.657292727393368637e+00
2.608251227677890416e+00,-7.985846479886861138e-01,-9.656837458972681532e+00
2.608759176039198380e+00,-7.990078884665803294e-01,-9.655988511342989966e+00
2.609064028066699681e+00,-7.988827478068438737e-01,-9.656356640751708298e+00
2.609900836235417465e+00,-7.994285213453935501e-01,-9.656517293634140131e+00
2.610245430390319310e+00,-7.993040524315787598e-01,-9.656509048978740850e+00
2.610538258609473417e+00,-8.001389747446068235e-01,-9.656294511917863588e+00
2.611154242052472263e+00,-8.000607949055242862e-01,-9.656201394985998832e+00
2.611697218955829847e+00,-7.999277617189775036e-01,-9.655860079737799140e+00
2.611988331412236075e+00,-8.004948066908735838e-01,-9.655429175479145698e+00
2.612754731039972356e+00,-8.006335096559064057e-01,-9.655107582404948374e+00
2.613166293507795945e+00,-8.006829832661565005e-01,-9.654617882762773107e+00
2.613501139811691854e+00,-8.012410482501786113e-01,-9.655496950611833995e+00
2.614080672170329134e+00,-8.010466967626425072e-01,-9.654814728581300187e+00
2.614281435211363025e+00,-8.017369275734614886e-01,-9.653957357092536995e+00
2.614642054946494820e+00,-8.020199340895854956e-01,-9.654578403829242816e+00
2.615653556619044640e+00,-8.021068143396207217e-01,-9.654398773604507156e+00
2.615588911608170530e+00,-8.022967602288041400e-01,-9.653478203066097052e+00
2.616240767955964053e+00,-8.023451690475863485e-01,-9.653279727353531570e+00
2.616668655480871575e+00,-8.024438529697930367e-01,-9.653689540438191941e+00
2.617325201156191827e+00,-8.030475348566773475e-01,-9.653193230749321785e+00
2.617624118750446094e+00,-8.029707271870515362e-01,-9.653019097730098252e+00
2.617933461465158373e+00,-8.032982016481279297e-01,-9.653070452045625416e+00
2.618272780881012451e+00,-8.035620585009739525e-01,-9.652222869901494917e+00
2.618794432992593624e+00,-8.035261928881616278e-01,-9.652298250324577111e+00
2.618830424093758769e+00,-8.039786708967602280e-01,-9.652668619676394002e+00
2.619223722090702644e+00,-8.039419104063074695e-01,-9.652352061258177685e+00
2.620198101808306035e+00,-8.041558757162874382e-01,-9.651745786153671958e+00
2.620480085345036958e+00,-8.041841015400573722e-01,-9.651474294120895081e+00
2.621052984461181179e+00,-8.046794650640217705e-01,-9.651562207385969927e+00
2.621843141903532182e+00,-8.047671835936409668e-01,-9.651439273756277970e+00
2.621888920444627846e+00,-8.051242430965123154e-01,-9.651305323079485632e+00
2.622115358886046188e+00,-8.050640455642704696e-01,-9.651742135696625979e+00
2.622809629897669748e+00,-8.049898103519993464e-01,-9.650798516222149459e+00
2.623396471711040512e+00,-8.056710862885575475e-01,-9.650632406809855013e+00
2.623565485375493278e+00,-8.060109679340482502e-01,-9.650391315696236205e+00
2.623831291648359709e+00,-8.060515259618064032e-01,-9.649805679974953421e+00
2.624154822205904125e+00,-8.061190884581613814e-01,-9.650765678763052691e+00
2.624695079741067971e+00,-8.063015367142277734e-01,-9.650308941588177092e+00
2.625083627443054013e+00,-8.062206036425776379e-01,-9.650226080401692386e+00
2.625635884721336577e+00,-8.065528318676463693e-01,-9.650095959726112227e+00
2.625826740860685682e+00,-8.068828267948394695e-01,-9.649816450186470718e+00
2.626481903763523196e+00,-8.071795058618245200e-01,-9.648737416577546355e+00
2.626641301388103589e+00,-8.071685698855860513e-01,-9.649278614397720943e+00
2.626921713223385080e+00,-8.072720025950894662e-01,-9.648782392294100063e+00
2.627331023717235148e+00,-8.072427546594588277e-01,-9.648708618800926118e+00
2.627890799188904225e+00,-8.079506975798820267e-01,-9.648702473355797338e+00
2.628201683516054210e+00,-8.078132436319586107e-01,-9.648446805932509918e+00
2.628469554179145629e+00,-8.080200668356454230e-01,-9.648530072820667769e+00
2.628980567187134465e+00,-8.080016646613641385e-01,-9.648386544973865497e+00
2.629141725368176363e+00,-8.082669841514735776e-01,-9.648599651027065960e+00
2.629745524105168819e+00,-8.086210273680529692e-01,-9.648061682407648831e+00
2.630274849486645916e+00,-8.087873984297225816e-01,-9.647686112264420188e+00
2.630777448177125333e+00,-8.089651013226244469e-01,-9.647122194662347994e+00
2.630840024327344207e+00,-8.091069175833044413e-01,-9.646831978193890933e+00
2.631144155908102356e+00,-8.092164631899501082e-01,-9.646941137122647447e+00
2.631334663428083864e+00,-8.094155049993275730e-01,-9.647826343359056978e+00
2.632180978341658761e+00,-8.095469424614261111e-01,-9.647019097503898521e+00
2.632545055596710259e+00,-8.098813903721598928e-01,-9.647233759479373560e+00
2.632922565989043839e+00,-8.097153602562756625e-01,-9.646888460137247989e+00
2.633117246663741362e+00,-8.101494724374237455e-01,-9.645964567699866876e+00
2.633501152501353637e+00,-8.102917998499553631e-01,-9.646301082460352561e+00
2.633945746522159403e+00,-8.107057398483268340e-01,-9.646383606532262789e+00
2.634108354330980895e+00,-8.105473018162739907e-01,-9.646436579332902994e+00
2.634155855468566898e+00,-8.107837720712199880e-01,-9.645716675434853116e+00
2.634923032695887457e+00,-8.109059397450532058e-01,-9.645899838007160554e+00
2.635229156481147417e+00,-8.112142713247301185e-01,-9.645319335082671586e+00
2.635606776993072220e+00,-8.118184407656270363e-01,-9.644839253066892937e+00
2.635711562369813965e+00,-8.116706920398799596e-01,-9.645068258013775875e+00
2.636175527291569232e+00,-8.115659392848743048e-01,-9.645337531621414939e+00
2.636301791135110761e+00,-8.116664649435882950e-01,-9.645105470719727236e+00
2.636817980415084861e+00,-8.120244124148979781e-01,-9.644391178914426987e+00
2.637147730275124058e+00,-8.121295900590500549e-01,-9.644643634232199503e+00
2.637597234522074618e+00,-8.121327767552298793e-01,-9.644695004721970832e+00
2.637900890815084942e+00,-8.125591637817162205e-01,-9.644127397674470359e+00
2.638087476427646738e+00,-8.124367167534908285e-01,-9.644080015869198164e+00
2.638368267552933411e+00,-8.124666022405087062e-01,-9.644528757509657879e+00
2.638615864996934679e+00,-8.128592153710861856e-01,-9.643937053925474956e+00
2.639131529490857275e+00,-8.128637389128117174e-01,-9.643685995225458996e+00
2.639383183026374979e+00,-8.131766641705377996e-01,-9.643648201760662175e+00
2.639942438198719099e+00,-8.130258454292722536e-01,-9.643491265560776071e+00
2.639988633916845906e+00,-8.133127910489585943e-01,-9.643890476616038043e+00
2.640458868651574864e+00,-8.134890725667690559e-01,-9.643057175043990625e+00
2.640931667906272207e+00,-8.139102814854207724e-01,-9.642540525435155274e+00
2.640704389108498695e+00,-8.134381141203033128e-01,-9.642828150947657662e+00
2.641218877162180068e+00,-8.141253388125245793e-01,-9.642516127659709113e+00
2.641557535884698549e+00,-8.140211892106056224e-01,-9.642125340171100234e+00
2.642118820117523637e+00,-8.141588369542894776e-01,-9.642341271848952289e+00
2.642370811905950578e+00,-8.144117780728898914e-01,-9.641993195147847473e+00
2.642689073078851703e+00,-8.144976030098659558e-01,-9.641918541994822789e+00
2.643079925090995097e+00,-8.148724725097630239e-01,-9.641917263889947520e+00
2.643301904005061154e+00,-8.149193825871805519e-01,-9.641431842368863414e+00
2.643474495332835517e+00,-8.148097161303785585e-01,-9.642120671177076829e+00
2.643699803124116343e+00,-8.151938103128136826e-01,-9.641102890269612757e+00
2.644253548517291108e+00,-8.153850520407411873e-01,-9.641254030884184090e+00
2.644527456161310575e+00,-8.151501998523065229e-01,-9.640948704128224023e+00
2.644625919166493588e+00,-8.157169677897075921e-01,-9.640491178660520077e+00
2.645048676326715142e+00,-8.153277945527386272e-01,-9.641340118398224135e+00
2.645456549577035243e+00,-8.161401164802475350e-01,-9.640929167962525526e+00
2.645458149820818949e+00,-8.162030531474945283e-01,-9.640631631245925703e+00
2.645856817070796119e+00,-8.160846820454048522e-01,-9.640155873160551891e+00
2.646145805059091138e+00,-8.162891622672823200e-01,-9.640619397236898536e+00
2.646486048684647319e+00,-8.161370069820240714e-01,-9.640020270192156460e+00
2.646754841172578310e+00,-8.162329281489879573e-01,-9.639675818110637451e+00
2.647137723345754257e+00,-8.165082379055660367e-01,-9.639745674037261125e+00
2.647342887807341061e+00,-8.168193944621895408e-01,-9.639751672549719430e+00
2.647528938838518808e+00,-8.166155004650259563e-01,-9.639540029481054262e+00
2.648195630870115114e+00,-8.172704087610429546e-01,-9.639643404318373854e+00
2.648193180387601764e+00,-8.170045410419957133e-01,-9.639132488361257245e+00
2.648694906117542214e+00,-8.175265807392452233e-01,-9.639886329930359210e+00
2.648644393925988716e+00,-8.173526490480728102e-01,-9.639557857972571142e+00
2.648868176585925660e+00,-8.174041039373096673e-01,-9.639564049293865011e+00
2.649310214524011275e+00,-8.176141004073670393e-01,-9.638738360926119242e+00
2.649740187892527299e+00,-8.176471508963688573e-01,-9.638776889522549851e+00
2.649997340787701550e+00,-8.176120544164203752e-01,-9.638481357322573828e+00
2.649895385689808425e+00,-8.180100804257224301e-01,-9.638067006233178802e+00
2.650262180828276470e+00,-8.181930649575084313e-01,-9.638635126446162715e+00
2.650814084671669235e+00,-8.181326144894734975e-01,-9.638776709817328481e+00
2.650837701195124296e+00,-8.185605257144319413e-01,-9.638170167221964846e+00
2.651373745936044468e+00,-8.183991808831991843e-01,-9.638063403529978146e+00
2.651241472322024784e+00,-8.185253005041848162e-01,-9.638435476991249473e+00
2.651715295033727049e+00,-8.190786461078530811e-01,-9.638452723952376289e+00
2.651868186995698817e+00,-8.186646181394328092e-01,-9.637182563880632102e+00
2.652259726183302746e+00,-8.189937500787685121e-01,-9.637558443737830771e+00
2.652090339226822469e+00,-8.189662603393776941e-01,-9.637524876910820382e+00
2.652789206542498945e+00,-8.190333399068869813e-01,-9.637361374170970052e+00
2.652875277592919190e+00,-8.193008822001849323e-01,-9.636743472730479709e+00
2.653242020386298083e+00,-8.196260713754763838e-01,-9.637158063172634570e+00
2.653242840375886757e+00,-8.191407370263432686e-01,-9.637627904393092138e+00
2.653813058822811488e+00,-8.194584592631476427e-01,-9.636878930705460533e+00
2.653861351999792895e+00,-8.200923715988457374e-01,-9.636682142352169578e+00
2.654039589788164122e+00,-8.195492219749076490e-01,-9.636470591472528824e+00
2.654180936350265974e+00,-8.201642729404091670e-01,-9.636532502474645767e+00
2.654915359866517832e+00,-8.198299966811890549e-01,-9.636397567965607536e+00
2.654852934167362566e+00,-8.202194459198820509e-01,-9.635809597072872990e+00
2.654884709413220190e+00,-8.206040786011776778e-01,-9.636867063554911184e+00
2.655565752610273833e+00,-8.202793013004012757e-01,-9.635571468289018782e+00
2.655653186985996506e+00,-8.205848672479050254e-01,-9.636272266948804344e+00
2.655841991279703773e+00,-8.207698593662606790e-01,-9.635378562392077129e+00
2.656311762914915775e+00,-8.209359323276816944e-01,-9.635452956867199603e+00
2.656026172283198594e+00,-8.208467293399780429e-01,-9.635482963910245502e+00
2.656675624261286561e+00,-8.209937668534009747e-01,-9.635181336296412269e+00
2.656937761495030692e+00,-8.213476694270600564e-01,-9.635019394797618375e+00
2.657128636997124538e+00,-8.210066692125296273e-01,-9.634681668842858926e+00
2.657348802187148529e+00,-8.210587496445789224e-01,-9.634917048186586896e+00
2.657619895831215828e+00,-8.210481796673072541e-01,-9.635587976959186562e+00
2.657713535779488989e+00,-8.217090220039585668e-01,-9.634669167349910524e+00
2.657805901890970990e+00,-8.217230251255347451e-01,-9.635146719899291057e+00
2.658216562080556233e+00,-8.215525497673091815e-01,-9.634545240478148642e+00
2.658396356681864248e+00,-8.216024190653763437e-01,-9.634208955380943351e+00
2.658310082334971902e+00,-8.218584847948411376e-01,-9.634650706721822999e+00
2.658773028094360669e+00,-8.218531036048384308e-01,-9.634227083890197108e+00
2.659183764724597943e+00,-8.219617635118070531e-01,-9.634149146305924560e+00
2.658996591602651893e+00,-8.221438257337176925e-01,-9.634165004473475236e+00
2.659956738222119199e+00,-8.219855545553507170e-01,-9.634069311273350422e+00
2.659777232774970912e+00,-8.222702359386150350e-01,-9.633621910673806354e+00
2.659617616221169545e+00,-8.222459145933582736e-01,-9.633493374080279281e+00
2.659716508229450493e+00,-8.226644690747447752e-01,-9.633526106366137043e+00
2.660002733674105002e+00,-8.225189210945046403e-01,-9.633899161065409444e+00
2.660528709043754159e+00,-8.228782341133148437e-01,-9.633687357525085204e+00
2.661061422659517728e+00,-8.227137980360552660e-01,-9.633305819902727052e+00
2.660894517345306465e+00,-8.231627277616515581e-01,-9.632837652599883782e+00
2.661373993353490786e+00,-8.228431088107299729e-01,-9.632991306235487272e+00
2.661655315877772043e+00,-8.232023132596083537e-01,-9.633084306284754206e+00
2.661532792848814388e+00,-8.229125306056676026e-01,-9.632469767925851301e+00
2.661519854854131673e+00,-8.234245510539979218e-01,-9.632863879254129458e+00
2.662025253164996830e+00,-8.234509951516745252e-01,-9.632971252718295574e+00
2.662319204135973560e+00,-8.237051066050806725e-01,-9.632232228205985791e+00
2.662456283295234982e+00,-8.237249973386775448e-01,-9.633013073746736765e+00
2.662716368977731118e+00,-8.239891388824903684e-01,-9.632446111894992669e+00
2.662765636701077909e+00,-8.238134381063634271e-01,-9.632409057706851740e+00
2.663045383449188286e+00,-8.240327041059614110e-01,-9.632245250451575203e+00
2.663381647154457355e+00,-8.241626427071393479e-01,-9.632298202759164596e+00
2.663311179194875589e+00,-8.239016342036897811e-01,-9.631698188597480836e+00
2.663657328569191574e+00,-8.241011227329612110e-01,-9.631788482407227292e+00
2.663852264915790524e+00,-8.243102978096119582e-01,-9.631411093427633574e+00
2.664153283113024351e+00,-8.244590856177063110e-01,-9.631993548698062568e+00
2.664075972413909810e+00,-8.244256863548453662e-01,-9.631496170645139188e+00
2.664373530531716217e+00,-8.243620179806737669e-01,-9.631498087397009300e+00
2.664614581457538378e+00,-8.245639474434591776e-01,-9.631763090709494435e+00
2.664543551571938007e+00,-8.247404462227029276e-01,-9.631482478737913411e+00
2.664749890234278329e+00,-8.249224967401741493e-01,-9.631608171286362818e+00
2.665074628641304955e+00,-8.247365542768795299e-01,-9.630900141734414888e+00
2.665388296238742516e+00,-8.249856023360172541e-01,-9.631421431290945634e+00
2.665373579682137617e+00,-8.251587413372893920e-01,-9.630782031826363720e+00
2.665677451537558529e+00,-8.251591935001010292e-01,-9.631232817476361063e+00
2.665793116665086782e+00,-8.253064314015974290e-01,-9.631002306189978768e+00
2.666227018517575154e+00,-8.252784518988828255e-01,-9.630865416951296609e+00
2.666352639774502542e+00,-8.254820755527930709e-01,-9.630900961411477113e+00
2.666384642550807982e+00,-8.253404239635743211e-01,-9.629806412752131450e+00
2.666579332830352644e+00,-8.258277040056682949e-01,-9.630780659928566578e+00
2.666894451619136852e+00,-8.255636655425740988e-01,-9.630966445371161200e+00
2.666566227266120581e+00,-8.255452322403327159e-01,-9.629863406786194346e+00
2.667086781122458117e+00,-8.257497533897539821e-01,-9.629780746103596911e+00
2.667645883663109618e+00,-8.257378879819512463e-01,-9.629992041628216981e+00
2.667395830076962682e+00,-8.260420972734254796e-01,-9.630503816141255058e+00
2.667506416762615462e+00,-8.256269464292018689e-01,-9.630049868358076637e+00
2.667953094950903825e+00,-8.258600128067044022e-01,-9.630116042137037979e+00
2.667517560024552647e+00,-8.262321593611513526e-01,-9.629400878295774291e+00
2.667967308657288594e+00,-8.264368446216712183e-01,-9.629863423561507929e+00
2.668449645443712992e+00,-8.265242097652730768e-01,-9.628981689460729854e+00
2.668397265721005773e+00,-8.262995422242307431e-01,-9.628925460238212608e+00
2.668971974985259177e+00,-8.263487799191355787e-01,-9.629065403365514086e+00
2.668972634087053653e+00,-8.265469279246410172e-01,-9.628877478714970906e+00
2.668977806314094980e+00,-8.264838929526622247e-01,-9.628996647682916077e+00
2.669314676445321943e+00,-8.266567113650783449e-01,-9.629357479835398692e+00
2.669721502173633354e+00,-8.266687722908547808e-01,-9.628930558495842007e+00
2.669672263830797920e+00,-8.266402860516872675e-01,-9.628998477759679986e+00
2.669686124153533235e+00,-8.269354265450431507e-01,-9.628917663396688198e+00
2.669815823266268318e+00,-8.265751454635691386e-01,-9.628654947537489406e+00
2.669957673513671637e+00,-8.273342007636756978e-01,-9.628150650041982672e+00
2.669974349205233022e+00,-8.270478624897896758e-01,-9.628676785616287148e+00
2.670425436700918365e+00,-8.270372493429734018e-01,-9.628694965555524732e+00
2.670670491136763580e+00,-8.273540899833292661e-01,-9.628328929305574491e+00
2.670658545517204274e+00,-8.275444169614741829e-01,-9.628414424594462062e+00
2.671068583944355979e+00,-8.275979583570562959e-01,-9.628289187668293891e+00
2.670937502780395434e+00,-8.275226294958344386e-01,-9.627708008387180882e+00
2.670933047619246992e+00,-8.277162819278782724e-01,-9.627770538726567295e+00
2.671300998624959622e+00,-8.275220767218668394e-01,-9.627877254415874830e+00
2.671583742152650043e+00,-8.275869363806862555e-01,-9.627300862051210828e+00
2.671344918817864400e+00,-8.274460585429170845e-01,-9.627445032114920309e+00
2.671789298982760297e+00,-8.276345119257866312e-01,-9.627631226475525494e+00
2.671518771951189475e+00,-8.277503115869091488e-01,-9.628248884454105649e+00
2.672020020986926259e+00,-8.280577556213474244e-01,-9.627394208157223687e+00
2.672322187589129427e+00,-8.279910017290103008e-01,-9.627603008491044889e+00
2.672681363304650226e+00,-8.278138276118106598e-01,-9.628097348131733568e+00
2.672472633396660857e+00,-8.281830000199761344e-01,-9.627763846627029665e+00
2.672719324852449230e+00,-8.283623117396765601e-01,-9.626828966852320590e+00
2.672757186788625283e+00,-8.285852653859616668e-01,-9.627060699107170549e+00
2.672981170999408906e+00,-8.283916790306654621e-01,-9.627524798091551261e+00
2.672776399533903557e+00,-8.284616357514927865e-01,-9.627075716633747504e+00
2.673379231584741333e+00,-8.286555612982801078e-01,-9.626876959991939486e+00
2.673500148223193040e+00,-8.286465561942245595e-01,-9.626925119811238218e+00
2.673400657403186553e+00,-8.285111115019389016e-01,-9.626153674179491304e+00
2.673577789360952472e+00,-8.289119857077432707e-01,-9.626298897229371931e+00
2.673819925961987032e+00,-8.290313307165870782e-01,-9.626969042375613128e+00
2.673918852097981524e+00,-8.286240909769069241e-01,-9.626364841213936430e+00
2.673730042631432102e+00,-8.289625350468189380e-01,-9.626006202862798844e+00
2.674496251615746889e+00,2.074585946586433027e-01,-8.664189801125615986e+00
2.675106742251299963e+00,2.443769922266157135e-01,-8.698824108738602234e+00
2.675774730751954600e+00,2.826772102202576020e-01,-8.730628959161506941e+00
2.676917774910958059e+00,3.218662115329605777e-01,-8.760056632830648837e+00
2.678514180444770520e+00,3.617813226107240432e-01,-8.786644012773130896e+00
2.680113720381039677e+00,4.026566320035356306e-01,-8.811110557075314986e+00
2.682437904498486514e+00,4.447448284393229478e-01,-8.834285383319112839e+00
2.684644310234300502e+00,4.875174079169469765e-01,-8.853485025351503168e+00
2.686464221514273110e+00,5.309431706040451671e-01,-8.873332576582894760e+00
2.688760186433056365e+00,5.757348400964336088e-01,-8.890765939715631561e+00
2.691450154778271209e+00,6.207763351001149843e-01,-8.906856033094722846e+00
2.694176831062389255e+00,6.670619953177471251e-01,-8.921486721310300183e+00
2.696538729612067975e+00,7.137308123605003995e-01,-8.935964214672006634e+00
2.699289567029809600e+00,7.618776605637082033e-01,-8.948954263477011395e+00
2.701660147625636998e+00,8.103738196149263828e-01,-8.960953521565283353e+00
2.703896671619094860e+00,8.594544147447195082e-01,-8.972119975257372815e+00
2.706495890585359998e+00,9.097198740289633712e-01,-8.982555545071301495e+00
2.709072029085578759e+00,9.601488798837850558e-01,-8.992600663981999531e+00
2.711713995622206053e+00,1.011826782743368458e+00,-9.001406822150164189e+00
2.714059862477375518e+00,1.063954377914697158e+00,-9.010420564129688614e+00
2.716254995494755686e+00,1.116233514042225927e+00,-9.017721199645132302e+00
2.718552997988352260e+00,1.168858568056084790e+00,-9.025784576135121640e+00
2.720488841739781005e+00,1.222051183497986138e+00,-9.032286297345049064e+00
2.722861175451760207e+00,1.275943055296259177e+00,-9.038136417719897509e+00
2.724835818202474336e+00,1.329638315067485976e+00,-9.044288735431861070e+00
2.726833979396190433e+00,1.383840157003323634e+00,-9.049913020287576160e+00
2.728855375000327044e+00,1.438329621558467997e+00,-9.054797113919008211e+00
2.730407002673128414e+00,1.493168205878446786e+00,-9.060228821240560393e+00
2.732401132941778332e+00,1.547930079488085475e+00,-9.064211817006087912e+00
2.734283722730189048e+00,1.603153688865214921e+00,-9.067864472565572598e+00
2.735330373568819251e+00,1.658646061774798453e+00,-9.072407623471521632e+00
2.736997868639055476e+00,1.714188814667209293e+00,-9.075154053171814894e+00
2.737930758271710285e+00,1.769496795797227406e+00,-9.078991770224451585e+00
2.739428540301025450e+00,1.825454313013266772e+00,-9.082024323717037717e+00
2.740465983383426618e+00,1.881695001131902689e+00,-9.084533786225758689e+00
2.741393037732127169e+00,1.937435958378993073e+00,-9.086395836664367565e+00
2.742024716150790464e+00,1.993792031431868006e+00,-9.088955305505988846e+00
2.742974018406482806e+00,2.049966948226693120e+00,-9.090351105193446912e+00
2.743679819930803454e+00,2.106659794027474941e+00,-9.092427200712771551e+00
2.743952910941037437e+00,2.162557479578045783e+00,-9.094706557982034312e+00
2.743961114415189861e+00,2.219481117435342821e+00,-9.095016502232500244e+00
2.744427928937636540e+00,2.276089143897367606e+00,-9.096863198191687871e+00
2.744478050742637620e+00,2.332457153385631088e+00,-9.098210280855489884e+00
2.744846764588660282e+00,2.389623752660693601e+00,-9.099496243085081204e+00
2.744297838601160500e+00,2.446611955639671265e+00,-9.099973277640387437e+00
2.744018913702817919e+00,2.503695260600775629e+00,-9.101157598214797417e+00
2.744018372583644449e+00,2.560536861942410258e+00,-9.101242437402387253e+00
2.743314536485572219e+00,2.617790951948179679e+00,-9.101462331004526618e+00
2.742696287396450661e+00,2.674721393726467333e+00,-9.101739837059003690e+00
2.741880160477637940e+00,2.731912554596910514e+00,-9.102597346828677161e+00
2.741278230783026348e+00,2.789064144393096800e+00,-9.103059553793816150e+00
2.740080623389353764e+00,2.846618015271507485e+00,-9.102262249163121766e+00
2.738784239613974769e+00,2.904193224371707238e+00,-9.102280778599304512e+00
2.737774717584315898e+00,2.961196167815812519e+00,-9.102079710937607260e+00
2.736088263523733577e+00,3.018729860257237885e+00,-9.102177944352147776e+00
2.734419224658736880e+00,3.076436650404173356e+00,-9.101702628163065967e+00
2.733126476100885327e+00,3.134195961021364329e+00,-9.101303448860457834e+00
2.731378510310216612e+00,3.191577738408702292e+00,-9.100663257453108557e+00
2.729820357908485207e+00,3.249379689635400137e+00,-9.100184891437633539e+00
2.727451397091354313e+00,3.306750265824095703e+00,-9.098998553303452752e+00
2.725379032502034615e+00,3.362296714574017020e+00,-9.097580578640661386e+00
2.723606380816287587e+00,3.412023809690090115e+00,-9.095906620346772442e+00
2.722184642490053541e+00,3.457126021326225374e+00,-9.095085933853061633e+00
2.720692155467941298e+00,3.497679448550143011e+00,-9.093521467483091314e+00
2.719818438042513886e+00,3.534690795214545211e+00,-9.092161832798455023e+00
2.718959586400888195e+00,3.567825876217913805e+00,-9.089072368407618896e+00
2.718081640687890932e+00,3.597641980135200424e+00,-9.086286228997254355e+00
2.717358641024474331e+00,3.625272222913711317e+00,-9.084315042435402887e+00
2.716696360660810772e+00,3.649472810641874787e+00,-9.081364437710210069e+00
2.716450386457291533e+00,3.671511091865743204e+00,-9.078362673037618791e+00
2.716482982894686149e+00,3.691016185419832674e+00,-9.075825875748217086e+00
2.716093807587799613e+00,3.709266744669941662e+00,-9.073186220701993321e+00
2.716219279742498660e+00,3.725221273010701051e+00,-9.070084472504206019e+00
2.716493591423466025e+00,3.739388216509639040e+00,-9.066978836047331569e+00
2.716417525707271796e+00,3.752544956294360023e+00,-9.063244230468843199e+00
2.716569676840641545e+00,3.764282330924149544e+00,-9.060494427779140381e+00
2.716738382879632763e+00,3.774640979668446139e+00,-9.057339261322178814e+00
2.717539514165216552e+00,3.783790283407511890e+00,-9.053717077514477296e+00
2.717858508182533495e+00,3.792079261905843435e+00,-9.050738891952581966e+00
2.718457923414213884e+00,3.799311807267518937e+00,-9.047634370270889903e+00
2.719587363378776601e+00,3.805743244635828137e+00,-9.044534865291552705e+00
2.720007879992592414e+00,3.811466230180443837e+00,-9.041542434080112045e+00
2.720890073984806978e+00,3.816729941206608689e+00,-9.037774741978994442e+00
2.721114888638843876e+00,3.821162377617820738e+00,-9.033736705328601957e+00
2.722134833718635516e+00,3.825093627886575032e+00,-9.031244846105847657e+00
2.722694875610415899e+00,3.828034806483840313e+00,-9.028018142946992342e+00
2.723833754920748529e+00,3.831322380355807411e+00,-9.024692526695332617e+00
2.724796143044414531e+00,3.833765763500023738e+00,-9.021235987764812947e+00
2.725297908751124876e+00,3.835524597204555519e+00,-9.017772867047119334e+00
2.726413033643018569e+00,3.837328307991894061e+00,-9.014502115428998152e+00
2.727361529975808718e+00,3.838990293306851154e+00,-9.010355616515651533e+00
2.728694619962513279e+00,3.840278963829718784e+00,-9.008472712253187353e+00
2.729761679004678143e+00,3.840767552163594001e+00,-9.004799138594529850e+00
2.730711535165718740e+00,3.841388091736329446e+00,-9.000862837013910323e+00
2.731885249846876196e+00,3.842236093075356518e+00,-8.998292518853304500e+00
2.733082467023858708e+00,3.842215147325418911e+00,-8.994715725793295036e+00
2.734320211231171083e+00,3.842302193034211832e+00,-8.991927243143218007e+00
2.735354842619206028e+00,3.841878983290480054e+00,-8.988490094748367909e+00
2.736599947558074231e+00,3.841686718032696124e+00,-8.984937081971942519e+00
2.737546888318885152e+00,3.841087661741583226e+00,-8.981886311789086363e+00
2.738787389183502174e+00,3.840436230349872915e+00,-8.978835176857440814e+00
2.740010786372037543e+00,3.839916876715601557e+00,-8.975542539777226381e+00
2.741005036089780855e+00,3.839138300421946592e+00,-8.972494828505329423e+00
2.742395114841854387e+00,3.838476724778429272e+00,-8.969980144878620720e+00
2.743236599716757596e+00,3.837309707217097632e+00,-8.966608704211230574e+00
2.745036813998164682e+00,3.836147424917815574e+00,-8.963203984863682194e+00
2.746002101942105700e+00,3.835021118193735035e+00,-8.959871774434722269e+00
2.747603270993706825e+00,3.833717430036297280e+00,-8.956813927388676433e+00
2.748794414889709881e+00,3.832552218834959668e+00,-8.954059313088350791e+00
2.750082784267779079e+00,3.831173917340384705e+00,-8.951075476894125416e+00
2.751304991339012851e+00,3.829855943342192592e+00,-8.948549143601342237e+00
2.752369370423433548e+00,3.828523668763320398e+00,-8.945269180685919252e+00
2.754045902206160523e+00,3.826771782403123101e+00,-8.941317864776189950e+00
2.755349958647705932e+00,3.825247524642412689e+00,-8.939116778515465711e+00
2.756549221169969144e+00,3.823352829086593019e+00,-8.935851787727068896e+00
2.757746417011983198e+00,3.822036786003115250e+00,-8.933574911011790576e+00
2.759273776880961204e+00,3.819974638733737660e+00,-8.930482528398353992e+00
2.760537620977753015e+00,3.818680770953159165e+00,-8.927716129584130300e+00
2.762030509049499649e+00,3.816521851294806478e+00,-8.925153029202189003e+00
2.763576417064561586e+00,3.814913387325664651e+00,-8.921343793857662519e+00
2.765130604148215543e+00,3.813164168524595166e+00,-8.918762275844049014e+00
2.766297639141903186e+00,3.811075052417172149e+00,-8.916222083284900179e+00
2.767694917130284704e+00,3.809385979103783626e+00,-8.913157639361042328e+00
2.768763633708698713e+00,3.807711709901968611e+00,-8.910742847012944168e+00
2.770546974270611251e+00,3.805725682123291431e+00,-8.908011238501712725e+00
2.771685890207389757e+00,3.803991533050956164e+00,-8.904603905263829944e+00
2.772976245754798619e+00,3.801569724836292075e+00,-8.902677792163551374e+00
2.774747358104228123e+00,3.799622523400101759e+00,-8.899994755658321210e+00
2.775978875927272327e+00,3.798218922767334416e+00,-8.896733647961537983e+00
2.777000516540451880e+00,3.795899408566501876e+00,-8.894315386156165459e+00
2.778850972455636725e+00,3.794252455745073416e+00,-8.891430506603073880e+00
2.780229924444230338e+00,3.791625213964421537e+00,-8.889018195321533256e+00
2.781359173356308112e+00,3.790030998275094820e+00,-8.886718799234454735e+00
2.783125670309098965e+00,3.787909932341067432e+00,-8.883105993747793860e+00
2.784589231618701533e+00,3.785568757682067798e+00,-8.880927842266020278e+00
2.785949537846106328e+00,3.783436563175541334e+00,-8.878254380799136314e+00
2.787157643700330922e+00,3.781534730425874180e+00,-8.875581610676473332e+00
2.788933658890880629e+00,3.779174725739699259e+00,-8.873080291744157577e+00
2.790144159517672140e+00,3.777312583078829444e+00,-8.871104346634991700e+00
2.791969629109235296e+00,3.774813515444914724e+00,-8.868362900158903273e+00
2.792806622873724276e+00,3.772939541278171216e+00,-8.865894053821911314e+00
2.794583513367615790e+00,3.770875242758886969e+00,-8.863138207248450584e+00
2.796457591655237884e+00,3.768302871321051573e+00,-8.860672894983741443e+00
2.797271991891056686e+00,3.766532207778042540e+00,-8.858484115862417241e+00
2.799040237769959472e+00,3.764068674778790591e+00,-8.855517371812331007e+00
2.800689734793503138e+00,3.762097758126472957e+00,-8.853411823791759616e+00
2.801966744997394176e+00,3.759793253284789305e+00,-8.851195182535574801e+00
2.803662289089226434e+00,3.757604151389954961e+00,-8.848483014671547409e+00
2.805126839066744981e+00,3.755317846734798959e+00,-8.846493859316836961e+00
2.806423114605986147e+00,3.752857115309867986e+00,-8.843765998255966210e+00
2.808076160467417814e+00,3.750683151096457557e+00,-8.841529562269688114e+00
2.809391340340499088e+00,3.748599652655006498e+00,-8.838300142005097726e+00
2.810929955271108227e+00,3.746134598267063520e+00,-8.836726357395216169e+00
2.812471862140494494e+00,3.743955406753231241e+00,-8.834585221921354758e+00
2.814189407656135344e+00,3.741559283654264156e+00,-8.832203045672278208e+00
2.815310043539602347e+00,3.739443550469372379e+00,-8.830283868003695247e+00
2.817185758009128627e+00,3.737130154026657269e+00,-8.827130357205779987e+00
2.818551321035300372e+00,3.734776045663806165e+00,-8.825255465584980641e+00
2.820433066629605356e+00,3.732408337350497707e+00,-8.822209010042694644e+00
2.821947866075074529e+00,3.730166844369374957e+00,-8.820581187288755842e+00
2.823047664027465320e+00,3.727879743311975247e+00,-8.818768697757024100e+00
2.824974741105703124e+00,3.725422771518366982e+00,-8.816138060612191296e+00
2.825895064636322562e+00,3.723033280086264440e+00,-8.814261196972134726e+00
2.827662924822750945e+00,3.720649638724915054e+00,-8.811839404273248633e+00
2.828932939127545065e+00,3.718350439972487820e+00,-8.809475873263938439e+00
2.830776446960951098e+00,3.716193451733579955e+00,-8.807234730885758367e+00
2.832452515582766228e+00,3.713919590792673642e+00,-8.804547033099755282e+00
2.833705524401122222e+00,3.710907685974424552e+00,-8.803563367332607470e+00
2.835217233900681588e+00,3.708926296228082897e+00,-8.800780124286744055e+00
2.837144199280690948e+00,3.706764448038665449e+00,-8.798526342410083245e+00
2.838326268391666130e+00,3.704013457865234837e+00,-8.796559247423591188e+00
2.839843611532012702e+00,3.701661472975843914e+00,-8.794714310106039434e+00
2.841482681500798524e+00,3.699349461504672920e+00,-8.792607010422933911e+00
2.843079509990100284e+00,3.696870864632155307e+00,-8.790712731827534654e+00
2.844406114717950462e+00,3.694440644114062255e+00,-8.787736576971481028e+00
2.846106855475375674e+00,3.692310699242067784e+00,-8.785544745464495264e+00
2.848018527352850437e+00,3.689863889190903468e+00,-8.784059775483100907e+00
2.849224459699440715e+00,3.687414418842412722e+00,-8.781678103643885791e+00
2.850739039956265763e+00,3.684846587809250007e+00,-8.780381397209877647e+00
2.852142001178827435e+00,3.682570111106306943e+00,-8.777441996827146653e+00
2.854284183888932347e+00,3.680237555018676332e+00,-8.776347462895708773e+00
2.855576261874055888e+00,3.677886298254627651e+00,-8.774189563362400079e+00
2.857095623480116586e+00,3.675516128551881589e+00,-8.771803992939927852e+00
2.858608403920148255e+00,3.672584692021154229e+00,-8.769319768418483818e+00
2.860006494185898251e+00,3.670529610378787222e+00,-8.767615734587225873e+00
2.861657156018799775e+00,3.667691629657653163e+00,-8.765491873433662207e+00
2.863109326534166499e+00,3.665268814580258550e+00,-8.764158170410532023e+00
2.864864505500344993e+00,3.663082782829470752e+00,-8.761559501884324419e+00
2.866383816901320269e+00,3.660663072544705354e+00,-8.759846187444418675e+00
2.867955745239599175e+00,3.658026207491010595e+00,-8.757631338140773991e+00
2.869667785289677475e+00,3.655481072054332259e+00,-8.756177596050468637e+00
2.871105033829916664e+00,3.653348665097909453e+00,-8.754163979504532733e+00
2.872802037071537473e+00,3.650625369150926058e+00,-8.752818174534811035e+00
2.874270967380484265e+00,3.648115209327349451e+00,-8.749993188910579534e+00
2.875447937076437199e+00,3.645573084582427903e+00,-8.748699436609117086e+00
2.877215761555171003e+00,3.643305723679862052e+00,-8.747267922236693138e+00
2.878835132582044931e+00,3.641076189015158171e+00,-8.744395264690995262e+00
2.880587219527477760e+00,3.638383171122370641e+00,-8.742348782246994077e+00
2.882142739100121975e+00,3.635809598536883680e+00,-8.741235942209188536e+00
2.883913565936305989e+00,3.633436137478653016e+00,-8.739431862825561836e+00
2.885107712640038180e+00,3.631311819034158006e+00,-9.737418343403065890e+00
2.886472715895635588e+00,3.627410723048301922e+00,-9.734894678553555281e+00
2.888038803639239038e+00,3.623831580537037134e+00,-9.733573892709593167e+00
2.890133068404342698e+00,3.620818026479762253e+00,-9.732444202129514110e+00
2.891692874216987175e+00,3.617495409970608478e+00,-9.730033191661508596e+00
2.892784429037129179e+00,3.614386934451364386e+00,-9.728389871351300400e+00
2.894743769403811839e+00,3.610585559363261421e+00,-9.726980528624048716e+00
2.896128713382580155e+00,3.607258431707333290e+00,-9.725366351267117793e+00
2.897579619307326215e+00,3.604058276313641951e+00,-9.723375854732532630e+00
2.899120973774721222e+00,3.600728511151230826e+00,-9.721464181847130348e+00
2.900574050631233192e+00,3.597050668396994055e+00,-9.719630163042509707e+00
2.902376350168954566e+00,3.594193393662220792e+00,-9.718089685992941540e+00
2.903827491906607605e+00,3.590441118391372921e+00,-9.716277032032722971e+00
2.905165912066177025e+00,3.587585378853141549e+00,-9.714206438933551624e+00
2.907170160972263329e+00,3.584294807294547081e+00,-9.712568906240935718e+00
2.908559918866351790e+00,3.580748706757250766e+00,-9.711011055010368764e+00
2.909969554663396796e+00,3.577624364561957204e+00,-9.709570332180625485e+00
2.911665167162274859e+00,3.574522501660841289e+00,-9.707601639079713962e+00
2.913499783280457667e+00,3.570677314481748521e+00,-9.706355181240288843e+00
2.914774693058189481e+00,3.567447913859894459e+00,-9.704013621240635601e+00
2.916866033853174223e+00,3.564376011318015625e+00,-9.703358814660662190e+00
2.918134459068577158e+00,3.561138554560567382e+00,-9.700776991271050420e+00
2.919611500667908643e+00,3.558290506688216226e+00,-9.699315036075756069e+00
2.921309952600917637e+00,3.554717592154887473e+00,-9.698324714055633677e+00
2.922858759615246438e+00,3.551511502733595282e+00,-9.696017828464540855e+00
2.924228011386369896e+00,3.548541122115184354e+00,-9.694976370551291467e+00
2.925954146116269250e+00,3.545064360457603314e+00,-9.692729790891664976e+00
2.927430330532783120e+00,3.541901003753182842e+00,-9.691982668027897319e+00
2.929081002310808479e+00,3.538788530272532373e+00,-9.689536201712122931e+00
2.931135856673706908e+00,3.535894894844886061e+00,-9.687423183327679155e+00
2.932210897106509950e+00,3.532228886366301612e+00,-9.686241526408755576e+00
2.933548723952503767e+00,3.529303460321146169e+00,-9.684628227448824234e+00
2.935256603414242438e+00,3.526208348574136231e+00,-9.683872697192857260e+00
2.937289570956300722e+00,3.522786931982017311e+00,-9.682534264509564892e+00
2.938607316937260183e+00,3.519622621252089800e+00,-9.680709009528067455e+00
2.940031050435436111e+00,3.516846796793658747e+00,-9.679526580192696628e+00
2.942164153020191630e+00,3.513693999576598337e+00,-9.677513261385712440e+00
2.943579556849372558e+00,3.510462849316881684e+00,-9.675795817489706963e+00
2.945078638940854088e+00,3.507253720906061023e+00,-9.674555825075033866e+00
2.946657459315946248e+00,3.504029784756962584e+00,-9.672942317687322600e+00
2.948457983405114557e+00,3.501198235550575966e+00,-9.672126093278137660e+00
2.949789917559632269e+00,3.498446544650937629e+00,-9.669967951128114692e+00
2.951323700076462497e+00,3.495375576188104905e+00,-9.668517036847690704e+00
2.952989413271313701e+00,3.491839083489428841e+00,-9.666743498342988516e+00
2.954388345842289265e+00,3.489168177732072440e+00,-9.665441047227337990e+00
2.955753288593411021e+00,3.485960888461929308e+00,-9.663828799079871246e+00
2.958107420703818935e+00,3.482986269651877631e+00,-9.662497495516236157e+00
2.959329431175520053e+00,3.480270235773288867e+00,-9.660963248725101593e+00
2.960711446694966220e+00,3.476760065507182418e+00,-9.659571915260199759e+00
2.962533285226339075e+00,3.473988974071184899e+00,-9.658541191069474507e+00
2.964063777996353455e+00,3.470754562523510778e+00,-9.657049726768850206e+00
2.965484798726763405e+00,3.467773523259232604e+00,-9.655488513735290823e+00
2.967347020206545505e+00,3.464789898014366099e+00,-9.653849037755938056e+00
2.969070896062505405e+00,3.461806538486740248e+00,-9.652891807761362131e+00
2.970328423121900041e+00,3.458983454483567144e+00,-9.651259474544620076e+00
2.972467050043466674e+00,3.455946252922990958e+00,-9.650040204579596548e+00
2.973854188753922934e+00,3.453247502129081603e+00,-9.648527768166720975e+00
2.975266558877215139e+00,3.450224368784568174e+00,-9.647563379746046053e+00
2.976969297888173660e+00,3.446897745102031063e+00,-9.645758333500650039e+00
2.978723504618677076e+00,3.444002317993009932e+00,-9.644112634287511199e+00
2.979985516846257454e+00,3.441310014545795770e+00,-9.643346638498847767e+00
