gyro_x (deg/s),gyro_y (deg/s),gyro_z (deg/s)
9.815905212059055415e-04,3.186743166700845530e-03,1.675638629679147926e-03
-3.112586080542400525e-03,4.137516753381528106e-03,-4.317065372583914380e-03
1.576292511075928510e-03,1.776852113441411201e-03,1.412789673506099322e-04
-1.020304797355160720e-03,-3.446987143144958441e-03,-1.260320981728870826e-03
4.363178416667006995e-03,-1.211812124301378697e-03,-1.418727662154119348e-03
-3.383665846633048067e-03,-1.567757932722343072e-03,-7.741923639408576380e-04
-2.153510346503929255e-03,1.653432376356402025e-03,1.053516019718106489e-03
-1.427523043175380575e-03,3.141308221242534294e-05,-1.098256512407650744e-03
1.124507736602306128e-03,-3.012948389284959404e-03,-1.965698830404045538e-03
-2.344923662294224026e-04,-1.083299824209029392e-03,-4.334804935313646239e-03
-2.717747756167005705e-03,-3.092669356256809248e-04,1.151688863038544597e-03
4.214648458345660563e-03,1.416261993169348450e-03,3.506197406877865561e-03
1.592251542665460134e-03,-4.033119350490765691e-03,3.018473577143898461e-03
3.658658884956950889e-04,-2.896758013413074182e-03,6.024061176058828149e-04
-1.753584031985191060e-03,-1.893662922098111575e-03,1.718411838453352738e-03
7.164814021154835297e-04,3.414118510226687997e-03,1.602687830851846516e-03
4.588355331471229495e-03,1.920280633091227783e-03,-2.694171362876555172e-03
-2.026872840012937122e-03,3.263305162923161706e-03,-2.902418650198206398e-04
-3.006239333006671243e-03,3.258041604177925286e-03,3.239846120247419445e-03
-1.111305309683494492e-03,-2.648502969452775930e-03,-4.672184841572938306e-03
2.487752007693888687e-03,2.999348961114218365e-03,-2.439759951443139663e-03
-1.250583422572602551e-03,-6.604565010720089922e-04,2.338405436960506838e-03
2.010313056493785895e-03,1.755350112524829437e-03,8.170645981063185369e-04
5.412135746211885028e-03,-2.806204181844236360e-03,4.599224526544811939e-03
-1.360361245204817207e-03,-1.169429633765417141e-03,-1.704138651843483277e-03
4.494468079402745174e-04,-3.452181316234894520e-03,3.986542463439921567e-04
2.213851910950937916e-04,3.423899228505112614e-03,8.002386853199650475e-04
3.406561965426140731e-03,1.323674800538624701e-03,1.511464856761111399e-03
9.330173479352957700e-04,2.374426345292245544e-03,-1.114667790903141114e-03
5.728729731966868523e-04,-8.558204011828566583e-04,-1.808046340923906512e-03
1.825058271982536598e-03,-1.213359179232662574e-03,-4.087493360375228668e-04
-3.079164011311934148e-03,2.278235056075331860e-03,4.146538932463813588e-03
-2.060563736114237338e-03,1.625315850899144120e-03,5.463573371710292968e-04
3.813825152252920628e-03,3.054856499040055264e-03,-3.861206234227166582e-03
-4.619977980215381023e-03,2.369634644516301243e-03,-3.733671082063404721e-03
3.199988177969629016e-03,1.744191668558565467e-03,-1.462630617265118279e-03
3.421094826170867787e-03,1.652286111433062853e-03,-2.555387471881883504e-03
-8.062841918040557047e-05,8.461903144432829631e-04,6.810763289544857714e-05
2.576074105859836334e-03,2.635793304004322574e-03,1.707843028596242249e-03
5.570314144865579423e-03,-2.180302112047708633e-03,-2.328496053340902219e-03
-5.342782000967299071e-03,-2.429408570417809971e-04,-6.363293382912579149e-03
-2.862569548747064853e-03,2.130187670365480540e-03,-3.106334064295813123e-03
3.484029432358378732e-03,-4.059363464521390831e-04,2.776488806045521694e-03
3.990116653027602086e-04,-2.609635830960496932e-03,-4.346672731639421999e-03
2.776586707713438792e-03,-3.344060301470369763e-03,1.043039478295200049e-03
-6.603466482915815736e-04,1.051462178841755245e-05,4.703589170343237119e-03
3.694129769075052546e-04,3.462491730592813944e-03,3.759334552298606181e-03
-1.252711380449482350e-03,-3.032669159329974551e-03,4.115471839233373653e-03
-2.503307015366738018e-03,-4.691592621250554977e-03,3.461851071350887168e-04
-3.945007341792232045e-03,-3.044322228677198185e-03,-4.275768477948339863e-03
-1.209426747125185711e-03,9.940205851503474202e-04,-4.807336241937495915e-04
-3.346652719983855828e-03,-3.121700744959321483e-03,-2.144414138769205305e-04
1.470022367205299019e-03,6.112219921755891999e-04,-9.839333675565121225e-04
-5.447413197673198031e-03,1.712149178882255412e-03,3.305689936411928143e-03
-8.074769591844914690e-05,-5.921538341005707241e-04,2.503505665983753441e-03
1.472505311847899755e-03,2.033601431091557315e-03,2.596992559537989625e-04
1.242505711913975122e-03,-2.319399728767647070e-04,-1.244514521924417697e-03
-1.589775025041323484e-03,-1.144071781590070826e-04,3.990344692887536245e-03
-2.870682800219920977e-03,-1.459061491290218301e-04,-3.682050676860897272e-03
3.799945689981409566e-04,8.241619023836654163e-04,-9.456138688719335902e-04
-4.401486068897029168e-03,-1.305081993795962226e-03,-3.215827331347304724e-03
2.638754929784374158e-03,2.502480772861160989e-04,-3.078580907702562451e-03
-2.671891700362197513e-03,-2.762514027663237354e-03,1.158427347642677083e-03
4.619997418371606275e-03,5.108699689809765698e-04,-2.685225821159143572e-03
1.628830696343422542e-03,2.070487292742740834e-03,4.548203513673111003e-04
-2.490599870728197034e-03,-7.454970462662140803e-04,2.608203861589464614e-03
2.767742601348991988e-03,-1.199748523989889503e-03,-3.066008208344888492e-03
1.783941623292226956e-04,2.715878928631417118e-03,1.388102721892700347e-03
8.009836063574572035e-04,-1.656366260978678437e-04,2.141259470004923827e-03
-1.079487147535857731e-03,1.330582319756085184e-03,3.907043940096612336e-04
-2.104145403898883496e-03,1.008470166319770916e-03,-2.220783360083396305e-03
1.431754598042573722e-03,-2.337911984299371419e-03,-1.760856931724511442e-03
-2.514820007417479901e-03,1.524978661582119133e-03,-5.977149136321692041e-05
3.436559572491413271e-03,2.339717205666397691e-05,-4.718142301685285950e-03
-2.094154407880552231e-03,1.446567042987652882e-03,3.007572361689279678e-03
2.416335942998410185e-03,-1.296260142219649719e-03,4.055104313678644821e-04
-1.083798094051867823e-03,1.169274949692938317e-03,1.782541466771424797e-03
1.391429673031780280e-03,-1.001404313342919763e-03,2.039945283306785623e-03
-1.427040647613247179e-03,3.744395409031373197e-03,2.519315704184613668e-03
1.029290912207693693e-03,-2.381018323081586160e-03,-5.296075808393255029e-03
9.916080354050095958e-04,3.357375689386375359e-03,1.837619383382607316e-03
-3.062040276283145047e-03,-3.549322019527691684e-03,8.075204223341294132e-04
3.458892415961346942e-04,-2.081675526745421865e-03,-2.548668210912589070e-03
1.407714720708318993e-03,1.696788396376791921e-03,-1.499845745438450201e-03
-3.045464811374765882e-03,-1.048703863836331030e-03,-1.016295943225501135e-03
7.052765723005956005e-04,-1.471728764517564328e-04,2.466391360000809831e-04
-4.656768278439194918e-04,8.313929076536647096e-04,-2.685445083489646032e-03
-3.290002931589437740e-03,1.319722901076909221e-03,-4.352855664956610700e-03
-9.388353451529415526e-04,2.300547731939159464e-03,3.521229586902291375e-03
-8.076239456243379912e-04,4.030513027197415001e-04,4.396703672886978520e-04
4.610074278395681104e-03,-4.162765332929582035e-03,-8.801028779569487976e-04
-2.114908589252519587e-03,5.974332620324417434e-03,5.683586751832792223e-04
4.062828478533456883e-03,-2.713142429512148054e-03,6.974658542652326402e-04
2.336968809308407214e-03,-2.305505570015418774e-03,7.069577035906096305e-04
3.413884209278311536e-03,-5.246637995724493485e-03,-5.983775257768957426e-03
-3.307729096601707674e-03,1.250800468247919867e-03,1.736940109005831239e-03
-3.665300839429896061e-03,3.925690472181473517e-03,9.752786504891176444e-04
-6.747446619977076447e-04,1.715982892018841398e-03,-2.742472897869958643e-03
1.886101678251971513e-04,-4.848552320877073940e-03,1.046068587208418921e-04
1.511256678221190898e-03,-6.708271705904944550e-04,3.210079341681903488e-03
2.502806749905427575e-04,3.957291596716945754e-03,4.092716079960476323e-03
4.525296716565635003e-04,-3.362364829421327257e-03,-2.225920439150481326e-03
1.392834562716376446e-03,-2.225529807134292524e-03,6.191364805385276247e-03
-2.346769362753252201e-03,-4.630464584049991247e-04,9.008660930025048441e-04
2.453086523594892859e-03,-9.173573811676725585e-04,-8.767437009292722294e-04
-2.339034160375607577e-03,-2.452502092629919427e-04,-1.077001022436020012e-03
-1.455696591567881733e-03,-5.335416950287565595e-04,-1.757297023197260631e-03
-5.965003219724059015e-04,-1.083176245449469707e-03,-2.647854492903118761e-03
-5.664343778068483409e-03,9.139436675674558102e-04,-8.731772480546640949e-04
-2.031001187482814590e-03,1.390262503739894380e-03,-5.885777766045286770e-05
1.638038794741198279e-03,-4.489943358478587672e-03,2.775122003668135332e-03
-8.870617046330005174e-05,4.942550764713900691e-04,1.015611646572639861e-03
4.347711810673278541e-05,-2.879710413945124874e-03,1.606254236529050083e-04
-3.096489903568324449e-04,2.999935464151697127e-03,-3.780531509367493232e-03
-1.641718566827686044e-03,3.674898490161244719e-04,-1.795579960444969704e-03
7.756097776824532860e-04,-2.210594378777692125e-03,-2.752762560175273099e-03
1.265616191732920346e-03,1.398491526085939105e-03,-6.105696488023973746e-04
-8.493349581185442301e-04,-5.496917647266897668e-03,-7.776072408596369605e-03
4.680167233682116026e-03,2.220165156104184339e-03,-1.509571295034092776e-03
5.705504163844902187e-03,-8.227821989687066203e-04,1.649149628273177985e-03
-1.883551744515984906e-03,-1.278268106876246724e-03,2.283536542727863158e-03
1.487073622436870055e-03,4.736435706949606271e-04,2.564348355809970177e-03
6.338098848840619665e-03,-3.290819468928880918e-03,-2.367857116531443037e-03
2.758449031772730337e-03,-7.349292241570473585e-04,-3.268806328269196083e-03
-1.185237315111796474e-03,-1.123680591166307911e-03,-1.267190579378735596e-03
-3.407636500905315835e-03,-5.862202100707413280e-04,3.775651718962165938e-03
1.143913253387770926e-03,1.903876455423056347e-03,1.220465744806072074e-03
-3.571163001344295580e-04,-1.131626331563725203e-03,-1.154736365214936158e-03
-7.995839095906023602e-04,3.251056000141019572e-03,-2.296002012536283633e-05
4.436591453150994305e-03,3.301955045232086170e-04,-1.712692070202660450e-04
-5.103326103619608596e-03,-3.453419019493602152e-03,-1.895220920497046185e-03
-3.415653333667622010e-03,-5.334856524825398868e-04,1.523164500985920312e-03
-1.794196794577606691e-03,2.792857248120261468e-03,6.337309549950222902e-04
3.852893115797659251e-05,-1.385405224339369707e-03,2.192728928952115822e-04
-1.314240781268294573e-03,8.018894116647549627e-03,-1.073748760657258555e-03
-2.949241650445297899e-03,2.891279001731397215e-04,-1.639490325415456475e-03
-1.371470727816065729e-03,8.473517159718303108e-04,2.468195868865329361e-03
-3.342142726605874196e-03,4.643298693020151162e-04,-1.646801928075907829e-03
-1.662656819151331821e-03,-1.960617800660360496e-04,1.129081724492326686e-03
-4.096064062018238590e-03,2.774262684027624685e-04,-3.967306162419417630e-03
1.076824572789600786e-03,4.199654346209942589e-04,2.657890364720239679e-04
2.111949536611503248e-05,-1.145600358613862871e-03,2.066900299846324840e-03
4.384632112721401943e-03,8.508882162515279176e-04,2.505906562961409279e-03
-1.107985487357351657e-03,-1.184964924402510857e-03,-4.041843131613991882e-04
5.273421733742295579e-04,1.258604749116898911e-03,-1.307463992497835681e-03
1.975317563611250857e-03,-5.901968418848808993e-04,4.108843775694466060e-04
-3.170945207736051985e-04,-2.580907392702981151e-03,-1.508081383781377212e-03
8.643021538308184783e-04,-1.732570816892635901e-03,-2.486151955378715622e-03
2.022986944086096952e-04,-1.031850537915932672e-03,-1.639293345085743401e-03
2.769551543707966974e-03,-8.989792937325375333e-05,2.894881566621254881e-03
3.255912291987240505e-03,-5.164861626590748364e-05,1.533566005114283008e-03
1.000474580941838150e-03,2.079630776374915158e-03,2.590946137909127915e-03
-1.591373092128819857e-03,1.579239563094416874e-03,1.932067184976947374e-03
-1.540794670183248801e-03,3.337739149800364978e-04,5.564734888985733551e-04
-3.373340891530842052e-03,-6.914535264371008023e-05,-4.179395208652137371e-04
1.801998490883525636e-03,3.200035535658227789e-03,-3.475473502565150710e-03
2.335854210698056280e-03,-2.543054769335198299e-03,-3.855009931019352278e-03
-2.171464562890244084e-03,-1.027222017589875654e-04,-2.952736070169223264e-04
2.382940043069467755e-03,1.944134855715024804e-03,-2.137985273524714938e-04
-1.409442551369719313e-03,-2.190335018919264878e-03,-2.670496326174309851e-03
7.082304378763059477e-05,-3.229635420641761671e-03,-2.460624938832555765e-03
-5.732753089802359280e-03,3.448350111555813289e-04,4.009569288775973774e-03
-5.698448024193631745e-04,1.647471540037491900e-03,2.597696232497667852e-03
-6.505727497331320001e-04,1.407114809848500651e-03,1.536094286863177961e-03
-4.147742055347673762e-03,-1.687636713061200534e-03,3.937632355474093675e-03
3.190582954115585984e-03,2.035688852729921467e-04,-5.602194577764198501e-05
-1.592378032338597925e-03,1.250506453371895118e-03,2.860723568540125480e-03
2.027002472210917474e-03,9.364665540926209088e-04,-1.323819657350797010e-03
1.339564362346838417e-03,-3.201862335911563953e-03,2.942870603041392204e-03
2.319014069261942854e-03,7.880328243686526932e-04,-2.126113498674655122e-04
-7.831135819702796878e-04,-3.381230741841379818e-03,-9.068884389178998636e-04
-7.721851612566019672e-03,1.990910208896582573e-03,8.894492322266097858e-03
-1.503163987921173539e-03,2.953476410432116697e-03,-3.430249691448662881e-04
-1.498233618201579844e-03,-1.161894689139763605e-03,3.202923879309790226e-03
4.622200364993680165e-03,3.888872361009080084e-03,2.232461200408763623e-03
-2.207878570414366273e-03,-3.649154650370974788e-04,-1.462493127345669856e-03
2.243286092584575574e-03,-4.100193711029017913e-04,1.502780535256663212e-03
-1.854050820484131473e-03,1.449036233490275409e-03,1.363267873518043743e-03
-5.333613422648074160e-04,-2.230379689128383046e-03,-1.129104995654967865e-04
1.654236146299213096e-03,1.727237186649029956e-03,-2.459799233539684913e-03
4.179407579837059877e-03,9.929810111218751074e-04,-3.123746353091116403e-03
-3.593049864823208124e-04,-2.091492489376596889e-03,-2.803722694592813633e-03
6.249517103467034426e-05,3.134470534165816925e-03,5.518255465573265609e-04
-2.720330931848396160e-03,7.216790166190889446e-04,3.085003491298398022e-04
3.727762511147860499e-03,1.051460056011651201e-03,1.679703105003551482e-03
1.075397962152816909e-03,-4.047467224878423080e-03,-2.731303617656434383e-04
-1.957664513820954119e-03,-1.913943148442915493e-03,-1.909339097962904847e-03
2.135803600821882184e-03,-8.328302494205079088e-04,-1.348962245471018286e-03
-1.361232964267559010e-03,7.602118066136299502e-04,-3.986120083101183167e-03
-1.306717053136192269e-03,-2.051736926876863206e-03,5.318681884872491702e-03
-1.951165487335234814e-03,5.101709071592187318e-04,2.481051666090727673e-04
2.515921479083396608e-03,-3.089226936638580535e-03,2.113392581093338502e-04
1.026125970741055158e-03,-1.727224929205729744e-04,1.143585465665710767e-03
-5.726856307336937587e-04,1.429475039376665486e-03,-6.500940172354973583e-04
-6.399486480940211504e-04,-1.889639063977741540e-03,2.171152480267236548e-03
-1.932609590609584522e-03,3.430751094882937124e-03,1.326916511697168177e-03
1.329340657392426338e-03,9.680751986515221969e-04,-6.116091525869589559e-04
-1.433215070090685262e-03,4.284429719384818397e-03,-2.525685958884555694e-03
-1.108651751910294005e-03,2.718461078196802907e-03,1.391781288186344718e-03
2.973735795648986720e-03,7.391940473890000430e-04,-1.001550510327806195e-03
-2.003776156214208751e-03,-1.319093665290212158e-03,3.023312460409157635e-03
2.580905443635236711e-03,4.681405970865566354e-03,1.653535760342009870e-03
2.373977451195772356e-03,5.076010842719103425e-03,3.970857113190950048e-03
-1.935815539549611388e-03,2.418563963063103534e-03,-1.942573834390331740e-03
1.604167051194078800e-03,-3.117349735014753216e-03,3.538890783247205423e-04
2.525520951965564385e-03,-2.667896387496869557e-03,1.089312435867139414e-04
-1.478415861943565201e-03,4.912883014457018749e-03,-2.319637842035112904e-03
-1.138017974866415956e-03,1.832274900205628845e-03,-2.468686521916224098e-03
-1.703883686950156918e-03,-4.241591565282074906e-03,-4.815459535404918441e-04
-3.066031777724160991e-03,1.640160901941786330e-04,2.718420540656908604e-03
-3.460428665310935452e-03,3.880607246098894195e-04,-2.820819639764126675e-03
-5.167202474728302321e-04,1.772104660689124544e-03,2.151956766482155097e-03
-1.636567218182716373e-04,6.719589896521323312e-04,1.231777011376297996e-03
-1.051329403248716472e-03,7.280023198576330559e-04,-1.808826334484650621e-03
-3.060007106562978173e-04,3.143537511367794531e-03,2.643330706005965003e-04
4.368595488607211405e-03,-4.528282237382261211e-03,4.854377863481602190e-03
-1.931923953031477407e-03,8.120513600917958399e-04,1.003835373166922073e-03
1.357266943015227306e-03,1.799560633175968432e-03,3.005488322640238481e-04
-2.907314300752053668e-05,7.339216117660369264e-04,1.947347416495157036e-03
-5.065289104716334291e-03,-5.161441530252554657e-03,1.947147567638755862e-03
-1.798371093564713483e-03,-6.071631600244446644e-05,-2.361490890476721817e-03
3.984259238959259042e-04,-2.928543181010889902e-03,-2.422073998208649701e-03
1.939924009439746716e-03,-5.552602477889319495e-03,-5.122534090418903036e-03
-8.500376890103527802e-04,1.316871130631097142e-03,-3.594179549804963139e-03
-2.273211967509265654e-03,-2.206074431668487285e-04,-1.286458452472520044e-03
-4.161993475168643698e-04,-3.203129631948782238e-03,1.269444824346206745e-03
2.434501518186428981e-04,1.242678007091539260e-03,1.620292060288207542e-03
-3.746738799859522799e-04,-1.260860262791820788e-03,-4.809899938659866273e-03
-3.089232637045670471e-03,2.142392784724757304e-03,-4.083163329909442652e-04
-2.275966049617818027e-03,5.359171475002552946e-04,-6.091795236579275810e-03
-4.816736682236725836e-04,3.179782708281918280e-03,-1.775936007780437847e-03
-2.802548759946782344e-04,-4.937105252649557317e-03,6.528050086795727375e-03
2.196720724370629114e-03,1.754979891895520156e-03,-2.508170962739751739e-03
-2.226551799482228040e-03,1.461976596948473105e-03,6.266870977153862939e-03
1.069056443046861003e-03,2.871066421554678994e-03,-2.593261603656006609e-03
-1.266607263505191731e-03,9.955103545883094672e-04,-5.272381693845123530e-04
-1.517389143227863011e-03,1.568265138713768447e-03,-1.204873682215076933e-03
-4.765365328140206552e-03,1.660868815166293214e-03,-1.629080421113211340e-03
5.559921697423993343e-03,4.914556518215869134e-03,4.741741536621887389e-03
9.739739337216298475e-05,1.915833427261573810e-03,-5.621538374298349836e-03
-4.218388274511294871e-07,-4.266826728439938182e-03,1.591026759424692778e-03
2.795372627284539811e-03,-5.689682855800373001e-03,-3.805264537942409410e-03
-4.099739050444505158e-03,-6.744895685960072482e-03,-1.198477511394540089e-03
-3.519025333021737634e-03,-3.387839369376821359e-03,4.976612185636538743e-04
6.366148671006349735e-04,2.138636613224398526e-03,-2.163591841597729143e-04
2.817559903075141439e-03,4.926717146541585018e-03,1.987556177848724594e-03
5.078202166862705704e-04,2.756665863725744729e-03,5.408194440438416272e-04
3.040297467520367003e-03,-8.961404423446172295e-04,4.720723313788944067e-03
1.922842156302777489e-03,-2.439829222712093634e-04,3.401492375796915280e-04
1.778461004966888290e-03,-3.595546032618814579e-03,4.584501352478008961e-03
-3.641503542355385790e-03,3.049362906281267169e-04,2.475218910536302122e-03
-7.080890353232557844e-04,9.759534763069849204e-07,3.237520497593050339e-03
1.884574318224321431e-03,-1.143652225050626131e-04,-6.094377357113460979e-03
2.113728456455289846e-03,-3.031497629533053042e-03,4.604560854900022898e-03
-1.518663767640625935e-03,2.218460710926181863e-03,1.800105517245235986e-03
-2.253671150821054381e-04,3.121403264592665944e-03,-5.035779765311207412e-03
-4.889257816070063239e-03,-7.294817076969077260e-03,-3.034582442158830244e-04
2.686117539455061803e-03,8.367281945162424305e-04,2.258059924359097272e-03
-3.721278779288566575e-03,5.542701437795631428e-05,-2.416906812212160725e-04
1.038613795521906892e-03,-2.370240850786331163e-03,1.955488695394031872e-03
-1.901480187663369100e-03,-3.413700941890761981e-03,-4.597396600611636935e-03
-1.920220956825985674e-03,9.719621657022265056e-04,-2.664748084105337048e-03
1.417101913463624224e-03,-5.387804019948039692e-04,-4.723672854329440574e-04
2.885988512305158720e-03,-1.938750541811695921e-03,-1.969780655110758903e-04
-6.224245713487166695e-03,-4.333611768821243448e-04,-3.216242423536138685e-03
2.384519765015834410e-03,2.567023660641536576e-03,2.084320091062991098e-03
4.601385971656235876e-03,-6.162342641237485326e-03,4.660539723991264510e-03
5.539596834940310396e-04,4.583496983717762034e-03,4.177573358085982054e-06
3.008181071426927269e-04,-8.205230233204766034e-04,-1.814560598724779825e-03
4.051863395200661425e-03,2.671460719836899356e-03,-1.664175138146678284e-03
1.588255422627181954e-03,-2.045572176218710039e-03,1.319710606419124098e-03
-2.813733309099316574e-03,-4.392615041935224712e-04,3.783314940421718224e-03
1.650814712463105453e-03,-3.078597216507574213e-03,1.413715019169244540e-05
-1.984867039796664196e-03,7.918495357178405997e-04,1.514285557926964157e-03
2.454096107174441425e-03,9.817388957669855552e-04,6.331084432124113896e-05
-7.302594587399177184e-04,-2.404633104269524643e-03,-3.005724733754312826e-04
-1.463751963412939601e-03,-2.422611763983231140e-03,3.490995157969526558e-03
1.321712772110338833e-03,3.189339259267258506e-03,3.682037222689626813e-04
-1.570860613573641642e-03,-1.496750740493740144e-03,-4.668594489444367174e-04
2.728419735012847618e-03,2.655747386334087086e-03,-5.350425212169164849e-03
-4.137057643850436048e-03,-9.940141789921486722e-04,-7.041195036640161050e-04
1.255916745546372835e-03,3.531094307682055428e-03,-1.240022787664426650e-03
-8.949688251473905199e-04,-2.842857822731636574e-03,-5.684339343051164790e-04
-8.309911224597732243e-04,-8.862699413166812536e-04,-2.311774374399210800e-03
3.196848044199354644e-03,9.687916928063018988e-04,-2.970127353251745487e-03
3.196116759301635170e-03,3.810808570719048790e-04,-1.238131720911358341e-03
3.653281601769493153e-03,-1.745294272555351000e-03,1.140289296594903428e-03
2.309811190143835728e-03,2.057329914716291095e-03,-1.525248334810174258e-03
2.426982025277654373e-03,-2.396961950930739070e-03,-3.038274444379832941e-03
4.070199584421816535e-03,-1.020945848988334025e-04,3.475324321013094917e-04
1.996063257449530622e-03,1.627847840282646607e-03,1.848281019701610744e-04
3.825832175912468117e-04,-5.235626355012801660e-04,2.470234615749787284e-04
1.278055496807419639e-04,2.191351198440355530e-03,2.052338278823284245e-03
2.401954328705506372e-03,1.173263255512311306e-03,3.503420591934857937e-05
1.492772689014026238e-04,-4.616805590339221818e-03,-1.531459145639099673e-04
-1.772333339102554915e-03,1.277593606634761349e-03,-1.553706498255297665e-03
-2.234685449062435818e-03,-1.511217058834931097e-03,-1.178203757093811751e-03
-8.307570860461727926e-04,2.899948559976521598e-03,-4.427786667381872383e-03
-1.284509312161554069e-03,-6.990837313739413101e-04,4.742367847697103421e-03
1.891801907137565615e-03,-1.015014732475286868e-03,3.756200933405825192e-03
-1.574755442161472315e-03,-2.746838121317787124e-03,-3.368085213331407923e-03
-1.013568984872531033e-03,6.559456188830319620e-04,4.627322623716336944e-03
-1.598369601826238025e-03,-1.485670680378738074e-03,-7.449636102277141332e-04
2.923796718959600395e-03,-1.442209603983772136e-03,-7.598502927320692274e-04
1.471523242928885530e-03,3.941692359261630973e-03,3.957599889590698861e-03
-1.813541881114228132e-03,2.561097081656287552e-04,1.130389467661653850e-03
-3.261028189469937586e-04,6.451944026061465307e-04,3.100843520981285285e-03
1.737959049318321203e-03,-6.876593226381862926e-05,-1.385503169307472941e-03
-9.458492722586446825e-04,-5.514381509037220852e-03,2.725011393549209662e-04
-1.570638805262455960e-04,3.571209554741076094e-03,-9.048206489211725210e-05
2.346976502600479214e-03,-1.126439385574245187e-03,5.186247527785422737e-03
2.774434353109135349e-03,2.453941301663755455e-03,-4.304355763297075012e-03
8.584997512351781037e-04,5.108727945780737120e-03,2.660092326152989350e-03
1.297207467749214886e-03,-2.267456618374186217e-04,3.190875673720343971e-03
-1.501173875577366647e-03,5.491108970655802449e-04,1.626351321822123476e-03
1.064735111842115894e-03,-1.741243888990159656e-03,7.656073079300082778e-04
3.491727306118117859e-03,-1.273590598788665361e-03,-3.512726131011020912e-03
-6.896227982082020957e-04,1.895087637516702350e-03,-3.522910583770764558e-03
1.137456236163204241e-04,-3.481481227127106864e-03,-2.846127141320172957e-03
-1.904278381042711406e-03,-1.883868540154364510e-03,4.103929883865429362e-05
-3.882583204353912479e-03,-1.447157516750684257e-03,-3.969456167736502752e-04
3.206954412164025273e-03,9.022233807288798039e-04,-1.712473237144510600e-05
4.128931027259639714e-04,-1.301104287568472699e-03,1.949941158799032312e-04
1.489605324152572805e-03,-9.267221288004129842e-04,8.893721121587543250e-04
-2.246961357880707881e-04,-1.158609589415775308e-04,9.511787637230812017e-04
-5.691573690255614503e-04,-4.723543865085836268e-04,4.899840128854822570e-03
1.444927526851292964e-05,1.659298597717841607e-03,1.602984389549244864e-03
-7.395327027059280531e-04,-1.671730201460083168e-03,-9.751263310102919991e-05
2.870599574356683895e-03,2.463622209460326526e-04,-1.544196678051438848e-03
1.530897572674740938e-04,5.007837203106880282e-04,1.934897501940707136e-04
-1.262741683992276830e-03,-1.577017686669031533e-03,1.365595191713751258e-03
2.530874861096894866e-04,5.966662415839741294e-03,1.028593073321548007e-03
-4.083970611164053528e-03,-2.502508971304481800e-03,-1.572718469120520501e-03
-2.019855912504736682e-04,2.801900690993952125e-03,-1.320958150356965708e-03
1.068517278025760131e-03,-1.940557244998820366e-03,1.639299704281140880e-03
5.180876939993585631e-03,-3.556026205130883092e-03,-2.123024302613845272e-03
4.476871921097191898e-03,-2.179917887549222017e-03,7.342884129360717710e-04
-3.295443220766176016e-05,-2.692569817205751111e-03,-1.229144540238259666e-03
-1.233111320002204048e-03,3.004298525337348574e-03,-1.776900087563650435e-03
4.494409747641378919e-03,-2.441508152693814410e-03,1.803280786551522035e-03
4.694091998850857123e-03,5.175394056033906292e-04,-1.720629737162384949e-03
1.861062694514573155e-03,-3.094063820216103565e-03,5.250088997216056886e-04
-6.525209352803526975e-04,-1.657593433601612688e-03,-6.478354363183275308e-04
2.850575347144806981e-03,-3.256908689000893864e-03,4.592248537067034238e-03
1.316555919539614660e-03,-6.322321320775527121e-04,-7.528195146537290878e-04
-1.157173165874534433e-03,-1.569159056946149277e-03,1.122150086944424460e-03
3.018189781730370221e-03,-2.202136517670487577e-03,6.859519914239140675e-04
-2.219040201548802636e-03,-3.390978105686095079e-03,-1.111249267983593458e-04
1.786081632115487251e-03,1.467106942912743683e-03,-6.206596469033977877e-04
-1.404660340451290923e-03,3.167643736973504672e-05,-1.127062823641723148e-04
-8.911861065010430938e-04,2.563380493705111167e-03,1.464287633120436383e-03
1.146916948007867948e-03,3.183375899180079360e-03,3.715636530385590941e-04
1.930844984661209476e-03,9.279396841497462075e-04,3.297814963390451656e-03
-1.591675682688504980e-03,-1.400177688588903624e-03,-2.810524557632079843e-03
4.129549920155036954e-04,-6.967762816457675513e-04,-1.328581552279220631e-04
-5.636968744118555849e-03,-2.622429967891826488e-04,-1.970949347700648707e-03
-2.069160651696925546e-04,2.045057345822936558e-03,-2.507090840577310027e-03
-1.660365576244426976e-03,6.617555327862627897e-04,-4.251082672947881225e-03
-1.447252192470689777e-03,-3.291696165001563399e-03,7.036325178524650533e-05
-4.300366250943485303e-04,-2.837796924706796446e-03,1.980348814303880232e-03
-1.668415019913641398e-03,7.089073303027485255e-04,2.967783264906564879e-04
-8.015722225476989808e-04,-2.912632924137018606e-04,-1.924656110491419466e-03
4.859668547914369405e-03,-1.510469986090733931e-04,-2.231165856852313726e-03
-4.768788647958969833e-03,1.086573512675919045e-03,-9.852587643465865984e-04
-2.396030689713120223e-04,-2.421327774982957610e-03,9.262705378644386228e-04
-6.613249580722991476e-04,-1.558980743820223959e-04,2.687366469050100470e-03
1.336966878116880621e-03,-2.983866777711903940e-03,-6.781401948089774709e-04
-3.682370278255129355e-03,-2.922587030447788316e-03,-3.562281953071572659e-03
7.310162700231429738e-04,-8.097822645026676999e-04,-3.781697363253228809e-03
4.132449176342878512e-03,1.867078519836190033e-03,-1.446094197831088949e-03
4.861814885518188725e-04,-4.034582881892759439e-03,3.003395886266648895e-03
3.532154907454587408e-04,-1.601949089497537392e-04,-1.740610045062902919e-03
-2.987928348569872340e-04,-3.237391059402382372e-03,-2.095741525012134385e-03
2.157438097956802196e-03,2.666479870687220050e-03,-2.652803390166148540e-03
2.506940677230994844e-03,-2.410851154848208788e-03,3.717337851022213882e-03
3.439573551552027055e-04,3.282637924949686863e-03,-2.668637769572194778e-03
1.354842658821044142e-03,9.067187136995218328e-04,-1.862768029465086076e-03
-7.060746407524302838e-04,-3.617147433673573859e-03,-1.098550266336886794e-03
-2.123773091671343934e-03,5.422160436696950986e-05,5.418918567774720467e-03
-1.776826037622135672e-03,3.714488305193062393e-03,-6.311607232886287189e-04
8.049630004418661944e-03,-4.202117723935784371e-04,-9.017566501915144292e-04
-1.873145064226604392e-03,-3.947823534770221639e-03,-1.003573080258442912e-03
-2.831362614186364122e-03,-5.882855669042830887e-03,-2.098746066040344926e-03
-1.456398746886971348e-03,-6.424261212386368596e-03,3.662186305544323350e-03
5.435550614990862419e-04,-2.391274549585900751e-03,-3.425822892772336335e-03
-7.534714150998302919e-04,-4.374529371805125147e-04,-1.658157578487028626e-03
4.314055729384617607e-03,6.694255922738766122e-04,-1.519205992324277254e-03
1.306026081391386097e-03,3.771337428957450763e-03,1.489342880541345620e-03
-2.168265581148802208e-03,2.558320603590671905e-04,-4.709697964458713949e-03
-6.196546849819358372e-04,-7.999413396981844889e-04,-8.843304797712307850e-04
-2.957938459250329013e-05,-3.020857504923274688e-03,3.068665281215160901e-03
-2.625100213275482781e-03,-4.504850264636075445e-04,4.227093140779770997e-03
-4.206854935828263295e-03,4.859646588188610249e-03,-7.041417305310415089e-04
5.510383000595127888e-03,-4.335321771230265901e-03,-3.126347575219550617e-03
-3.375533759283340742e-04,-2.732146918486336867e-03,6.751530054401970720e-04
-2.008240729430973634e-03,-2.525136752601715197e-03,-1.259037845707840523e-03
-1.558042796114644845e-03,-1.892152088835165162e-03,-2.405657096078915938e-03
4.817054751131767979e-04,-7.177706476448146838e-04,2.862533477590242098e-03
5.438887575729711189e-03,-4.550899348523348813e-03,2.473452892989414301e-03
2.514254569968142616e-03,3.541950747867189057e-03,3.564032197829669710e-03
2.610011890053695431e-03,1.715146794403282814e-03,2.422596717875922720e-03
2.459418815643244893e-03,-3.045388113690297195e-04,-4.546690083622561065e-03
-1.887944206783016181e-03,2.605383556540288859e-03,5.386779095441840588e-03
-1.533586742594601022e-03,-1.958812585616008257e-03,4.260216516399400392e-04
-1.233060191562742897e-03,-1.888251875937474325e-03,4.235903335431353764e-03
-1.081387526773788061e-03,-1.420743296227353980e-03,-5.349853135083561424e-03
1.045921956815341371e-03,1.155957123733823743e-03,3.282854773450208374e-03
-1.796192421693702801e-03,1.485248630666507509e-03,2.598990392008825381e-03
-1.686891958406844380e-03,-1.583621567648494299e-03,-2.551554810985851539e-03
1.789953623739995794e-03,1.705178827591696030e-04,4.599125273246764756e-04
-1.007071661338396380e-03,-3.000019568279088753e-03,1.471327675642039850e-03
-1.187144366100431874e-03,4.204769273632179868e-04,9.667399390547888865e-04
-9.980057309309747597e-04,2.017955894997512396e-03,1.042380475191212854e-03
2.312344531396399571e-03,5.005949319548880401e-03,2.630902326684462968e-03
1.785301222256852885e-03,4.798474645079590060e-03,5.258881077388598974e-04
1.355059095212868443e-03,-1.379631710016049296e-03,2.131276762719811445e-03
-2.669592553034462880e-04,2.146339355705556735e-03,7.897231694613917382e-04
-1.613613908776193907e-03,8.449434187113710401e-04,-1.794447927058246317e-04
-5.836030371936104175e-04,1.849041418263304903e-03,-3.308761922712254383e-04
-9.682314054878622071e-04,3.604056643002808997e-03,7.921099009402214489e-04
-3.701291562806866432e-03,3.896227252714715736e-04,-1.382693133276541439e-03
2.349913497172646283e-03,7.856854403084208782e-05,-2.904934745345690624e-03
-4.717368918722937565e-03,-1.319566718234386777e-03,-5.179735012869622450e-03
1.298558953999800385e-03,-4.747063203603746535e-04,-2.316872187723445931e-03
-4.703368610475706750e-03,-3.454703379788801910e-03,3.787416057060992696e-03
-2.990389542945778162e-03,-1.252118434590229019e-03,6.443035379608940370e-03
1.383298871230454570e-03,2.708711309382849132e-03,5.806378625983971749e-04
-2.507400009881062888e-03,-5.646569554836649435e-03,-8.719702827601124315e-04
4.106679594887017483e-03,9.777913360042955575e-04,-3.229612117487757131e-04
1.852272374213759015e-03,2.692391215113007844e-03,-1.424806493572591684e-03
-4.142003012810347188e-04,2.467679364869694754e-03,5.905375979416835862e-03
-6.524929021538937576e-04,-4.190850980169375656e-03,2.629892175219872459e-03
-7.999181684086767007e-04,2.835947717983351279e-03,-1.509967315391199728e-04
5.240351958410475412e-04,-9.980002129692394381e-04,6.990625871645591086e-03
-9.371044545266061501e-04,1.643788576015558795e-03,-5.599615461279677277e-03
-1.513381516254854462e-03,-2.417588299149054190e-04,-1.720894154857903133e-03
1.428807666358478362e-04,2.408358126818568434e-03,-2.488791549583000817e-03
9.402819343289283045e-04,1.109219719611589331e-03,-2.719895241297387405e-03
-1.442003412320144035e-03,1.390559440307142505e-03,5.017703490890292051e-03
1.318399591631187664e-03,-8.887793410836926714e-04,3.212846304801135824e-03
1.289885695929015168e-06,1.465954591117756738e-03,-3.724532983789485656e-03
-1.231853913556183594e-03,-1.468948093600468824e-03,-9.956494674182678629e-04
-1.277776351877739401e-03,3.545126065098062797e-03,9.130644826586352793e-04
-6.736903440513884083e-04,-3.890748590231812507e-03,1.103517174537203523e-03
5.383299078025388044e-04,-1.547473126920266779e-03,1.103817989233404602e-03
-1.794804548428288130e-03,-4.138594334441195004e-04,4.315951783161377925e-03
3.065699385665248290e-03,-1.728317364527562263e-03,-2.649620390390043743e-03
-2.459168530713178556e-03,1.229284652871575842e-04,-2.404519364982737103e-03
3.480942848079194001e-03,3.873217260784056655e-03,-2.504258482458753161e-03
-1.466318266439374345e-03,-1.304018160009466718e-03,-2.899774703627540709e-03
-3.572997583722983318e-04,-5.007439572238081386e-03,8.322858707567442065e-05
1.397092240572718599e-03,3.221362181442954595e-03,-7.107760950647543400e-04
7.651286062257652357e-04,5.294997988902349836e-03,2.501907484167598637e-03
1.175598839895529999e-03,-1.028746400971484402e-04,-1.823997702060427967e-04
-1.306375595171621433e-03,3.455973084761819946e-04,-6.051805741155067114e-05
-1.766064150607183324e-03,-1.009715333359721343e-03,-7.523773345979991927e-04
-4.279655687661847001e-03,-4.544772524938194350e-03,2.177011217586329126e-03
3.407046585978436726e-03,-4.478042727727158160e-04,-8.158702737970466735e-05
3.383080043726135241e-03,-3.614440991158780498e-03,3.105607659722455730e-03
-1.880664395427814614e-03,9.692015022383942578e-04,-7.096233216477607726e-04
-5.523053850792791243e-04,2.684628137981670895e-03,-3.231797282032428022e-03
-2.432334032424772908e-03,-1.361580460571772816e-03,1.829311012891215353e-03
1.330593649312869454e-03,1.139386162345248400e-03,-1.426526387032000858e-03
-3.220941669874104272e-04,3.128422457977035696e-03,-8.633414501448315658e-04
6.060859049743776844e-04,3.481077791834468827e-04,-9.513289068867350159e-05
-3.427193649285182405e-04,4.048440816044911704e-03,9.505171034347447171e-04
-5.725344574187256168e-03,-3.407761879024921682e-04,8.224291165684934199e-04
-1.634419453182140271e-03,-5.498146866356876626e-03,2.939396274834702458e-04
-2.692825361128105537e-03,4.392928529307803254e-03,1.961065915537039527e-04
-6.164336155958826443e-05,2.721479668668973229e-03,-8.797914783536889011e-04
-3.867176659282843760e-04,2.964523210555611733e-03,-6.464737732843037253e-04
4.334279285641799186e-03,-3.372289601725430436e-03,2.472929720961428157e-03
3.172069792975116143e-03,1.230208114686582276e-03,8.094162255560098272e-04
6.974295854192920537e-03,-3.701846653071679590e-03,-1.638616784934740977e-03
6.769279836948574255e-03,1.861351709592260839e-04,1.520972879345008043e-03
9.075427716440510710e-04,8.865347075599559583e-04,-2.512101919892696395e-03
-4.112043497964517832e-03,4.822668171651985384e-04,2.278461901155857906e-04
-2.053135494259106502e-03,-2.817584230185170985e-03,2.887957220481910097e-03
8.000754340212275131e-04,7.913585663092672024e-04,-1.810228525209694409e-03
-4.726399348127408029e-03,5.580858288314932865e-03,1.317161483076170932e-03
3.015269254649377648e-03,-3.968841321225288418e-03,-2.596016719255903570e-03
6.469236358792596932e-03,-6.990948034401025867e-06,6.297973635666047473e-04
3.261584375324945266e-03,-1.856695562862615244e-03,9.872898327560907829e-04
1.533924652910331797e-03,3.613660996442761078e-03,-1.020693596188418546e-03
4.134312638027533705e-04,1.056605598157485957e-03,-1.484138811135129413e-03
6.127767260102124410e-04,2.050286433563549768e-03,-1.272522876273024951e-03
2.025860704987320678e-03,-3.313782893942799918e-03,-1.772340997454301516e-03
-1.325527394052855080e-04,-4.296401335419425455e-04,1.441457225069535538e-04
3.032663898478895454e-04,2.731138460874814582e-03,3.595580624517381516e-03
8.117726000882839613e-04,2.415925781935455378e-03,-3.022167343520023274e-03
-5.706613784811409573e-03,1.723769511408074955e-03,1.367337963561616933e-03
1.978733823647155134e-03,3.920264052136112720e-04,3.163013830685976820e-04
3.713147829114366656e-04,2.621919804791850682e-03,1.394704254574426943e-03
7.038860071539510726e-04,2.793459914831832556e-03,-2.368521650687032635e-03
-7.422400306537909427e-04,-2.088793337461155187e-03,-6.261167122506189646e-04
-1.429935697574004165e-04,-1.800370722900335651e-03,1.146734570128637147e-04
2.344350597736588018e-04,-2.808472684722136854e-03,4.821722721142214160e-03
1.654037192921916635e-03,7.666208266288692796e-04,-4.837278229306213317e-03
1.687104435975614585e-03,1.202841540235242241e-03,-6.481071947326982191e-03
1.336904617614380949e-03,-1.889518821190732788e-03,-2.975008160770138427e-03
2.455058800220473736e-01,2.865633406613543599e-01,1.453942358866793438e-03
4.774496602556282943e-01,5.727104078134377385e-01,4.398675508366315517e-03
6.781149040595587651e-01,8.637628665529926142e-01,-2.839867961133005474e-03
8.535315402229139981e-01,1.141293667083009389e+00,-4.852495600574045428e-03
1.016387173626912555e+00,1.427954987224107519e+00,-7.787633801049086190e-04
1.168905693019690162e+00,1.720598396428181465e+00,-4.650992889076385924e-03
1.299149999654491960e+00,2.007595182029541458e+00,-2.083534022336162601e-03
1.416702413682377149e+00,2.293060608544593926e+00,1.799611995614402125e-03
1.520509883351504277e+00,2.558532990920379557e+00,3.559005840369876186e-03
1.613381151378673772e+00,2.797767893679273588e+00,1.303073735758952757e-03
1.697298097931966065e+00,3.008800024532827688e+00,-3.926125345427257038e-03
1.773922476828543315e+00,3.202517892553630841e+00,-7.511831369876426426e-03
1.837547550635242777e+00,3.370714940444758057e+00,-1.163647404027755294e-02
1.895125445647509954e+00,3.518071804108622747e+00,-6.474734563789533506e-03
1.949674574491509160e+00,3.652539532804683464e+00,-7.063332151734426530e-03
1.993230173931127336e+00,3.770273774525826571e+00,-1.400755550314970385e-02
2.033613055935460157e+00,3.878437659402258486e+00,-1.685426356722605906e-02
2.069112337156404191e+00,3.969652480913898884e+00,-1.663504841810214269e-02
2.102827300916362940e+00,4.055845048950734721e+00,-2.012174995677431383e-02
2.124592205828554903e+00,4.117890929183190885e+00,-1.909610380716703429e-02
2.146343733716295610e+00,4.177954129326488797e+00,-2.009346852672748776e-02
2.166009187026914695e+00,4.237427300617729209e+00,-2.330663735747793078e-02
2.187302101616470651e+00,4.277501203097567206e+00,-3.227469166553556534e-02
2.193193611122423281e+00,4.322223395310506255e+00,-2.776424333348709306e-02
2.205804434155658189e+00,4.354086761782580695e+00,-2.906403228549227918e-02
2.215437495569444248e+00,4.381989793866433835e+00,-2.968518942452073872e-02
2.222324098233255274e+00,4.407987335329861978e+00,-3.186821293610117567e-02
2.234639124000257215e+00,4.426205587181192058e+00,-3.446344638415514694e-02
2.235679169576196834e+00,4.436500087139744863e+00,-3.812223782795070431e-02
2.236028064173398722e+00,4.450174099976993425e+00,-3.626938293059829566e-02
2.240107211151615374e+00,4.459416564560185314e+00,-3.923507998531513413e-02
2.231028192831485235e+00,4.455887827158824699e+00,-4.054975500606163713e-02
2.231388587994238559e+00,4.466746901694545357e+00,-4.118014575892695039e-02
2.225483497801171495e+00,4.456924296776348271e+00,-4.531747652931452514e-02
2.226947353420471121e+00,4.449522449880285002e+00,-4.499951489478187100e-02
2.219267163592842707e+00,4.456620302764551234e+00,-4.764726916606128182e-02
2.218755324121058692e+00,4.440503766365297977e+00,-5.248846827542974491e-02
2.211590485663349703e+00,4.437296730228408315e+00,-5.268156776909555666e-02
2.202004784203067000e+00,4.427188444202186268e+00,-5.361465950398732611e-02
2.202124221383585656e+00,4.418881406487937369e+00,-5.244216815787109548e-02
2.190868443224890605e+00,4.402585631299557711e+00,-5.648378161411638648e-02
2.188930884985883729e+00,4.390556184304666765e+00,-5.987486437892872854e-02
2.174892165847559511e+00,4.376283552797084475e+00,-6.007503946020817387e-02
2.165362573325071871e+00,4.363362441303396899e+00,-6.387514823623725857e-02
2.157254414534430342e+00,4.351292960917650277e+00,-6.256946307784143346e-02
2.158447383371458361e+00,4.331709971902528267e+00,-6.070860735913316542e-02
2.145843067612321242e+00,4.316426552585667764e+00,-6.951665093666049844e-02
2.133698008909491683e+00,4.299390312953828897e+00,-7.178756516620081463e-02
2.124746556048937585e+00,4.283953630814185232e+00,-6.821087428484685911e-02
2.116080693066304974e+00,4.262489894455828932e+00,-6.788924846028454585e-02
2.106068568814152719e+00,4.248674034907665487e+00,-6.804838279401130563e-02
2.102818352543459390e+00,4.229316869536732248e+00,-7.165330317757019618e-02
2.089938553283789080e+00,4.211988914838975973e+00,-6.812644843329318523e-02
2.078702859676178072e+00,4.189298399450162691e+00,-7.584141403871966225e-02
2.069323972060078898e+00,4.171557686395996001e+00,-7.641018388818113238e-02
2.057090783894137243e+00,4.151893743327804032e+00,-7.960101994731566544e-02
2.049538122485406344e+00,4.128584282891466728e+00,-7.952248295881246543e-02
2.038591576001834937e+00,4.112757852057026930e+00,-7.962502007794901304e-02
2.026124869958520591e+00,4.090658122136355601e+00,-7.446298973549073108e-02
2.020859593663421272e+00,4.069646755446001407e+00,-8.482951288314069527e-02
2.009419003747171750e+00,4.051667104364762295e+00,-7.800501066904302894e-02
1.997123969154567913e+00,4.030005521801596657e+00,-8.521802670198382057e-02
1.990684405562797687e+00,4.011649419027976116e+00,-8.751691413156148514e-02
1.982215359335943949e+00,3.996579447051168632e+00,-8.388653512937253864e-02
1.966065835203841150e+00,3.971511836216355729e+00,-8.324338007886893098e-02
1.961606060440454602e+00,3.954319000362549019e+00,-8.662616839441183991e-02
1.950113380935869056e+00,3.932357635076366265e+00,-8.641341942929368913e-02
1.939283410555413756e+00,3.907503879226888355e+00,-8.919974310992842548e-02
1.930033707629173589e+00,3.898305532276275631e+00,-9.106688293108569643e-02
1.919998244091922102e+00,3.868739240617564690e+00,-8.687874086476549129e-02
1.910165520370671555e+00,3.854676680457641780e+00,-9.226617679134248295e-02
1.898953458467175448e+00,3.830838334844963278e+00,-8.874455875509548730e-02
1.884945611809435206e+00,3.816684916517085746e+00,-9.070067048349059191e-02
1.880544971527542186e+00,3.794035732291326291e+00,-9.345953232902938501e-02
1.871132616223577294e+00,3.772674220480944030e+00,-9.733185354749618323e-02
1.859370940677669726e+00,3.754634866376381996e+00,-9.537619934042061709e-02
1.848765961035018668e+00,3.736348708960583131e+00,-9.548836974882568551e-02
1.838809362831748340e+00,3.714929281822800355e+00,-9.915680328197223892e-02
1.831553735927325510e+00,3.700277175320400680e+00,-9.615141522588277478e-02
1.820306765347303957e+00,3.675922255344654666e+00,-9.479887507298268012e-02
1.810193362397273020e+00,3.657281425150474607e+00,-1.031332181190748321e-01
1.803046170757597100e+00,3.638636034283598608e+00,-1.000295801472926016e-01
1.792640926345073993e+00,3.621126022691134594e+00,-9.790988370374774374e-02
1.779362349216588424e+00,3.594197179183994173e+00,-9.701498521873207215e-02
1.773931801892036253e+00,3.579310762805819390e+00,-1.024519861412154925e-01
1.766035067842771200e+00,3.563037181410279253e+00,-1.016188126029528155e-01
1.753541546447608068e+00,3.541367351323506885e+00,-9.829006014316619966e-02
1.747035354917580330e+00,3.527321747265516727e+00,-1.063659131755428366e-01
1.734783642644821766e+00,3.507159196783494970e+00,-1.024598244153430288e-01
1.731763711198137212e+00,3.488312065026576647e+00,-1.062000937878729567e-01
1.718358686540106595e+00,3.468615532421138958e+00,-1.040966470810445327e-01
1.707612836125352196e+00,3.450623154044091923e+00,-1.064377129766186092e-01
1.705042584095636471e+00,3.429069734315604467e+00,-1.054779883023408554e-01
1.693456063515082155e+00,3.420224820410764366e+00,-1.093260739886919020e-01
1.685306658182484929e+00,3.398122755832471142e+00,-1.045653378194564553e-01
1.679064722725376990e+00,3.378135506372485608e+00,-1.050363045904156023e-01
1.664662853836673229e+00,3.364732776308165363e+00,-1.025487601298712692e-01
1.664903414054203390e+00,3.350697620379069264e+00,-1.046653666444046921e-01
1.648122367838898539e+00,3.330103684342726300e+00,-1.061577029289565571e-01
1.640352288881116172e+00,3.310575118289194929e+00,-1.108068679341213808e-01
1.633042481417895653e+00,3.299739863128758000e+00,-1.076704753388348923e-01
1.619202048563864293e+00,3.276174954603520373e+00,-1.120843169760550873e-01
1.615115966828126304e+00,3.258950858591148858e+00,-1.077041511027729964e-01
1.601458684718164882e+00,3.240049932835176616e+00,-1.080896957006125814e-01
1.597220501580859375e+00,3.225413752331965256e+00,-1.090399484244124889e-01
1.591506003891962839e+00,3.206856745281792431e+00,-1.097368060897820907e-01
1.578259674136693214e+00,3.194814715567201091e+00,-1.120678485299658883e-01
1.570968173227173859e+00,3.174907559988874084e+00,-1.066768254667253696e-01
1.566512281442219212e+00,3.158291322630666365e+00,-1.119285778060706144e-01
1.553105082202710818e+00,3.142832869485405745e+00,-1.144007175519508590e-01
1.548699413750430409e+00,3.125674084453356372e+00,-1.127440990105400276e-01
1.540767200089702804e+00,3.110224218134825858e+00,-1.130449776846985110e-01
1.538168681821391992e+00,3.095850592457380035e+00,-1.122419933740748388e-01
1.525909748016026413e+00,3.080799838167816773e+00,-1.087584946500961408e-01
1.514631862862567901e+00,3.060671580294738181e+00,-1.138126306859406633e-01
1.511551254403798117e+00,3.044766183962936967e+00,-1.127806459485069662e-01
1.502642551787866987e+00,3.030829223988643850e+00,-1.150725883084094958e-01
1.488508111522636179e+00,3.012593776878382812e+00,-1.112533399954729468e-01
1.483771162238519015e+00,2.991655778718552039e+00,-1.143847335153683892e-01
1.476630549753764621e+00,2.980674970732958062e+00,-1.119366691043319068e-01
1.468899011746783723e+00,2.962808019943854898e+00,-1.137372222914347086e-01
1.463968491394840310e+00,2.949009182065405632e+00,-1.128921283489638383e-01
1.453393256991726945e+00,2.934913538558401758e+00,-1.168280013052118149e-01
1.446313534846091597e+00,2.915995078701614673e+00,-1.148844693005014045e-01
1.440697464774997716e+00,2.903769926806788693e+00,-1.158490593076346303e-01
1.432376472676075929e+00,2.888681958388574778e+00,-1.129757980668371214e-01
1.425067334648671746e+00,2.873213455566327124e+00,-1.170642166563301695e-01
1.415935100907353972e+00,2.857453120482055908e+00,-1.122141544409328978e-01
1.407784421063049907e+00,2.842691733430038781e+00,-1.109010025848382458e-01
1.398736168907940502e+00,2.820908994039799111e+00,-1.100515380369852386e-01
1.390528657478920627e+00,2.812496648043683489e+00,-1.193110258243721827e-01
1.385467269447365979e+00,2.799307236299503732e+00,-1.144942134089842467e-01
1.378228078410019819e+00,2.781186787925071346e+00,-1.132544593873478778e-01
1.372789956904260311e+00,2.766536562602161187e+00,-1.184476031030555071e-01
1.363842784774897066e+00,2.750088667498663764e+00,-1.145902900264370444e-01
1.356669807795051641e+00,2.738684831703471545e+00,-1.111742925750365957e-01
1.352266068477916638e+00,2.725479365548320931e+00,-1.174404037797098094e-01
1.344880023965556060e+00,2.708417751481381419e+00,-1.120108027448875471e-01
1.337531549200293934e+00,2.696102379793762882e+00,-1.145816670038127261e-01
1.328016481606150379e+00,2.678583062388075753e+00,-1.145260167097825466e-01
1.322589810236959318e+00,2.661797996113413056e+00,-1.139939282029681783e-01
1.314259730129233139e+00,2.651673149680335406e+00,-1.112781101241603482e-01
1.306249380720928333e+00,2.639465841768768417e+00,-1.119668180145061837e-01
1.309049707135393925e+00,2.627457594815101771e+00,-1.139075885253061915e-01
1.298219703974211825e+00,2.617143994514395722e+00,-1.135623334258282907e-01
1.287703279955314750e+00,2.598283243197970549e+00,-1.153171349806063617e-01
1.279659781370966476e+00,2.584477191026740339e+00,-1.145502004060703072e-01
1.274355830073132356e+00,2.570297996810923191e+00,-1.105835799424150223e-01
1.267343092038087260e+00,2.558247490521032397e+00,-1.182289354452242536e-01
1.263530057459470779e+00,2.545636259427634052e+00,-1.097379722723422629e-01
1.257020583767859190e+00,2.525956847693370477e+00,-1.159030030045183624e-01
1.250219576527430432e+00,2.516486072563842047e+00,-1.109574927936148314e-01
1.242569247117799813e+00,2.504503257902861435e+00,-1.145690425964892151e-01
1.237761602691342055e+00,2.487174248626474515e+00,-1.190157038269331197e-01
1.229448517170366628e+00,2.476535093090237005e+00,-1.166750186490062707e-01
1.220336721508899158e+00,2.466826630484205474e+00,-1.141733392277157200e-01
1.215155124431459122e+00,2.454053954875349497e+00,-1.097031100801786618e-01
1.209142070895912635e+00,2.441890316539879979e+00,-1.087537090298857506e-01
1.205411216408079689e+00,2.422075990209790586e+00,-1.144566326850146865e-01
1.194181946006567907e+00,2.407608953352058379e+00,-1.099005704392280180e-01
1.195057018234960688e+00,2.398701871494117732e+00,-1.149873571903428232e-01
1.183570828693133237e+00,2.385203097283180806e+00,-1.124158192725928235e-01
1.178818015505353367e+00,2.377898626098220447e+00,-1.137259093910670121e-01
1.177571522591903008e+00,2.363436499825341208e+00,-1.148873646969624102e-01
1.163263640102461416e+00,2.357010469587482948e+00,-1.124050565417099579e-01
1.159988249634650748e+00,2.334999021135392372e+00,-1.159168451717328824e-01
1.153315257553409356e+00,2.323973632555564883e+00,-1.154987560300014121e-01
1.151777658771960366e+00,2.311810871882127305e+00,-1.104321104825453648e-01
1.141464654902362819e+00,2.302343895821740372e+00,-1.130371838883474367e-01
1.133377903054314517e+00,2.290721128448066413e+00,-1.123887291336384264e-01
1.128198030926816919e+00,2.279448253257623236e+00,-1.173014898675117518e-01
1.121089571069535440e+00,2.263264077393686957e+00,-1.151014838821445285e-01
1.116925207538596920e+00,2.248614570772811572e+00,-1.108665633989024540e-01
1.114466646743666134e+00,2.242601344800435825e+00,-1.133494484049790418e-01
1.105552513244240087e+00,2.234484099852096506e+00,-1.136805504294594871e-01
1.102121082649869521e+00,2.216053693745361208e+00,-1.127434092268986415e-01
1.094406840802316649e+00,2.206000639655698148e+00,-1.121960283384744461e-01
1.091355415158045794e+00,2.193621295530252091e+00,-1.111942456426817383e-01
1.085111622800567277e+00,2.176993007831270255e+00,-1.084361426802801648e-01
1.076215618156099119e+00,2.167548924626587326e+00,-1.122975894879692932e-01
1.071146814130031100e+00,2.155869845212764258e+00,-1.153518967423403513e-01
1.063346097222597875e+00,2.148185256304821600e+00,-1.130313012193748246e-01
1.062551041947937591e+00,2.136557939219883018e+00,-1.149145210175707282e-01
1.051407824772175870e+00,2.132828802908460997e+00,-1.096503153443414980e-01
1.048085969152190433e+00,2.113197444826287796e+00,-1.124740265362516312e-01
1.042198945475735439e+00,2.105434146291861985e+00,-1.131434042653082228e-01
1.041541387815797748e+00,2.094066446813358517e+00,-1.109360888870924294e-01
1.036321785182710453e+00,2.081190285481283819e+00,-1.115050388534257336e-01
1.028195461288825774e+00,2.070984830335170557e+00,-1.115480317001366628e-01
1.024521811562113305e+00,2.058508871185257938e+00,-1.066707369639131736e-01
1.021305876680583813e+00,2.046986666262825327e+00,-1.112990534159372102e-01
1.015003348325597354e+00,2.044053907239427925e+00,-1.077830485284134998e-01
1.002525856575543939e+00,2.030416229605785272e+00,-1.065189129626157721e-01
9.989259491518308609e-01,2.022561178421686368e+00,-1.098223720623177357e-01
9.970086013507307721e-01,2.006069499482867169e+00,-1.099328768688138669e-01
9.909167007794549287e-01,1.996841445113847424e+00,-1.090282215159440599e-01
9.843716092703662657e-01,1.980795995446356761e+00,-1.085093622597326224e-01
9.773566551087151666e-01,1.975834185383743336e+00,-1.056418703218329064e-01
9.799196526580141731e-01,1.962953429928051330e+00,-1.112902985534525296e-01
9.743927950502477842e-01,1.955938707590597403e+00,-1.091391085791307419e-01
9.624950484460461642e-01,1.943884342895376705e+00,-1.076349643054536065e-01
9.614144581068050366e-01,1.933062171466886303e+00,-1.049040633913675691e-01
9.541422918044993873e-01,1.928544144434347407e+00,-1.048321829126314247e-01
9.479725483382612783e-01,1.915475721343699700e+00,-1.048031354342145449e-01
9.434693024651554794e-01,1.905329030207938201e+00,-1.059022403096536724e-01
9.384328770397285524e-01,1.891071162573867204e+00,-1.054226402571932231e-01
9.355242530214821217e-01,1.878664044991910531e+00,-1.077478159137284924e-01
9.291172929043447493e-01,1.872857486159910323e+00,-1.122473698270895631e-01
9.214004664723363103e-01,1.859534364044306276e+00,-1.090101781111849077e-01
9.201213586449387138e-01,1.857735547615361860e+00,-1.028833866759563537e-01
9.181699424760025874e-01,1.846275179175315140e+00,-1.000716812169499537e-01
9.135572089722345801e-01,1.838269650182352111e+00,-1.053613528766137036e-01
9.045374641909179614e-01,1.826807240394669796e+00,-1.049772325009380308e-01
9.021000085356184472e-01,1.810573265440279522e+00,-1.018525508603192603e-01
9.031929334830254286e-01,1.799621707748917832e+00,-1.045702747060555937e-01
8.949267861220094877e-01,1.796910837510562464e+00,-1.033558501024844645e-01
8.890265930677320183e-01,1.782785697777200307e+00,-1.060083625283254338e-01
8.814429870161519798e-01,1.777099582213477191e+00,-1.051702282687777823e-01
8.844041571020008208e-01,1.766289799314664899e+00,-1.012628491211547410e-01
8.754943025215005115e-01,1.755778421375082221e+00,-1.038355413515569675e-01
8.640568786911615451e-01,1.744490367076589887e+00,-1.001748460734736001e-01
8.631479416223941659e-01,1.741385904687634323e+00,-1.022605624644696287e-01
8.605299522817365654e-01,1.730736065683343927e+00,-1.047475500480620214e-01
8.536467958027775804e-01,1.720961217937857501e+00,-1.045516214563291246e-01
8.466874424420560707e-01,1.710552733016204918e+00,-9.973835940445738291e-02
8.450251059182354307e-01,1.703739539005485915e+00,-1.027421583867222377e-01
8.412018988129840169e-01,1.694389870306419965e+00,-1.008736009408836565e-01
8.360623964106556061e-01,1.685171934033565577e+00,-1.026191953680128943e-01
8.302219699183099877e-01,1.675825191944948500e+00,-9.972171981438639199e-02
8.266046420415722462e-01,1.670235666214478609e+00,-9.689484239283660538e-02
8.222288230411652910e-01,1.659572402703787253e+00,-9.607907593137335334e-02
8.204276073825825799e-01,1.648460458575194743e+00,-1.018768309673460937e-01
8.109391531043803614e-01,1.644905341013735312e+00,-1.019863133836781816e-01
8.101489300510238412e-01,1.633064994810399018e+00,-9.537688965079195447e-02
8.110034100753767961e-01,1.623578144655342115e+00,-9.772910622464416053e-02
7.987161752614809762e-01,1.619667441199539537e+00,-9.488730452841634411e-02
8.029392679282094658e-01,1.604622644156592504e+00,-1.005877070311138183e-01
7.917782114632629931e-01,1.598323346447326987e+00,-9.447914401486713631e-02
7.888603608029143288e-01,1.587246103345305803e+00,-9.758413888936702529e-02
7.825042008249015746e-01,1.583358446140039399e+00,-9.889225527585970843e-02
7.806490606173905888e-01,1.574934816830212414e+00,-9.969853391563610057e-02
7.758913398613306311e-01,1.566140072139167616e+00,-9.558333699179905052e-02
7.712592770185280333e-01,1.557405607349845456e+00,-9.753399460336234505e-02
7.673507137683089896e-01,1.552569352289354443e+00,-9.762474502508108887e-02
7.677137150009105682e-01,1.543860329436210099e+00,-9.752290432743605797e-02
7.592959793867642970e-01,1.533519299177072748e+00,-9.827355409870194847e-02
7.593114003252138255e-01,1.523634389536977052e+00,-9.511291256364706737e-02
7.517531371371405369e-01,1.519682169029834551e+00,-9.217000555673825202e-02
7.564789194442453901e-01,1.507009674666625276e+00,-8.712239964746849863e-02
7.429152955093862865e-01,1.504266989968475743e+00,-9.239815779845371446e-02
7.384134991169070128e-01,1.491813151174598229e+00,-9.554125293693059573e-02
7.298180629129119579e-01,1.487613539435550747e+00,-9.448728760202630694e-02
7.359182832889470394e-01,1.478275658696738049e+00,-9.016433801859506658e-02
7.255027268037920196e-01,1.469074394341274958e+00,-9.100200954936726871e-02
7.181826351354581028e-01,1.461101772791097764e+00,-9.182646738133180830e-02
7.241702792774257214e-01,1.455164058815228811e+00,-8.874382220302197422e-02
7.164810818797735514e-01,1.446001457191083528e+00,-9.527439498401871210e-02
7.115196764243276739e-01,1.440692346855586115e+00,-9.119828211124311745e-02
7.079698059687147271e-01,1.433446772456841600e+00,-9.275580049886521239e-02
7.067398877790594947e-01,1.424916023478469462e+00,-9.300813450142368655e-02
7.025218105525410373e-01,1.417197259148176292e+00,-8.431122938186741411e-02
6.952464783743963483e-01,1.406657358169699945e+00,-9.208290215197420525e-02
7.000330655044243455e-01,1.400710797811108632e+00,-9.057043387085932096e-02
6.920459600555731727e-01,1.390807067039694811e+00,-8.698440887466607485e-02
6.899364967386533154e-01,1.389782560661397381e+00,-8.805026743838151315e-02
6.864092422493660584e-01,1.378984524344276874e+00,-8.762095304803943496e-02
6.813686677806856107e-01,1.372958922267965232e+00,-9.195951351375961091e-02
6.813329734917447089e-01,1.368468163252624548e+00,-8.507072281837899097e-02
6.792015878841322074e-01,1.358454130797076775e+00,-8.991605636135077684e-02
6.727329108065586150e-01,1.354146667736827681e+00,-9.267115706689388333e-02
6.687617251656700068e-01,1.342529276481733813e+00,-8.855827494275038403e-02
6.667832238280039236e-01,1.336748243871820341e+00,-9.027739662156465672e-02
6.599088221133986298e-01,1.329808472197020919e+00,-8.546272337952118270e-02
6.536977132691405012e-01,1.320245220544490339e+00,-8.616225164877384934e-02
6.524144659385613387e-01,1.311192879360754793e+00,-8.707798674495871583e-02
6.523503719688068525e-01,1.307215094911045483e+00,-8.306457822892798770e-02
6.514136509293008137e-01,1.301689108489202384e+00,-8.581852370743596470e-02
6.458975340403558807e-01,1.299723674839543985e+00,-8.773719707414327773e-02
6.400594966358555959e-01,1.289452510303105592e+00,-8.644546503717503994e-02
6.333306335360734396e-01,1.283859833765814473e+00,-8.639538635786814247e-02
6.367949472234509800e-01,1.278862307558764622e+00,-8.894364145868667582e-02
6.321640647045287942e-01,1.269096414503857240e+00,-8.576491117885171045e-02
6.250854964212516629e-01,1.265061114806481202e+00,-8.141413888013124267e-02
6.215302688331332259e-01,1.259351180551937288e+00,-8.657523653025864241e-02
6.189792627423350568e-01,1.246803887800025601e+00,-8.517961201528280457e-02
6.184351646838411876e-01,1.242320700360115548e+00,-8.224474126767057636e-02
6.131493157757441637e-01,1.234765999071038900e+00,-8.042804233665812319e-02
6.027759329947489642e-01,1.226937712311530593e+00,-8.526944283823649495e-02
6.083535235465286073e-01,1.223756878583748042e+00,-7.966842332158086126e-02
6.035604821135239773e-01,1.208253221274598666e+00,-8.230989101736248259e-02
6.026615981331387983e-01,1.205932617043036892e+00,-8.295565571197069388e-02
5.965949054064424439e-01,1.205204086066745894e+00,-8.161563924302329964e-02
5.958829387964814650e-01,1.198934830259381634e+00,-8.269487542061342011e-02
5.914707309669086088e-01,1.191748214232968728e+00,-7.803665154819218464e-02
5.856576513729647715e-01,1.187475832897742167e+00,-7.882128800564427995e-02
5.885376756271142318e-01,1.179683509844024369e+00,-8.395315213582013603e-02
5.803958216497695499e-01,1.173588181242448458e+00,-7.813568222694673715e-02
5.781036095169438394e-01,1.167253428358889344e+00,-7.790605749082166187e-02
5.771678389798531317e-01,1.162746028241484098e+00,-8.269823365382444891e-02
5.709665407103462487e-01,1.153998876355595504e+00,-7.914003024657546848e-02
5.704250516343114530e-01,1.149237102805860777e+00,-7.675871566464367857e-02
5.694806605322785265e-01,1.140702153054147683e+00,-8.027452543572775878e-02
5.624888977801476564e-01,1.133822494973435457e+00,-7.822959361406532641e-02
5.626583544691017291e-01,1.129633631138141192e+00,-7.780900637984178303e-02
5.578992907107281907e-01,1.124080501211736305e+00,-7.298820112664844428e-02
5.571281455244265768e-01,1.121063296978483503e+00,-7.655521523533270756e-02
5.507710387125016593e-01,1.113700282958660193e+00,-7.296608871016062314e-02
5.503573329824408278e-01,1.107897390042467789e+00,-7.813935938142946291e-02
5.442342212384793099e-01,1.100000582749825151e+00,-8.215557791404450028e-02
5.438403278490964166e-01,1.092320940634269766e+00,-7.771475651075077096e-02
5.431119798320723779e-01,1.086591674075224612e+00,-7.465225958056666278e-02
5.427364630480250307e-01,1.079504227863937293e+00,-7.861729875044023985e-02
5.331438643305276281e-01,1.079636294439197286e+00,-7.547120517011471352e-02
5.299916880590670454e-01,1.072409206135736204e+00,-7.602203623385855868e-02
5.299527285606134841e-01,1.060767051312066389e+00,-8.330081438820229056e-02
5.282175312260790623e-01,1.058375908973669288e+00,-7.283489865544161279e-02
5.173549803755385090e-01,1.055188368231358753e+00,-7.031442807072499357e-02
5.223218919685236328e-01,1.051402357436603596e+00,-7.503026239637876349e-02
5.229894025408923230e-01,1.048267011216071243e+00,-7.242551209520832478e-02
5.186103430065842623e-01,1.039947782676584165e+00,-7.115865483902984734e-02
5.118274418016106608e-01,1.033252471504389369e+00,-6.995123038433970208e-02
5.102906584792882283e-01,1.025721099874570941e+00,-7.350781064395922604e-02
5.057024665022959997e-01,1.018733005247248746e+00,-7.345120993685733124e-02
5.040304582134895739e-01,1.014475657825871791e+00,-7.262068797693610467e-02
4.989947306839854768e-01,1.012694489534160525e+00,-7.216808841124168483e-02
5.012233701833160859e-01,1.004246265248599501e+00,-7.078654758945690517e-02
4.998151472764005843e-01,1.003637657038340514e+00,-7.030236203389596261e-02
4.953264232664033040e-01,9.928696383180158902e-01,-7.144447712560952901e-02
4.926535268370101361e-01,9.897841684256024619e-01,-6.733315830265934609e-02
4.910437169612979491e-01,9.830088335213504891e-01,-7.468910966326033907e-02
4.878675417806412340e-01,9.837141577835066819e-01,-7.090904975924347542e-02
4.840607160761531969e-01,9.691458287908487623e-01,-6.868391077815724777e-02
4.786492421581057255e-01,9.708893445907343933e-01,-7.078774567368881221e-02
4.795089472161278565e-01,9.655599498327697150e-01,-6.921269140879955650e-02
4.695939013254711303e-01,9.587483463394699257e-01,-6.388109146636802849e-02
4.711373480150991000e-01,9.545249871772290007e-01,-7.204326787614420691e-02
4.711250627442657990e-01,9.499982366753416674e-01,-6.799180372641495940e-02
4.664894907807725088e-01,9.482189213806607730e-01,-6.962517413986665793e-02
4.694246005466580218e-01,9.357236101505287396e-01,-6.938445344541953330e-02
4.625116626267718467e-01,9.329192190390931394e-01,-6.429015576949864696e-02
4.628945199033676627e-01,9.308280247782755312e-01,-6.911445030907997777e-02
4.556685912162873331e-01,9.253772622461770014e-01,-6.164257292332690763e-02
4.573170946935833370e-01,9.167268570306335018e-01,-6.896785824908148455e-02
4.526853149127924025e-01,9.135476509369550024e-01,-6.366397850994047480e-02
4.530556761857368886e-01,9.107522637429104062e-01,-6.081792585051583322e-02
4.529579107211400002e-01,9.036869350149695501e-01,-6.719538572048257274e-02
4.444745333676249355e-01,8.996701384956270475e-01,-6.627907545007385992e-02
4.449117433453322890e-01,8.945105426191085618e-01,-6.614290243450304807e-02
4.391201558307690767e-01,8.953687561717760257e-01,-6.372157837732880803e-02
4.420814872036312737e-01,8.812883255853162234e-01,-6.408266257969154334e-02
4.383463320422983367e-01,8.786431254672604219e-01,-6.368132756042663156e-02
4.367545085273927818e-01,8.815679566598192407e-01,-6.348717820466022455e-02
4.343632598467341843e-01,8.744364953976522248e-01,-6.289444504452455786e-02
4.287366125771336911e-01,8.704013360779569997e-01,-6.522809264548176666e-02
4.299301191492820862e-01,8.634937600797621959e-01,-6.035885045987782194e-02
4.286080269669670928e-01,8.555395126354367052e-01,-6.457684303814137383e-02
4.220090358944200148e-01,8.546003299776699924e-01,-6.561588559102649043e-02
4.244084957299612548e-01,8.493425426713911985e-01,-6.348606244096743900e-02
4.214573860960499352e-01,8.411935271671761027e-01,-6.266166163430886282e-02
4.139433838790600451e-01,8.450308365230824181e-01,-5.737151754295914674e-02
4.169076484662787574e-01,8.361208267836994779e-01,-6.122537742311449926e-02
4.055128084405992261e-01,8.347355478160661812e-01,-6.007353504568767322e-02
4.141336932008215510e-01,8.231549315868527117e-01,-6.418687188568097945e-02
4.057569573710625432e-01,8.232962663719192165e-01,-6.199153289339665029e-02
4.033500711427321916e-01,8.190910707062020180e-01,-6.090512131928255135e-02
4.067511841201295608e-01,8.102937856074905465e-01,-5.969325618234636033e-02
4.022921301767706237e-01,8.112585725934673420e-01,-6.108697254289374018e-02
3.998927900584366979e-01,8.042727744251830790e-01,-6.388182945812941049e-02
3.989151163365355357e-01,8.004425521800264676e-01,-5.565951470793924910e-02
3.969882871478267461e-01,7.987307899862827743e-01,-5.919002509419499236e-02
3.974543047864264045e-01,7.968678389787703376e-01,-5.765450897497347710e-02
3.885210136846755091e-01,7.927236769857263221e-01,-5.779319247736190018e-02
3.856647323487308876e-01,7.843608076457510014e-01,-5.634516349545512504e-02
3.836289804596094699e-01,7.851536935833690611e-01,-5.700990282152001987e-02
3.882904882263883417e-01,7.789522728046377464e-01,-5.587079984335489857e-02
3.840828559922019325e-01,7.715475545751547815e-01,-5.976066184967446238e-02
3.765307053382040969e-01,7.678787735668211045e-01,-5.643474941984058524e-02
3.803074231686910944e-01,7.640233502626107009e-01,-5.043357746261845770e-02
3.793874619743181631e-01,7.637837721661243640e-01,-5.415308532363399818e-02
3.741218869154698812e-01,7.588253393186331630e-01,-5.947426785245998188e-02
3.735423864134231331e-01,7.514447901853744671e-01,-5.817396498579160968e-02
3.727365398660004714e-01,7.476575585878653118e-01,-5.551163448465117750e-02
3.724589650263086527e-01,7.451365367150200036e-01,-5.548558411229408127e-02
3.708924496523961500e-01,7.399025006032085017e-01,-5.744404220860202526e-02
3.661742278831288111e-01,7.369518845668560081e-01,-5.367640989725933759e-02
3.617896281625283539e-01,7.370283605557926832e-01,-5.443622148024843815e-02
3.630435034796095084e-01,7.277197513846391796e-01,-5.375522566463074303e-02
3.592225159801260004e-01,7.237451206340225207e-01,-5.385219859908545181e-02
3.633483829348669869e-01,7.236332019466736876e-01,-5.527101339968327337e-02
3.568483765639083871e-01,7.163912688189678635e-01,-5.228217740804285557e-02
3.561919851321757036e-01,7.116916694243521357e-01,-5.321548966782432832e-02
3.540445244608694253e-01,7.099081956838941831e-01,-5.234154610374177480e-02
3.482132816561033239e-01,7.054722134336779416e-01,-5.568746070109393403e-02
3.470652676039620022e-01,6.955251040067939039e-01,-5.342383678680027309e-02
3.501898452086414926e-01,7.013773426351964657e-01,-5.494741054011482995e-02
3.393970272129318566e-01,6.938548778120100513e-01,-5.358848155857014184e-02
3.433726487217008128e-01,6.897185604550767346e-01,-5.198748858334389933e-02
3.449131832920909191e-01,6.914793776623062715e-01,-5.457924411127234449e-02
3.368631117035244538e-01,6.874473776943895720e-01,-4.839468003098079674e-02
3.396697389795315103e-01,6.830906105567271513e-01,-4.708731899077370914e-02
3.341902423959657864e-01,6.800943547192513927e-01,-5.515255141805112254e-02
3.363737890055729096e-01,6.743330045382626148e-01,-5.159313008971232878e-02
3.295620628792202411e-01,6.756257481138110421e-01,-5.346853101430763811e-02
3.316272030162163431e-01,6.649751457863042337e-01,-5.066034718486930877e-02
3.315783594474668305e-01,6.643901564358040135e-01,-4.838300454740746687e-02
3.302141579356204781e-01,6.600549784905626050e-01,-4.775910380350613382e-02
3.279520018780087698e-01,6.562819792262649665e-01,-5.058486790547753187e-02
3.198944016286550118e-01,6.529022915083247947e-01,-5.575961198877112807e-02
3.263872317965438863e-01,6.513457946578202762e-01,-5.098847348015572017e-02
3.220809231348435442e-01,6.503095980388199360e-01,-5.047233645900366800e-02
3.196910620700375572e-01,6.396785904085191543e-01,-4.907908215055386408e-02
3.188530260869445465e-01,6.425371713077542291e-01,-4.795793522230765160e-02
3.165584652456704950e-01,6.312767236026228801e-01,-4.723121493306733920e-02
3.172295636767214488e-01,6.327684318551769493e-01,-4.731270655130884878e-02
3.122804195454757514e-01,6.256718103854493895e-01,-4.685109968577714362e-02
3.160762152005728853e-01,6.217156649594514084e-01,-4.819618529289918657e-02
3.108861300563816044e-01,6.235390952137193077e-01,-4.960814989541804942e-02
3.102115003876841914e-01,6.194950766274970322e-01,-4.504910454524010260e-02
3.053993585784873788e-01,6.175310823523507686e-01,-4.633063771022290916e-02
3.050151191263458794e-01,6.156935336024375038e-01,-4.989778843684881254e-02
2.975688552103761264e-01,6.124334083386878680e-01,-4.625834071108579637e-02
2.995600788664191105e-01,6.077311567996727115e-01,-4.849520977120067022e-02
3.004438455502198013e-01,6.055082832823932559e-01,-4.681356917390756822e-02
3.041123226850171446e-01,6.002829661236677161e-01,-4.894199682836880561e-02
2.942561767448836907e-01,5.989468222834906097e-01,-4.678974334622531400e-02
2.931629812252849465e-01,5.979988580076162075e-01,-4.970362594469594081e-02
2.949962682403775016e-01,5.913698936155119545e-01,-4.577128304911229351e-02
2.950359533157996261e-01,5.902980105703210523e-01,-4.143675025037747706e-02
2.936570668230248926e-01,5.829378581937877390e-01,-4.718227283565337021e-02
2.927783875694903171e-01,5.815506654768404227e-01,-4.168531802816236725e-02
2.873504717496022098e-01,5.744617703456127433e-01,-4.467798779243392637e-02
2.858624699603966590e-01,5.779778638778517719e-01,-4.639000407905889689e-02
2.839733623961491760e-01,5.717644727527051440e-01,-4.662610324961428965e-02
2.812671789350396079e-01,5.689271329257674648e-01,-4.469870090823321179e-02
2.799272740766222123e-01,5.685040037488782172e-01,-4.519442959237696816e-02
2.830963612799443641e-01,5.628491590722458637e-01,-4.534332851050199009e-02
2.775545095676801854e-01,5.626885481870774752e-01,-4.609536697126282584e-02
2.764261196703587387e-01,5.591495092554620294e-01,-4.321607106992512992e-02
2.762899625354017785e-01,5.502545487277197278e-01,-4.383974196807500362e-02
2.756100178927534672e-01,5.513804730280854605e-01,-4.196759222205925094e-02
2.708753840183007466e-01,5.516005103082669558e-01,-4.658498070942674457e-02
2.717966609777280884e-01,5.465900488246868694e-01,-3.971581291505892758e-02
2.711345884489460012e-01,5.410517765368676457e-01,-4.574800467196426385e-02
2.714974766144251372e-01,5.401358307752113230e-01,-4.305905673478819390e-02
2.668525227752664430e-01,5.381050710514045932e-01,-3.651381832329679555e-02
2.647691881896653276e-01,5.370644996847155905e-01,-4.311022783805359276e-02
2.640966204882721491e-01,5.327136533685159492e-01,-4.455163912641318252e-02
2.646245041205009252e-01,5.248930708060806083e-01,-4.027710424235280556e-02
2.599968372371416203e-01,5.239624327330538733e-01,-4.183760174812916482e-02
2.567862598264517571e-01,5.229466431972886742e-01,-4.199431770155109128e-02
2.582630607356878882e-01,5.243775351393380468e-01,-4.134971424878444712e-02
2.579735985363600381e-01,5.226813358774583529e-01,-3.750539147840909610e-02
2.533081353775186173e-01,5.145667901661515886e-01,-4.193710462562976610e-02
2.515409613092278729e-01,5.055895423473374395e-01,-4.406588694718028415e-02
2.494094154015494558e-01,5.108217837977875320e-01,-3.967912551120693354e-02
2.501846430401670207e-01,5.072355667136605462e-01,-3.381428783171944175e-02
2.482192675770743540e-01,5.010105815577347022e-01,-3.926387723101683325e-02
2.525738330393090258e-01,5.065445206529524125e-01,-4.204966611095550116e-02
2.454008268280659932e-01,4.999292931828610009e-01,-3.658038823008757934e-02
2.443231930507477889e-01,4.953726510989959753e-01,-3.912891015481329005e-02
2.463661814947010753e-01,4.922958209867398516e-01,-3.724161249093122655e-02
2.436479438679835519e-01,4.924631715065956317e-01,-4.030531532564352731e-02
2.461234999968138770e-01,4.898408594784894321e-01,-3.796019672224325986e-02
2.411247435581862775e-01,4.843706345223113274e-01,-3.892560240608616134e-02
2.435990526704613635e-01,4.845690602216774501e-01,-4.322841174584855090e-02
2.384684031667317627e-01,4.837613491001768740e-01,-3.498214412734228923e-02
2.375692223048637142e-01,4.795073374133686506e-01,-3.734091840649356175e-02
2.382041724698978624e-01,4.771377401449210520e-01,-3.725451943861000925e-02
2.336197604672470285e-01,4.714607562556222264e-01,-3.743370411496686062e-02
2.295091586968274477e-01,4.739196620772408997e-01,-3.775591574145869406e-02
2.323741939992161054e-01,4.664952015567161991e-01,-3.454071414678174662e-02
2.307215299111378404e-01,4.671281674966657471e-01,-3.697611523470403089e-02
2.302316922053823656e-01,4.588368619001907955e-01,-3.988561960246237575e-02
2.294701635524230010e-01,4.606140591145795882e-01,-3.704390266865368458e-02
2.334632376166595746e-01,4.587743413197449827e-01,-3.785477119479593172e-02
2.235299567782976227e-01,4.565443300077488553e-01,-3.745883270881179145e-02
2.258282339990411169e-01,4.546462065936970887e-01,-3.547289288124422235e-02
2.253113677367545031e-01,4.463134734319857966e-01,-3.798809729021128401e-02
2.255722358343323353e-01,4.523490307073980699e-01,-3.657336313087165836e-02
2.191822497291512351e-01,4.480739165130607771e-01,-3.692178446714611956e-02
2.219849390297494174e-01,4.469873769768168970e-01,-3.415963894430864428e-02
2.214302422830039530e-01,4.437562528939998918e-01,-3.473271895898148026e-02
2.179544359287862720e-01,4.391302539516739323e-01,-3.424748607725104643e-02
2.173566910011453523e-01,4.360718863396411682e-01,-3.217802074646327476e-02
2.136222231910261671e-01,4.383761941805041640e-01,-3.340780441284894875e-02
2.150228429809988295e-01,4.297786817191787123e-01,-3.360421292721981618e-02
2.119103106825398486e-01,4.290640763594068541e-01,-3.698805353137231411e-02
2.155235670779238888e-01,4.309209745696484517e-01,-4.140847660803741864e-02
2.120601746759093742e-01,4.294981017772694920e-01,-3.119884859203323965e-02
2.140453114103997301e-01,4.217686912486408035e-01,-3.250397089179711541e-02
2.097357529016326549e-01,4.215838769505237393e-01,-3.467311408850085735e-02
2.100778311952925803e-01,4.247646603509697694e-01,-3.409855739167594324e-02
2.060001100442295507e-01,4.184890911813098913e-01,-3.928400971942015707e-02
2.032693495349103818e-01,4.148123325956719065e-01,-3.803408421502635361e-02
2.046839803128769619e-01,4.158320587581038619e-01,-3.181994507374798914e-02
2.032967849110566272e-01,4.122435868302966044e-01,-3.261705340507450868e-02
2.027329089209324031e-01,4.091344177479625532e-01,-3.158552679194102236e-02
2.022098964513369956e-01,4.034239905542800209e-01,-3.136977330420329113e-02
2.029712643394727400e-01,4.040094034204697038e-01,-3.532374399547556776e-02
1.989142700064850944e-01,4.013469200483607002e-01,-3.183175090536608659e-02
1.964676218960597909e-01,3.985613248617528859e-01,-3.113925131125773113e-02
1.996853731529354414e-01,4.025106445752652529e-01,-3.297469641524209544e-02
1.973161806680520658e-01,3.966823834680243688e-01,-2.944852153070492279e-02
1.979872220470570710e-01,3.900758304649886710e-01,-3.150428594090062817e-02
1.924212980073936319e-01,3.928071690747818590e-01,-3.034834413543290726e-02
1.924856016748142662e-01,3.861195241377050613e-01,-3.212557806801931426e-02
1.910325212235372272e-01,3.861729454366112368e-01,-3.050951872336520043e-02
1.914033433901905779e-01,3.896325347138945849e-01,-3.267046592403168026e-02
1.898292127936600515e-01,3.836837233954605852e-01,-3.014921350843022263e-02
1.883715199179957223e-01,3.871977840500886447e-01,-3.054024989616361402e-02
1.911435298059427634e-01,3.773819841474129744e-01,-2.600362946678091286e-02
1.835265148861052742e-01,3.746898724583119233e-01,-2.747185359954956024e-02
1.892995411186916555e-01,3.744214568549716904e-01,-2.877214290946294301e-02
1.857859128504986690e-01,3.740209554241233914e-01,-3.146490927401232596e-02
1.840114300841165784e-01,3.749183204146481208e-01,-2.830502492529547026e-02
1.835743145617520777e-01,3.682885687908271088e-01,-2.997007351606266468e-02
1.812504689819943449e-01,3.657705137074824808e-01,-2.795127083676675686e-02
1.789656533588774301e-01,3.684713241036873810e-01,-3.067908998315213923e-02
1.818068107115620724e-01,3.655543175405064349e-01,-2.847245762444563025e-02
1.787919872847988922e-01,3.606402385858253345e-01,-2.914928122816638767e-02
1.792579060556241666e-01,3.618205456385523711e-01,-2.053748365559976766e-02
1.777765588241282391e-01,3.595882347713065808e-01,-2.473707292074923264e-02
1.784581471061353897e-01,3.582897769927690379e-01,-2.411398777517225617e-02
1.795270716328465355e-01,3.572095341683572678e-01,-2.773890399740411294e-02
1.713428577348674320e-01,3.577796435139231068e-01,-2.885422471584980775e-02
1.793912687565737962e-01,3.509667102439872344e-01,-2.733890870054342739e-02
1.758257436561420917e-01,3.509609582268027328e-01,-2.675370563756944084e-02
1.735106623536057380e-01,3.482909710101094181e-01,-2.721167398996523351e-02
1.740049556572469125e-01,3.426952315866228505e-01,-2.857619805801809437e-02
1.722364635209696349e-01,3.458460194310152280e-01,-3.025816901047389401e-02
1.705431687422444553e-01,3.443113740524928468e-01,-3.096602579989973791e-02
1.676266858232045021e-01,3.352079902817950985e-01,-2.569905159311572720e-02
1.688016531978574208e-01,3.402920159260642841e-01,-2.893067679744556683e-02
1.684351589820415607e-01,3.357613297990096335e-01,-3.063555412566861674e-02
1.669786599859907628e-01,3.333025928310561770e-01,-2.719729158022768031e-02
1.654503243392841383e-01,3.283034169495259169e-01,-2.367414536598961422e-02
1.610361436705161353e-01,3.312875182214324865e-01,-2.719772903706873038e-02
1.608339930656277061e-01,3.271221619780625978e-01,-2.132823261544488855e-02
1.636792727806773151e-01,3.263992258390743806e-01,-2.105684300449702645e-02
1.619824357147605920e-01,3.276748000384926973e-01,-2.486772939414277558e-02
1.577482847338381455e-01,3.220350864767497212e-01,-2.347815188927963523e-02
1.611137104695032352e-01,3.213968195160183394e-01,-3.021501061294707552e-02
1.600010787636936826e-01,3.176601177927159125e-01,-2.493942419886173781e-02
1.575849793576664659e-01,3.185974863729730822e-01,-2.849941237370662989e-02
1.621743861841567491e-01,3.151305214472911453e-01,-2.292898616822973759e-02
1.541738870295255581e-01,3.153317271132773936e-01,-2.236059028438641683e-02
1.570356775793282922e-01,3.111074571616379569e-01,-2.220585225841034335e-02
1.532866750317302962e-01,3.109431264879773948e-01,-2.435484797909057142e-02
1.558906918780554596e-01,3.081863276728872281e-01,-2.798080804660664153e-02
1.588237765179402461e-01,3.092483882333981748e-01,-2.306778559451901078e-02
1.537104130308473149e-01,3.090452497364563622e-01,-2.292756359259816301e-02
1.492019975577751623e-01,3.058543643370328358e-01,-2.183723927504040152e-02
1.494911551495423374e-01,3.019031604226389276e-01,-2.747221192608560736e-02
1.527803238142917408e-01,2.954514517037835075e-01,-2.271675358558001082e-02
1.504136932407893756e-01,3.022335268218932502e-01,-2.609630486386070591e-02
1.508824406509663429e-01,3.004124334641082861e-01,-2.428610956137181032e-02
1.509519017212394010e-01,2.989447432293336759e-01,-2.533283290860353226e-02
1.494135989557782151e-01,2.968093176253784882e-01,-2.558810595119411987e-02
1.487583910008250798e-01,2.907719011503531181e-01,-2.408233902027845375e-02
1.438889152292033013e-01,2.949886262253835767e-01,-2.349820769688802310e-02
1.450406161433509811e-01,2.920991127326921788e-01,-1.990416941824178429e-02
1.423236150803309785e-01,2.906143255809304216e-01,-2.173236499037876218e-02
1.429436975770843332e-01,2.907025275987863977e-01,-2.273574663071679589e-02
1.438387123071449558e-01,2.892072437126024798e-01,-2.446006874922379559e-02
1.428512251153234713e-01,2.855094341191514729e-01,-2.506655975948218415e-02
1.413235007636642615e-01,2.855976173177016686e-01,-2.602241665265044371e-02
1.394533101518770635e-01,2.805164255567536569e-01,-2.233688562498117869e-02
1.420311772927863314e-01,2.765785128684169480e-01,-2.183353565663661427e-02
1.412041404697609026e-01,2.834091255247946917e-01,-2.524656826001533960e-02
1.347579049265485440e-01,2.773873198489741343e-01,-2.229925294399913438e-02
1.376733980068471919e-01,2.799141961734229467e-01,-1.780210165314901824e-02
1.393779033411229329e-01,2.728589064206056181e-01,-1.916589144992481009e-02
1.375641727626289723e-01,2.743595579780357396e-01,-2.299518620390917506e-02
1.331158247251864879e-01,2.698312956180577982e-01,-2.501240604829954930e-02
1.343842451647628278e-01,2.729415038150229122e-01,-1.615237180332344813e-02
1.357285449580675762e-01,2.708780802138586741e-01,-2.306471844237825003e-02
1.340094264870844154e-01,2.690949168910195533e-01,-2.257122518607690767e-02
1.313345103907037348e-01,2.688724056355376590e-01,-1.993116814860240379e-02
1.346989565470728678e-01,2.667565649698498409e-01,-2.302726207317746035e-02
1.265913035698338629e-01,2.609232870196534493e-01,-2.268960051096853558e-02
1.348012161894297511e-01,2.625040146046735967e-01,-2.221889685313300014e-02
1.359033618795617016e-01,2.639567843758579557e-01,-1.804861510279385031e-02
1.265346503023381530e-01,2.613115889413609172e-01,-1.845521288863206238e-02
1.277707989872917671e-01,2.599715041758122736e-01,-2.714667955783719999e-02
1.305350587643438753e-01,2.554607791814312856e-01,-1.687091374515824541e-02
1.271097857010884680e-01,2.572306368784068042e-01,-1.909470861879407691e-02
1.255610793360536492e-01,2.552545856090329135e-01,-2.051909297522767212e-02
1.263868920157587561e-01,2.507628503764040562e-01,-2.019279595978254807e-02
1.244655246902780649e-01,2.495836928120479248e-01,-2.278131652702791721e-02
1.261946465217631819e-01,2.532329028110597013e-01,-2.248108604315447040e-02
1.238788421829924297e-01,2.462281187577399777e-01,-2.404298674368574376e-02
1.236570201862974006e-01,2.486218136745312612e-01,-1.907343009325060401e-02
1.192751694263745332e-01,2.458155805635595381e-01,-2.024519780397328675e-02
1.221064541896862976e-01,2.481873047317459668e-01,-1.945178267276498688e-02
1.233374823941163212e-01,2.430258847756177343e-01,-1.797607263215151088e-02
1.259977592110373690e-01,2.451259875199732763e-01,-2.190029242766496076e-02
1.202936821643820348e-01,2.417935280213519555e-01,-1.632111676181751195e-02
1.194033598752618219e-01,2.423097077663527166e-01,-2.165988331133443870e-02
1.204166006116740295e-01,2.406760817203728586e-01,-2.137292412605417899e-02
1.150423420968171573e-01,2.413273952068669959e-01,-1.984868692100645246e-02
1.129764524917248047e-01,2.383304376048448192e-01,-1.988391696964406097e-02
1.137192573953055563e-01,2.399305139399258990e-01,-1.550116927112609247e-02
1.174739892770180760e-01,2.315790749657648806e-01,-1.882825973755203330e-02
1.172791308157158374e-01,2.305355959056766268e-01,-2.103290948544206396e-02
1.152461156486491445e-01,2.321221217474014331e-01,-2.243276922251860248e-02
1.127866013445265325e-01,2.275927839492547233e-01,-2.028182947231991357e-02
1.147445625314863493e-01,2.297227078007282874e-01,-1.950168609187923063e-02
1.154585807940206599e-01,2.294044546792660122e-01,-2.025977915521463835e-02
1.140577943408023903e-01,2.319083419444722960e-01,-1.838130579643788148e-02
1.098634135210410229e-01,2.260926493321366304e-01,-2.443036442281709686e-02
1.103396208190809691e-01,2.207057983862339978e-01,-2.020125207769421505e-02
1.106609509518406143e-01,2.235996546950652919e-01,-1.711271876863696209e-02
1.077627051684099946e-01,2.203158794705308843e-01,-2.031577810272954324e-02
1.051538063761754682e-01,2.169495174348282929e-01,-1.714197340243111406e-02
1.046231896862954841e-01,2.208006008450013880e-01,-1.901753756890592686e-02
1.078424507587799758e-01,2.212160147630228002e-01,-1.819420031143501038e-02
1.056613160744409446e-01,2.159306330143620778e-01,-1.904757841995247114e-02
1.090483896797636021e-01,2.136473165895797777e-01,-1.944933468467358040e-02
1.066688565066461203e-01,2.165224880737832980e-01,-2.234836852547458785e-02
1.090425501906636258e-01,2.144837275378569941e-01,-1.815230540741509871e-02
1.057924560939227376e-01,2.090694710414357782e-01,-1.673816246038727432e-02
1.064180228431950009e-01,2.083351340030867305e-01,-1.271852112676944910e-02
1.047588799849440006e-01,2.108288257716214587e-01,-1.926048585578759090e-02
1.049953433013017801e-01,2.119526729055962178e-01,-1.721856477483502124e-02
1.068761467016014904e-01,2.063785316840697215e-01,-1.907524784055147221e-02
1.097175232838985409e-01,2.088962457320021615e-01,-1.424469087205330713e-02
1.040590475450752644e-01,2.028749011148599790e-01,-2.060599238305264175e-02
9.812368653927819317e-02,2.051164260576294751e-01,-1.874439889402463449e-02
1.019850498931471894e-01,2.056248210583460911e-01,-2.056497283997458375e-02
9.808974961719051089e-02,2.071153272640409992e-01,-1.668341692982542451e-02
9.798179961778522018e-02,2.005754074307813106e-01,-1.502950044380743644e-02
1.000206748083582314e-01,2.002942340121920961e-01,-1.355128964503598578e-02
9.686968734799895897e-02,2.020065864843981762e-01,-1.781117976571939057e-02
9.864983495799947710e-02,1.934811447917248739e-01,-1.899242251800819722e-02
9.905433561466679693e-02,1.934125479709156159e-01,-1.795738040036132938e-02
9.607081299521784412e-02,1.978406710472930541e-01,-1.314561829401555623e-02
9.067643415941202545e-02,2.009391401994224391e-01,-1.917942615114389890e-02
9.803191098807770287e-02,1.915311298936469286e-01,-1.581195861128212657e-02
9.673123967256612443e-02,1.931998567207313111e-01,-1.535403216638569872e-02
9.554394639283650403e-02,1.937123223275412087e-01,-1.175792910963756668e-02
9.371633911260951466e-02,1.943534864808562357e-01,-1.739633371612101659e-02
9.509740096521700214e-02,1.901984582181624472e-01,-1.897554926948736426e-02
9.045141828843077103e-02,1.913571359849550457e-01,-1.866565661350370539e-02
9.713937156269750184e-02,1.872653166881979858e-01,-1.463821397214730771e-02
8.784598293309843486e-02,1.878984816458433016e-01,-1.952621029889414078e-02
8.843197085671249125e-02,1.862017062763749176e-01,-1.385611767911855072e-02
9.468990027165069545e-02,1.816826953250756105e-01,-1.445465946004995811e-02
9.418411694657986832e-02,1.824508136455726126e-01,-1.776742571091844899e-02
9.309503977559974164e-02,1.861447377465235420e-01,-1.380891862298147012e-02
9.317513170453180227e-02,1.778290565885602137e-01,-1.506385960463857768e-02
8.849659793660095974e-02,1.778265310951538392e-01,-1.201285468189365428e-02
9.412794705015162244e-02,1.822663201901955354e-01,-1.582434595169522618e-02
9.073385182395544979e-02,1.837503818706274772e-01,-1.161446673816854576e-02
9.342352224892797041e-02,1.739809596003564218e-01,-1.407249805870270341e-02
8.778370117600854672e-02,1.756955201450783877e-01,-9.918339098816019578e-03
8.389424024938334223e-02,1.728158075347949740e-01,-1.408834610717452952e-02
8.728944929384473139e-02,1.739189124979474699e-01,-1.485683846411611601e-02
8.294919037111841975e-02,1.743124270182347668e-01,-1.076379986446630160e-02
8.927264176619170710e-02,1.706822528379146331e-01,-1.375148840721941018e-02
8.149316378810937678e-02,1.755455566728785777e-01,-1.572228338840519352e-02
8.946290571084565546e-02,1.706934949672550550e-01,-1.311543049574748210e-02
8.267950867149724548e-02,1.725065248354751835e-01,-1.323565006589563775e-02
8.169129037142414118e-02,1.709756103116510106e-01,-1.687814849169820552e-02
8.534153199753559405e-02,1.700461269994530122e-01,-1.265191890935092600e-02
8.667703618810849997e-02,1.655381789558485195e-01,-1.660495485815617969e-02
8.628346772914267937e-02,1.603571209456523261e-01,-1.670329855042451683e-02
8.072417473949410061e-02,1.688611415431570950e-01,-1.443484952326920534e-02
8.402729014693652299e-02,1.642230149914171988e-01,-1.670497486721326044e-02
8.178992695053120821e-02,1.636201872150084002e-01,-1.828292231179253283e-02
8.676354539278266498e-02,1.627314342228017019e-01,-1.529220650815694624e-02
8.660226805889256751e-02,1.631036003961278402e-01,-1.216210572228461351e-02
7.981352368744076831e-02,1.665227528799463341e-01,-1.471670442552036086e-02
7.842011226455522510e-02,1.665671305016731552e-01,-1.489426752214257667e-02
8.089715153702217720e-02,1.598072415162644644e-01,-1.404789341248169170e-02
8.076034288822629692e-02,1.577342609888937319e-01,-1.487933299180099582e-02
7.835533225371299482e-02,1.611087111886760903e-01,-1.358579568412723697e-02
7.530756974441640828e-02,1.638898443960373486e-01,-8.583988715894002794e-03
8.222001968436307151e-02,1.570741347926892795e-01,-1.145447425641493190e-02
7.823616808699343506e-02,1.562620763081375153e-01,-1.267676330442353734e-02
7.886206214407082138e-02,1.562943114201739980e-01,-1.408106977220514866e-02
7.812701572336398781e-02,1.549297002914017396e-01,-1.359914595295914561e-02
7.781369685615138754e-02,1.590147299922959334e-01,-1.004161423111326994e-02
7.572151653830078155e-02,1.528502241153257835e-01,-1.316757955847374685e-02
7.836099479579776428e-02,1.501428202762059294e-01,-1.367106534516165754e-02
7.452576221873331852e-02,1.516848875946514019e-01,-1.035446285748401786e-02
7.315411265631791005e-02,1.505275823454152173e-01,-1.253457781400828079e-02
7.870888551385506193e-02,1.472942306210154040e-01,-1.834409569604762008e-02
7.402057799323662202e-02,1.510862932205012665e-01,-9.738933208189063176e-03
7.037391393219154245e-02,1.490734652185079778e-01,-1.679227208202654226e-02
7.196615674583584088e-02,1.479623795918918461e-01,-9.764126212099084531e-03
7.044532227683056314e-02,1.444017377823038906e-01,-8.881409855749759080e-03
7.515489878946536584e-02,1.431994478152222583e-01,-8.207929936772566729e-03
7.162797022103908895e-02,1.406100103759094500e-01,-1.094732417713540663e-02
7.293706044280405532e-02,1.458974848456971452e-01,-1.382442355462668027e-02
7.187228648463227232e-02,1.416662023049155839e-01,-1.291711827991303199e-02
7.547643040926770019e-02,1.442451373365957468e-01,-9.845971103821068299e-03
7.137227632088759266e-02,1.412432592121506403e-01,-1.119162760361072130e-02
6.799459302601779109e-02,1.452162637244289456e-01,-1.110762295411456962e-02
7.091700263164366080e-02,1.479247253327196920e-01,-1.225436574836649695e-02
6.833690630438338243e-02,1.440099222872175122e-01,-1.326032375446671054e-02
6.748641736337437913e-02,1.430469139544191248e-01,-1.182672739984009375e-02
6.909875280199409553e-02,1.373905575199340923e-01,-1.148925226358864758e-02
6.054577046651510308e-02,1.342203327343121366e-01,-1.110410217864563412e-02
6.735067450010066847e-02,1.389069121298716902e-01,-1.247931003868611027e-02
6.732136226335541651e-02,1.352371539093161212e-01,-1.389681961498002473e-02
6.834285375994592071e-02,1.368850199452006644e-01,-1.032548929656946016e-02
6.834427153210874406e-02,1.375038691360876975e-01,-1.165162058471114030e-02
6.488025451833685786e-02,1.361643393709469907e-01,-1.072908810998924288e-02
6.238063291833575302e-02,1.316530232471939399e-01,-1.593788966271754773e-02
6.649583350380038060e-02,1.355781740799964774e-01,-1.134666294196875341e-02
6.907050266996082877e-02,1.360235981736638844e-01,-8.964453401401655669e-03
6.544729535205282001e-02,1.359129525481574952e-01,-1.279263599971135548e-02
6.608554952356332501e-02,1.296366857846671938e-01,-1.088795128678483534e-02
6.661276022101143834e-02,1.333210998997276797e-01,-1.137412341590233154e-02
6.166449921162663744e-02,1.313221241135940076e-01,-3.499574466172639207e-03
6.256122140867233228e-02,1.251293996362668470e-01,-9.566808441718695905e-03
6.452153922315652379e-02,1.317674330855068687e-01,-1.297116271240621871e-02
6.497294910471464180e-02,1.271838192780608279e-01,-1.253498669207798837e-02
6.244699184732813851e-02,1.263763842977169705e-01,-1.301733620171627651e-02
6.419928214644715636e-02,1.277943163367462887e-01,-9.311987546905296093e-03
5.363758178402670829e-02,1.260513570237182523e-01,-1.279204394980341768e-02
6.187904048168562515e-02,1.295376586842193201e-01,-5.149352347533392958e-03
5.864795928610148923e-02,1.177490346105878327e-01,-1.189515384238947794e-02
6.297664020525527151e-02,1.227573157847839103e-01,-8.584551449665411837e-03
6.089659158022576319e-02,1.197685976650224166e-01,-1.076985802764607834e-02
5.739060898434890368e-02,1.259377963877707507e-01,-1.041819968819441763e-02
6.169062307983168986e-02,1.261832976924609773e-01,-9.677307582608717790e-03
5.784121863132168223e-02,1.221512327505764328e-01,-7.412033758363171035e-03
6.005487769192749403e-02,1.185948945434354002e-01,-9.594347639264325101e-03
5.988705116809645707e-02,1.180244383630008470e-01,-9.151016370886548568e-03
5.819699502146549741e-02,1.164894390558778720e-01,-1.477360015350052090e-02
5.852685783293914978e-02,1.211967158290781499e-01,-1.033188349548705767e-02
6.014729408997481624e-02,1.199158680313212044e-01,-8.863960289620114938e-03
5.775480520441430426e-02,1.185633850568714037e-01,-9.195317377352298441e-03
5.630043613350722148e-02,1.143499188863681959e-01,-1.231769620868972126e-02
5.609123313456595289e-02,1.121975330001493548e-01,-1.355288498805887719e-02
5.911736616139755957e-02,1.149079005105742152e-01,-9.410266874323839487e-03
6.154727198623840406e-02,1.158563790891208450e-01,-1.046021426185750683e-02
5.995126431890511476e-02,1.117749697316978985e-01,-5.124912852823743613e-03
5.458558578638916109e-02,1.149823851226046967e-01,-1.294413576550743246e-02
5.911748551160630333e-02,1.178192521804754533e-01,-1.023388992756017919e-02
5.288366110456956676e-02,1.102340195492885894e-01,-1.170183357530266144e-02
6.098104512586870196e-02,1.120775599572425008e-01,-5.752543129432219869e-03
5.595125645990462609e-02,1.124419682769311341e-01,-1.022473533190750884e-02
5.726136354663037553e-02,1.116578742976441219e-01,-1.262983060789383757e-02
5.312852935030250995e-02,1.098338493932391330e-01,-7.573996420340230878e-03
5.204946036433987649e-02,1.121216235083924290e-01,-9.274214228157351761e-03
5.139813054728124830e-02,1.085710657463433565e-01,-1.018422763284180209e-02
5.382153166251651966e-02,1.064976461310832706e-01,-3.899920242092143503e-03
5.228610499311649867e-02,1.072197499129236842e-01,-1.246951381906008863e-02
5.441542469336209387e-02,1.048271294734679226e-01,-9.633660996156239581e-03
5.109798673589165119e-02,9.960388129318872852e-02,-9.295615540055602796e-03
5.750486557967309648e-02,1.068991668111142074e-01,-1.869396340139430068e-02
5.398301064441817648e-02,1.063630758494000794e-01,-4.733725498284204088e-03
5.624044564254877809e-02,1.053985549015991618e-01,-1.155970545224711300e-02
5.704698649140136496e-02,1.057676524894732295e-01,-1.026890605002741055e-02
5.244620179740500793e-02,1.053420657232936597e-01,-1.080563423231835699e-02
5.030428123625739489e-02,1.062639818264392855e-01,-7.227652511275884685e-03
4.894856745085476163e-02,1.022076093958203813e-01,-7.951933552650704284e-03
5.158515728289470720e-02,1.016753345444135759e-01,-5.310198724558169020e-03
5.160473002037158780e-02,9.899303554984381637e-02,-7.660477151690848856e-03
4.694529889695121111e-02,1.011091272436503985e-01,-8.066941766122801699e-03
5.317510233352978899e-02,1.044398351379179496e-01,-8.072462252284546419e-03
4.863825293405518030e-02,1.001249083708421611e-01,-1.019062682871398756e-02
5.105427546711165804e-02,9.745916086247367882e-02,-1.092886116877894546e-02
4.645837012321590159e-02,1.003894986117323113e-01,-8.577145672811422455e-03
4.913523432925327727e-02,9.762395940593848742e-02,-2.935090063069833652e-03
5.189008065013011456e-02,9.570471982148001655e-02,-5.011155036569662005e-03
5.001207216724287696e-02,1.020486283789081711e-01,-6.156369080729535981e-03
4.602931160176003400e-02,9.890230943837671762e-02,-9.347970206851732508e-03
4.617757173841222085e-02,9.782083083628312359e-02,-4.382531156098443473e-03
4.941073925349351303e-02,9.568329675231121434e-02,-7.531513342644192630e-03
4.537173710277794814e-02,9.467332016549154239e-02,-8.559129053187113090e-03
4.840427220950551529e-02,9.398948698042845773e-02,-8.063768914681272368e-03
4.729664482169885359e-02,9.823073808479533542e-02,-4.301702907638409006e-03
4.514887239913734085e-02,8.955278478886719018e-02,-9.609114684015878857e-03
4.450111370173787106e-02,9.059227487398503753e-02,-5.789269758780490362e-03
4.583697263643479042e-02,9.029695462062142797e-02,-5.012678939260768567e-03
4.232222742272927912e-02,9.106365708630211053e-02,-1.058326835707328051e-02
4.444284551423274832e-02,8.936872623193900522e-02,-8.478672312361355129e-03
4.233928255903960519e-02,9.157010958130411271e-02,-5.756322602288568326e-03
4.816000100335224993e-02,8.988626704867888617e-02,-7.240099782494137035e-03
5.135162717008921740e-02,9.002824170572089335e-02,-7.664089246497703123e-03
4.266274979136160800e-02,8.519425063800281639e-02,-1.026329524318699525e-02
4.204944972501042239e-02,9.227680201353899436e-02,-5.276875508688418960e-03
4.240322767785320579e-02,9.277619271976575432e-02,-7.740795700315734190e-03
4.454138505165224082e-02,9.222030434841030355e-02,-4.873286394703112319e-03
4.272587899381959792e-02,8.868978030721676176e-02,-7.617835681780561578e-03
4.026456538471052948e-02,8.442813664026681264e-02,-7.365988331045188187e-03
4.303734851897503960e-02,8.701331388236709097e-02,-5.809876986398183896e-03
4.627690538441073947e-02,8.921236854756892098e-02,-2.888653548625929983e-03
4.421639807525140631e-02,9.168092462084573291e-02,-6.708976072739674702e-03
4.141549049716244935e-02,8.450864907740174292e-02,-1.036642080542415564e-02
3.935028190989390412e-02,9.009006337036822021e-02,-8.931912976497539264e-03
4.396700269673897016e-02,9.002754136145574293e-02,-1.046943379533784614e-02
4.116641105925294281e-02,7.752053918453107040e-02,-1.041784692219322253e-02
4.424685857519266435e-02,8.289871533133803816e-02,-6.797956899618005054e-03
3.952494960853772388e-02,8.157453253977085816e-02,-8.794298908053213223e-03
4.011191193142275846e-02,8.970193997981924794e-02,-4.427925662062531624e-03
3.537780580430111010e-02,8.022786294551889630e-02,-8.386682834617293150e-03
-2.993629057354700862e-01,3.563522443045966104e-01,2.544099965523331508e-01
-6.267417069869450907e-01,6.028032493159889427e-01,5.138327022119113519e-01
-9.662034071620587694e-01,8.272002713977675281e-01,7.797361552296516729e-01
-1.305637065557296639e+00,1.031019706414324277e+00,1.046087820057468143e+00
-1.633709937059976580e+00,1.220432946626633930e+00,1.313574404750503577e+00
-1.969957294976700579e+00,1.393689035210059934e+00,1.581185488894714330e+00
-2.310570490153906587e+00,1.540803789413365710e+00,1.854918671917712425e+00
-2.643673605209412081e+00,1.682624743764544739e+00,2.120783635688757052e+00
-2.984111800284934279e+00,1.810019729808695077e+00,2.391752679225727096e+00
-3.315781805268732452e+00,1.923682609047048242e+00,2.672920994914047110e+00
-3.655041164089442685e+00,2.025859135215382523e+00,2.944212389232070848e+00
-3.989846926677323768e+00,2.125249098716847307e+00,3.219433308488157230e+00
-4.330684598956665354e+00,2.209428147517390251e+00,3.497647695948215230e+00
-4.666780391036796871e+00,2.291767010544764283e+00,3.778639083296469359e+00
-5.003488414319344102e+00,2.361898909186667783e+00,4.051296617253973054e+00
-5.341069590399157185e+00,2.426849348843231891e+00,4.332089940542962481e+00
-5.667263649958694138e+00,2.484345883696540191e+00,4.612056322620607496e+00
-5.960842190711094446e+00,2.534563625663177611e+00,4.893207172055044296e+00
-6.228517414380111639e+00,2.579358369906056048e+00,5.172418842679689988e+00
-6.472883127038582707e+00,2.624900454753528845e+00,5.453591143239824746e+00
-6.696190589654489322e+00,2.661096886008756268e+00,5.735246954930695473e+00
-6.900716267147046779e+00,2.701170831704819086e+00,6.022375799830263610e+00
-7.089166387361383492e+00,2.730645857900137585e+00,6.294433943025071088e+00
-7.254911427781694400e+00,2.759025887656350484e+00,6.583298937955722074e+00
-7.411420095258852925e+00,2.776139615680112360e+00,6.864758988620646818e+00
-7.555511298883372362e+00,2.799314436536273210e+00,7.151295109909387548e+00
-7.679218994080750704e+00,2.818892811905294504e+00,7.437919684154603139e+00
-7.804802588107965455e+00,2.834432337454656281e+00,7.714566619316003404e+00
-7.910254431999559799e+00,2.848043112065332227e+00,7.997878590993106052e+00
-8.015412641193515597e+00,2.854558987373723156e+00,8.285083419535281379e+00
-8.110836662442910239e+00,2.864463127956421218e+00,8.568241432491049636e+00
-8.193276462961852857e+00,2.876388008436677968e+00,8.851130166764557217e+00
-8.279212898162217726e+00,2.877529862569352836e+00,9.138856251409769982e+00
-8.351284601415821740e+00,2.886283744096446391e+00,9.416310188432357009e+00
-8.418949614633552514e+00,2.886083471501161402e+00,9.706481555516791815e+00
-8.489381393492772432e+00,2.892066835278042536e+00,9.985033670408254736e+00
-8.547556277900110189e+00,2.887026545691894430e+00,1.026935162754133124e+01
-8.613143588438926912e+00,2.886274791381360671e+00,1.055355769696946133e+01
-8.665195838045608667e+00,2.880768713639052070e+00,1.084091781532312737e+01
-8.716226740935937300e+00,2.882029508142429197e+00,1.112266000447789693e+01
-8.769135200761040139e+00,2.871390573274469116e+00,1.140734313638912134e+01
-8.807397463694064399e+00,2.864012684226528549e+00,1.169047801297326927e+01
-8.852898239694416915e+00,2.861988075455677905e+00,1.198026642859099766e+01
-8.899610704418273954e+00,2.855509619950963973e+00,1.225854590365325514e+01
-8.937610034975296713e+00,2.841530716259615730e+00,1.254405204456411660e+01
-8.986439607660688722e+00,2.834874014105788209e+00,1.283024292862503657e+01
-9.018166770780831953e+00,2.824980992980471672e+00,1.311203473822585153e+01
-9.058200679040314895e+00,2.811760802296132233e+00,1.339215850330260338e+01
-9.098065080234167823e+00,2.800214386480960105e+00,1.368088123203367523e+01
-9.135600963063160052e+00,2.784952822951015428e+00,1.396143897745602303e+01
-9.168754777067126938e+00,2.774814259397371696e+00,1.425196263537471708e+01
-9.201783507058960865e+00,2.757487688579294272e+00,1.453049378042099882e+01
-9.237948162985414768e+00,2.738339857363258911e+00,1.481212142421021838e+01
-9.268717303384656603e+00,2.729186572167518143e+00,1.509815261677864484e+01
-9.300533177221288028e+00,2.705631855272335518e+00,1.537952398788078057e+01
-9.336721584923340700e+00,2.691912273643961573e+00,1.566654070206743476e+01
-9.367495864176564879e+00,2.672695057050822331e+00,1.595054139941784399e+01
-9.397713077435842166e+00,2.658623842471144805e+00,1.622930593758964335e+01
-9.433335881062127726e+00,2.642253283539486741e+00,1.651573170057479345e+01
-9.465662583506688321e+00,2.619512096410524737e+00,1.679826852814392879e+01
-9.495064919129998060e+00,2.597076678225410440e+00,1.706585689031641451e+01
-9.517326926377057461e+00,2.575212263115181255e+00,1.729644455513531298e+01
-9.532281964072987890e+00,2.555676000781637036e+00,1.748852901780507096e+01
-9.540014363410396214e+00,2.525416947663244649e+00,1.766264246094076640e+01
-9.549480256603333217e+00,2.506266846165014606e+00,1.780390927085120722e+01
-9.546882915410890291e+00,2.485881557954463972e+00,1.792859539662177681e+01
-9.544734488657987015e+00,2.448668976802819142e+00,1.802918783866442354e+01
-9.534296386312487215e+00,2.421990350625673916e+00,1.810952277961979462e+01
-9.527315557116658340e+00,2.395260146889290453e+00,1.817776094895733863e+01
-9.508690115278930932e+00,2.365438704201301867e+00,1.822129126513937791e+01
-9.499619372465591738e+00,2.339599871849534107e+00,1.826023857633235536e+01
-9.477943113484201376e+00,2.314669246847165684e+00,1.828002861262505618e+01
-9.453337017921601415e+00,2.286494077027926952e+00,1.829153529034685732e+01
-9.431282387701999781e+00,2.256630164448583109e+00,1.829487097716205923e+01
-9.410815067979131143e+00,2.227026678020403772e+00,1.828346928156884132e+01
-9.380673962500274854e+00,2.197767128312406726e+00,1.827092044162952789e+01
-9.352253345254041506e+00,2.166737943999065052e+00,1.824239439511344685e+01
-9.317511634345871485e+00,2.142106700501895666e+00,1.821499921527409782e+01
-9.290886611025850783e+00,2.111303338156895748e+00,1.817539808953217673e+01
-9.260092906604935337e+00,2.086715838485858843e+00,1.813533413366263503e+01
-9.228030266261745496e+00,2.058507739726141317e+00,1.808944732595907112e+01
-9.191938198816080430e+00,2.029993346687755107e+00,1.803699754920893028e+01
-9.156308777536851906e+00,2.004282752852432292e+00,1.798454766889103240e+01
-9.123249019617343691e+00,1.974852722240786118e+00,1.792501434568665530e+01
-9.091745221307931502e+00,1.951733464685834418e+00,1.786079363987293789e+01
-9.051681477649220042e+00,1.921891684907426567e+00,1.779735645649072495e+01
-9.014975561626670242e+00,1.891771302705566926e+00,1.773238712564386432e+01
-8.982130946258710225e+00,1.862535874161219906e+00,1.766405615770814919e+01
-8.944536416212997665e+00,1.840533845018162529e+00,1.758835619573046216e+01
-8.907835107717277268e+00,1.810249798481461170e+00,1.751709560625962325e+01
-8.865854644272694429e+00,1.790656998197898586e+00,1.744141111632264085e+01
-8.827767520897834785e+00,1.764798286782265135e+00,1.737163622991295142e+01
-8.796509424351542705e+00,1.741107812321306181e+00,1.729196766535995877e+01
-8.752866400485405762e+00,1.713635689980060439e+00,1.721631557462708528e+01
-8.719320539983767659e+00,1.689536269262699841e+00,1.714070267294378880e+01
-8.681945639675578974e+00,1.668670452256239001e+00,1.705894227348014880e+01
-8.643819975378280063e+00,1.642482861673846495e+00,1.697689059696453739e+01
-8.601750076145940227e+00,1.616009660210861121e+00,1.689859752250032088e+01
-8.561953210434783301e+00,1.595873706654774349e+00,1.682083603373109071e+01
-8.526901117755263826e+00,1.571552294272345884e+00,1.673802194363486606e+01
-8.484330556825238290e+00,1.550356978808981046e+00,1.665998176623319793e+01
-8.450707030499359007e+00,1.524525153938707467e+00,1.657595761286959757e+01
-8.410706774055130452e+00,1.502678897405315350e+00,1.649738857419193039e+01
-8.377437149875134992e+00,1.476612698890380049e+00,1.641597794636166441e+01
-8.332561751800003691e+00,1.460553299791441439e+00,1.632759772691403555e+01
-8.294494781296636532e+00,1.439943534635525824e+00,1.624730673120573599e+01
-8.255054542802593431e+00,1.411493673528181114e+00,1.617009276393416428e+01
-8.220410586247183460e+00,1.397046405289933624e+00,1.608392151671616688e+01
-8.181764594740021934e+00,1.373676638770244596e+00,1.600746213595829559e+01
-8.139314049475254720e+00,1.358247426831309390e+00,1.592501598581303490e+01
-8.104605351923815704e+00,1.332484175857925113e+00,1.584420828023848316e+01
-8.064696523758076552e+00,1.317273366619325259e+00,1.576526178651915444e+01
-8.024491045243319576e+00,1.290666323971883411e+00,1.568134394600782322e+01
-7.993056331652969249e+00,1.271164721309685053e+00,1.559890266022690319e+01
-7.953150821854910291e+00,1.254715979335324416e+00,1.552237813959467694e+01
-7.917886337678887720e+00,1.235582541050465499e+00,1.543989416879525578e+01
-7.882159391804044901e+00,1.212484685949371199e+00,1.536240428661441015e+01
-7.840696267219873228e+00,1.200943190320272747e+00,1.527627863398116759e+01
-7.805195568105155246e+00,1.178787000644608840e+00,1.520296040391237824e+01
-7.768450551235808632e+00,1.158624468840079969e+00,1.512187113922436410e+01
-7.731572012753038514e+00,1.148312693608794177e+00,1.504520373476182549e+01
-7.700561688429261586e+00,1.123957631614339148e+00,1.496386001306902003e+01
-7.660744181659551622e+00,1.107328710740794975e+00,1.489075111436661913e+01
-7.628909215352334350e+00,1.092584434447029462e+00,1.481306713062047997e+01
-7.591023457663380825e+00,1.075306372479567507e+00,1.473242494437984185e+01
-7.550790128699325976e+00,1.059295487164193972e+00,1.465434488533110269e+01
-7.517795964282268706e+00,1.040259337677267082e+00,1.458489789003473547e+01
-7.477218763213708819e+00,1.019733453685286451e+00,1.450430115735224490e+01
-7.445579409121021008e+00,1.002995293738349725e+00,1.443339309505591395e+01
-7.408898581728669441e+00,9.925404530692035765e-01,1.435031351686203926e+01
-7.373978140645705892e+00,9.706787467217524723e-01,1.427754863187072587e+01
-7.338227568790532729e+00,9.614655706099923815e-01,1.420603700681971659e+01
-7.308646077542127806e+00,9.419513907533176855e-01,1.413258463517135333e+01
-7.270605904033521583e+00,9.278769763416180316e-01,1.406062601315677796e+01
-7.233535704940579514e+00,9.115859589140763442e-01,1.398181732517083375e+01
-7.201076262731366917e+00,8.955185345522397311e-01,1.390738572632268699e+01
-7.168030046284281198e+00,8.829772020143555888e-01,1.383662478229559945e+01
-7.136837430817204897e+00,8.712493297266026282e-01,1.376600869618643408e+01
-7.099125016434826740e+00,8.529692743044908765e-01,1.369372909266965266e+01
-7.063643222055805637e+00,8.411135475354243329e-01,1.362037548496413741e+01
-7.031117227049386464e+00,8.252463811154857609e-01,1.354949148772558232e+01
-6.996248710216162792e+00,8.166664815217362650e-01,1.348086670119437080e+01
-6.964175931348487225e+00,8.002691119012331766e-01,1.340790722146148184e+01
-6.929233381322124075e+00,7.904363161478556998e-01,1.333168316609719994e+01
-6.892111535824140489e+00,7.728653438752258742e-01,1.326682998034201333e+01
-6.862412626540153049e+00,7.571775628793681046e-01,1.319989618434873080e+01
-6.824664721907192977e+00,7.422018175483503510e-01,1.312836390971391687e+01
-6.798634301937943825e+00,7.365287164923417507e-01,1.305642832813810728e+01
-6.761718666021997670e+00,7.190658000041165732e-01,1.298763967820884879e+01
-6.726936790307552094e+00,7.110672001834904554e-01,1.292079483364016923e+01
-6.699715255574974826e+00,6.911429433315752213e-01,1.284996071939985995e+01
-6.666935368160914699e+00,6.840429733601560702e-01,1.278299927280946946e+01
-6.635307630026180625e+00,6.682425121733748252e-01,1.271477320229069541e+01
-6.603085533971710497e+00,6.649391013908728665e-01,1.265058656098335277e+01
-6.568626977764822961e+00,6.498855876491650418e-01,1.258258359480256594e+01
-6.540230257046701468e+00,6.377605826718963922e-01,1.251695883697912315e+01
-6.508479853981147478e+00,6.244147248452188714e-01,1.244814024132774755e+01
-6.474537629076682066e+00,6.189126851206847579e-01,1.238284610139818298e+01
-6.442363137841200071e+00,6.027698671005907727e-01,1.232424417906046621e+01
-6.413402206838574315e+00,5.945002013848839084e-01,1.226198042657400578e+01
-6.379786237116634950e+00,5.793449941151262994e-01,1.219350874510601734e+01
-6.350209367277361849e+00,5.694589846683054679e-01,1.212822161816906608e+01
-6.318188875327034992e+00,5.580458449580459890e-01,1.206416372179765872e+01
-6.289889085237482469e+00,5.486203490034061714e-01,1.199964239455241533e+01
-6.263845083295418448e+00,5.380051155462647339e-01,1.193833824897477847e+01
-6.232071726710641357e+00,5.287499955808404595e-01,1.187876275019352157e+01
-6.199082892969622449e+00,5.169550595794069059e-01,1.181127724919216071e+01
-6.172064079518091440e+00,5.074827707546220035e-01,1.174581570534077635e+01
-6.141388319676925001e+00,4.976994668944462741e-01,1.168492413784584372e+01
-6.107713509234748095e+00,4.901670161588622121e-01,1.162402161434530079e+01
-6.078399653524920510e+00,4.748209650095077117e-01,1.156467320933407272e+01
-6.043914776400704625e+00,4.701539498306230302e-01,1.150294336619601232e+01
-6.019922184492113360e+00,4.603315239533333769e-01,1.144220373301036275e+01
-5.991120050749835002e+00,4.510604662955721711e-01,1.138134749727106154e+01
-5.964964610713308524e+00,4.395418445325371404e-01,1.132311962665720806e+01
-5.931060460553823965e+00,4.329740819788712725e-01,1.126754997305333106e+01
-5.908554663280791708e+00,4.251205921488213080e-01,1.120738058995509157e+01
-5.876227236841621959e+00,4.131047947625665073e-01,1.114279441976930585e+01
-5.847338928163198446e+00,4.058837786870264086e-01,1.108565784507221252e+01
-5.821835088359928356e+00,3.974917503457616741e-01,1.102820869820479643e+01
-5.787106129264549814e+00,3.877703212802947053e-01,1.097425497602787914e+01
-5.762152041088040910e+00,3.874209806499859243e-01,1.090914134061264029e+01
-5.733554633683533019e+00,3.716469359986759313e-01,1.085386407218604710e+01
-5.704125398989820184e+00,3.638721644231140417e-01,1.079551774142412235e+01
-5.676095576818560140e+00,3.602409941204646193e-01,1.074230140577169301e+01
-5.647192026144568722e+00,3.544743853096568031e-01,1.067938969315224718e+01
-5.621978068908171977e+00,3.379839348099328289e-01,1.063200091235097844e+01
-5.589595910066235795e+00,3.323153918641139626e-01,1.056913195843300457e+01
-5.568768666270521805e+00,3.237222781968919771e-01,1.051498702884757641e+01
-5.530818255693221275e+00,3.169571604344184057e-01,1.046198115024209407e+01
-5.513828201420338360e+00,3.111330009353645010e-01,1.040662711710512056e+01
-5.482754852220097952e+00,3.070330186896010338e-01,1.035060193371347559e+01
-5.457225355081620322e+00,2.965354863310447620e-01,1.029514952413451567e+01
-5.427244948856421836e+00,2.918883763860561364e-01,1.024110504904953878e+01
-5.400823222547390223e+00,2.833604382493249974e-01,1.018564728766954630e+01
-5.380112129998538606e+00,2.752940391502898265e-01,1.013124236544918411e+01
-5.356004157545654287e+00,2.665064234176837688e-01,1.007817790389023394e+01
-5.323810426183626987e+00,2.597293391022032494e-01,1.002728492061991616e+01
-5.299874181687442842e+00,2.563943203491354517e-01,9.974152367796451202e+00
-5.270567653628703830e+00,2.515587738197870293e-01,9.920759518420160461e+00
-5.243498396934624495e+00,2.376077796783226947e-01,9.869286709779704125e+00
-5.220381616333273911e+00,2.380398138841159361e-01,9.815857865920898817e+00
-5.195697351792730956e+00,2.288102281881767286e-01,9.766646992354758083e+00
-5.170776888073248756e+00,2.227580984372984074e-01,9.715481712395662939e+00
-5.144279432927458373e+00,2.193435055657655119e-01,9.660004874045631240e+00
-5.115842581560658076e+00,2.090397242800902111e-01,9.613948566702655185e+00
-5.091801541377864559e+00,2.047996803659663800e-01,9.561234911207346698e+00
-5.067450604621028809e+00,2.006030789139257031e-01,9.508061912614614641e+00
-5.041898507583962186e+00,1.942789193843025841e-01,9.457479800054132468e+00
-5.018565662168901653e+00,1.911734517940507083e-01,9.409982855445834460e+00
-4.989761515664870473e+00,1.813101172673834138e-01,9.360072391952721560e+00
-4.967240381222549850e+00,1.780796344196418080e-01,9.309711866834755156e+00
-4.942459777678483768e+00,1.694662759902952620e-01,9.264950591610151776e+00
-4.918523934570955269e+00,1.679464785353267930e-01,9.215236796301519817e+00
-4.891729216423618354e+00,1.608920639209398262e-01,9.164055496389952538e+00
-4.872634333869518386e+00,1.565579563588433698e-01,9.117198125530935116e+00
-4.844461845391332844e+00,1.519758384453659406e-01,9.066962327870527361e+00
-4.824993448386318384e+00,1.488972383192120053e-01,9.019601991026812371e+00
-4.800684355452104590e+00,1.438811142543494070e-01,8.972640720843537920e+00
-4.774005310123238921e+00,1.360666140242448585e-01,8.922476180399774748e+00
-4.753810517221266352e+00,1.302511271167653695e-01,8.882036307713127243e+00
-4.730057939876997075e+00,1.267659440772402335e-01,8.833235133612308942e+00
-4.708384954996308380e+00,1.258213430366497965e-01,8.787546507725410905e+00
-4.678757903013592845e+00,1.157880445620916160e-01,8.733630230730687671e+00
-4.657517670054392767e+00,1.088900405315294528e-01,8.691737684697070421e+00
-4.634688101036881669e+00,1.106004618655699462e-01,8.646782263645649280e+00
-4.615002397830886949e+00,1.094590107416369279e-01,8.599607374468149601e+00
-4.588918729928057161e+00,1.027184678351592967e-01,8.553602538835679781e+00
-4.565026672526403040e+00,9.474017347225179020e-02,8.508671705606605684e+00
-4.542992327628661009e+00,9.373453488110881915e-02,8.464777641897603289e+00
-4.516808438247407409e+00,8.937925843298848150e-02,8.421831096899301983e+00
-4.497131595858705921e+00,8.559227757142674753e-02,8.369316453383873977e+00
-4.475436745126353699e+00,7.914609684025021574e-02,8.334690423346206245e+00
-4.452731595873618886e+00,8.108579335463658722e-02,8.288602151544107954e+00
-4.428812456351533200e+00,6.989964971855862352e-02,8.244628175358950983e+00
-4.411595354300284377e+00,6.645681378837363373e-02,8.203288326903974692e+00
-4.384391384790165880e+00,5.906306320099357493e-02,8.154519734594318336e+00
-4.365867082355301854e+00,6.176847001799757458e-02,8.111456879411255372e+00
-4.343815664045719949e+00,5.409425272944636681e-02,8.070113545992072090e+00
-4.323738865004839838e+00,5.394623920328020517e-02,8.029662353345822012e+00
-4.301148813237493762e+00,4.843487634049947060e-02,7.986246977935840263e+00
-4.279841220322633255e+00,4.661404363092915698e-02,7.940911204093149323e+00
-4.254833062546683031e+00,4.058657466736303315e-02,7.903440470189103451e+00
-4.236665920172713484e+00,4.026798486091968249e-02,7.859270547700228704e+00
-4.215534096434380373e+00,3.704370142916893482e-02,7.817233974763265536e+00
-4.197569320937507342e+00,3.290559940950371631e-02,7.778224016011122011e+00
-4.171380742493595584e+00,2.844837449250394931e-02,7.737493140074880316e+00
-4.151101912216319967e+00,2.151048960908200774e-02,7.697408542841801982e+00
-4.135187515113465828e+00,2.248404680940480072e-02,7.654470184608335614e+00
-4.105883268237157324e+00,1.806921054531751211e-02,7.615487665099506032e+00
-4.090544854599521329e+00,1.680516011629978879e-02,7.571753015880082316e+00
-4.071995973695341497e+00,1.134269558017117832e-02,7.531928956691753996e+00
-4.051090560837942611e+00,8.072593066233989950e-03,7.500391174177732267e+00
-4.029932295233758843e+00,1.337355378971218436e-02,7.457123110111744779e+00
-4.009806924042147003e+00,7.717686879709537498e-03,7.417945825005874738e+00
-3.985211289550480540e+00,-1.045259629096667326e-03,7.375018042077138958e+00
-3.969654874964404279e+00,-3.693880967748542406e-03,7.334091039157767611e+00
-3.948485421690043573e+00,-4.265983381295264561e-03,7.298829747521725864e+00
-3.928224635240722851e+00,1.434939130030963303e-03,7.260837418624877415e+00
-3.910903975112299147e+00,-7.597924386029691543e-03,7.224050152639158284e+00
-3.888878486306365900e+00,-1.727283625960128813e-02,7.185680161916396358e+00
-3.873537586077240746e+00,-1.372716786556095470e-02,7.143854535661393612e+00
-3.851724438127500427e+00,-2.016472735291536394e-02,7.110047594670291460e+00
-3.832558279129004930e+00,-1.842721018884353051e-02,7.071147049609778357e+00
-3.812678615221672285e+00,-2.691749099137724990e-02,7.034408325255746774e+00
-3.792248221464846303e+00,-2.437676441533946636e-02,6.996887215108186453e+00
-3.775298752949381775e+00,-2.849789226008784399e-02,6.963357780841740841e+00
-3.760954878176501204e+00,-2.797212840731598191e-02,6.926049897466675986e+00
-3.734686558941191059e+00,-3.342712116927518129e-02,6.889453322871235130e+00
-3.716645943994391299e+00,-2.971482822060859258e-02,6.848571722619858804e+00
-3.696951299665419022e+00,-3.828206780816889587e-02,6.813623137432205823e+00
-3.682667148255954981e+00,-3.879600539402854736e-02,6.772287837951281197e+00
-3.663373904624146693e+00,-4.043110983218080323e-02,6.739816741452279381e+00
-3.641332278504163078e+00,-4.763831577245608573e-02,6.704451537462680299e+00
