accel_x (m/s^2),accel_y (m/s^2),accel_z (m/s^2)
-1.007255629668697638e+00,-1.356709864879569218e-03,-9.785119167418564246e+00
-1.897437157370683636e+00,9.442595405478669112e-04,-9.788641241840627671e+00
-2.714640822996817082e+00,5.888361937250353876e-04,-9.787562842763289694e+00
-3.440942391412419532e+00,-8.746093984763557080e-03,-9.802049797992529179e+00
-4.100465681049740851e+00,1.244064429980004313e-03,-9.801043510335251341e+00
-4.693358739192945883e+00,5.379845424890830922e-04,-9.781405310831772226e+00
-5.220365624177422781e+00,-1.092093834501481515e-02,-9.808605178905311917e+00
-5.687783919755318607e+00,1.001094054996287371e-03,-9.784250936980710023e+00
-6.124844986672928648e+00,-1.164556363079720727e-02,-9.791561754550054175e+00
-6.514629307451955675e+00,9.885972651240221287e-03,-9.802398823465372502e+00
-6.857314697793498226e+00,7.274248827805527933e-05,-9.797174093568621345e+00
-7.172129328856730268e+00,2.786815366003857208e-03,-9.792709481642486224e+00
-7.455166169377055674e+00,1.907517932174544219e-03,-9.797423448641321642e+00
-7.709542038487827931e+00,5.215772462067297215e-03,-9.790501757206545363e+00
-7.945097348348686417e+00,-1.415540770769063662e-03,-9.800369158769081324e+00
-8.146524946554244195e+00,-1.960741654350440805e-03,-9.785737944378205100e+00
-8.335894237868588519e+00,-3.540292604918784340e-03,-9.781526933521599076e+00
-8.503444225127891443e+00,-3.485612095455291153e-03,-9.791904814589756256e+00
-8.651616942869820193e+00,-9.064602296497872858e-03,-9.791741275292643820e+00
-8.776772748862942564e+00,-1.828831188634584678e-03,-9.809250957379305191e+00
-8.905965208825385560e+00,-3.808011198476142240e-03,-9.808178904652155694e+00
-9.022252132430303107e+00,-3.487425091299877974e-03,-9.795688243087770530e+00
-9.120257051362514744e+00,-2.021629303131141763e-03,-9.794991776408300765e+00
-9.199369390987627071e+00,7.638431805322400993e-03,-9.781790368936182034e+00
-9.286969223229950998e+00,1.055081594799003701e-03,-9.792873618691574578e+00
-9.349128822619537260e+00,-5.475031783719882389e-03,-9.780648262820024641e+00
-9.420184910808387713e+00,4.083811778540241515e-03,-9.790484836115920686e+00
-9.479796921200028592e+00,-5.210560414270370110e-03,-9.785494951887033110e+00
-9.528231059832345196e+00,-3.256391498832469445e-04,-9.798875844509888466e+00
-9.574226831948875471e+00,-2.023966017519301854e-03,-9.809662815323315854e+00
-9.617120461430443967e+00,-1.093087512921718301e-03,-9.799073786600279945e+00
-9.660286896137280976e+00,4.469598691554225317e-03,-9.797747924269751607e+00
-9.697419967277900454e+00,3.600525216560891001e-03,-9.788897474434225643e+00
-9.719585076926303913e+00,7.293740852510606325e-03,-9.787335549654281763e+00
-9.750880744239985631e+00,-8.237939556763329563e-03,-9.796536707862649962e+00
-9.778401416260207313e+00,4.729320817437667433e-03,-9.805681594855016669e+00
-9.794289833863032868e+00,7.559281700129641055e-03,-9.770469097710989814e+00
-9.823572678754066700e+00,-5.098586791016682281e-03,-9.786067878033374967e+00
-9.833168351302095544e+00,-4.290529794504447866e-03,-9.805452299187789933e+00
-9.860393635735553275e+00,-2.158655105630201410e-03,-9.794471130976473816e+00
-9.867885895268184271e+00,-5.836038554191905897e-04,-9.792115250456637554e+00
-9.877845221216736249e+00,-4.750755631334563031e-04,-9.802266276632103370e+00
-9.895499410904015747e+00,5.413624322871865222e-03,-9.789095745695904682e+00
-9.905224497511872173e+00,1.496884912289826210e-02,-9.789454589342378554e+00
-9.914623651578278185e+00,-1.769110198123518846e-03,-9.780226969410147575e+00
-9.918390479555451833e+00,-5.603223801242888068e-03,-9.801263403648080796e+00
-9.936147251469064301e+00,2.774459087543976795e-03,-9.788336685067324794e+00
-9.938621621883450885e+00,1.134554164732214706e-03,-9.781451291457804231e+00
-9.944441828349415147e+00,7.252713480094818976e-03,-9.793468248452503744e+00
-9.961022981941866306e+00,-4.034027737275925132e-03,-9.798148297543207264e+00
-9.962847406487592039e+00,3.773485908183176266e-03,-9.793695360098105596e+00
-9.956809936807218264e+00,2.984328752077507869e-04,-9.800842632811894717e+00
-9.961218764803568604e+00,1.782408740848568989e-03,-9.796302091506749576e+00
-9.968425592783889400e+00,-1.873464408598185266e-03,-9.788713590646912266e+00
-9.974505593244487045e+00,-4.123130167741064118e-03,-9.788005254823779921e+00
-9.974243356591713905e+00,-4.184319079304307408e-04,-9.810548824857127315e+00
-9.970019086895817395e+00,-1.764559546236157614e-03,-9.784669289611551690e+00
-9.973414646530381233e+00,7.794437065294041421e-03,-9.790307852398074218e+00
-9.980777743373124622e+00,-1.024585723981653439e-03,-9.801685571564421551e+00
-9.980798237428103903e+00,-9.010011865067266146e-03,-9.793820116093609585e+00
-9.980864211834045818e+00,-8.820544049577459800e-03,-9.787965329131829151e+00
-9.984664960544268553e+00,2.627710191906200681e-03,-9.777368444532555714e+00
-9.985836865644635907e+00,3.327968097606031055e-03,-9.802324052235322327e+00
-9.995760903621004445e+00,-5.607937944650701750e-03,-9.792896933194109366e+00
-9.992204067337754125e+00,1.524938324160289311e-03,-9.785531577404283254e+00
-9.997470334707928785e+00,8.321024999857470905e-03,-9.785928871317342015e+00
-9.995852478183220313e+00,-4.864606551581320167e-03,-9.808091507470352965e+00
-9.998429426842287526e+00,6.497758615144354254e-04,-9.784988467494128983e+00
-9.994680984147711555e+00,4.979933779153003157e-03,-9.791137116278514796e+00
-1.000213071027842560e+01,1.479035866234715973e-03,-9.785064956818102289e+00
-1.000463010902877059e+01,-1.463868594273283474e-03,-9.797535694549448948e+00
-9.999066699285934945e+00,-7.061937965865931408e-03,-9.781166772685383037e+00
-1.000319622875965386e+01,-7.911256317574096768e-04,-9.802722019191049796e+00
-9.999288912239752136e+00,1.702646985935801468e-03,-9.770388800588321487e+00
-9.995913790440036806e+00,7.712540464995349884e-03,-9.801453949777842567e+00
-9.989555982160741365e+00,-4.259625926479631468e-04,-9.789129742510532139e+00
-9.998000223058124192e+00,4.617102067416271882e-03,-9.801558384797756318e+00
-1.000290753123969800e+01,7.428440001179987011e-04,-9.781810716665532368e+00
-9.992085883470963381e+00,-3.304358154754306887e-03,-9.782726338893036555e+00
-9.997093787995851244e+00,-5.567174831139329490e-03,-9.798369177802383589e+00
-9.999622627448621515e+00,-2.122465280001182859e-03,-9.796568845154435934e+00
-1.000750582227589014e+01,5.383684864883625347e-03,-9.792722125443216186e+00
-9.991129347749300393e+00,2.079324828350766468e-03,-9.779380147432656045e+00
-1.000096713466327181e+01,-3.038097603991241156e-03,-9.790721654914969818e+00
-9.997235918580869907e+00,6.590678585562344260e-03,-9.791138677552892133e+00
-9.993005668750994275e+00,-4.866073268654869458e-03,-9.774924927794556240e+00
-9.995259949427110158e+00,-3.100792575253542935e-03,-9.792737302629443974e+00
-9.996393846695612595e+00,-5.842150442004027076e-03,-9.800387201624410238e+00
-9.986245259009935538e+00,-1.519080414001194998e-03,-9.795322272073891057e+00
-9.993858385314542403e+00,-7.921343137259243645e-04,-9.787403399411170213e+00
-9.998851939873404149e+00,-1.002579823104389478e-02,-9.792818505759143477e+00
-9.994539084729314737e+00,-6.177899341272515173e-03,-9.792699785346115959e+00
-9.996118630229783975e+00,-3.354880693011104420e-03,-9.783825596443804784e+00
-9.997939255522027224e+00,3.249796136613224747e-04,-9.777031551660739339e+00
-1.000128945764460298e+01,5.488758500234465661e-03,-9.805778319089466066e+00
-9.996060003303762542e+00,1.237027243887991318e-03,-9.792603092136028309e+00
-1.000621271869364648e+01,-5.019330151393751500e-03,-9.791785872889995801e+00
-9.995951060035915603e+00,4.808771366936844503e-03,-9.792866312520258631e+00
-1.000429526509933353e+01,-1.512316640575913154e-03,-9.789058891419148978e+00
-9.996683517054616885e+00,1.931832297208377781e-03,-9.793766433912308500e+00
-9.991051562879487591e+00,1.074258030188766748e-02,-9.789465525998997109e+00
-1.000084322560369898e+01,3.643081405206813686e-03,-9.795678348702097082e+00
-9.999480163597590732e+00,4.473470040174521052e-03,-9.799182487869741109e+00
-9.998806969948359935e+00,-7.221339077387226198e-03,-9.801435320790156780e+00
-1.000886296932132602e+01,1.330373883791830013e-03,-9.795819439196723266e+00
-1.000501321651874065e+01,1.341489182389317533e-04,-9.792736238386059000e+00
-1.000204081924339761e+01,5.926141534581364639e-03,-9.796213482583592480e+00
-1.000544693689101017e+01,-5.555380577085311349e-03,-9.795052190821078142e+00
-9.993604145367847025e+00,1.507605737427811926e-03,-9.791140437398730967e+00
-1.000396613895537534e+01,7.780357586475171276e-03,-9.792836490436144459e+00
-9.997231735042914735e+00,-7.716423013015104651e-03,-9.791503364632966111e+00
-1.000192082874676558e+01,1.098104825464314878e-02,-9.800190191679341467e+00
-1.000063724864575931e+01,-4.091309274405000571e-04,-9.798155345625623625e+00
-1.000332653783395642e+01,5.902612236798019350e-03,-9.795782983380830089e+00
-9.999490898378692094e+00,-1.609856500243482926e-03,-9.800179571779908727e+00
-1.000791957962358936e+01,-3.102625689831796634e-03,-9.795897207461568001e+00
-1.000104153741793134e+01,5.416324010514813117e-03,-9.796132730080595152e+00
-9.997704919281195757e+00,8.263401160027404602e-04,-9.799981064577371725e+00
-1.000466158793015126e+01,-3.378052469173884517e-03,-9.797012772842343509e+00
-1.000098089100936249e+01,-1.425685545542764061e-03,-9.785633976210213802e+00
-1.000039243170705028e+01,-2.239216574765439706e-03,-9.783961519126481932e+00
-9.998561679753807496e+00,1.998897062615320828e-03,-9.787879721878685046e+00
-9.998214706832307286e+00,4.767388179848292733e-04,-9.784141578659465210e+00
-9.997494319482255420e+00,5.793464323223211990e-03,-9.794234170793160388e+00
-1.000022646061678167e+01,-3.307699952450640808e-03,-9.793447693978752255e+00
-9.996676865291258096e+00,9.763229737976707092e-04,-9.787691905159535466e+00
-1.000164659720488913e+01,-3.495410570517766286e-03,-9.787631877592136931e+00
-9.997255057772711950e+00,4.298159273139917115e-03,-9.813971183959429467e+00
-1.000074664378197831e+01,4.225637608358679374e-03,-9.793471348818115985e+00
-1.001043080040034461e+01,6.809462490317823302e-03,-9.794753708332775588e+00
-1.000382954708158145e+01,2.942114578877438619e-03,-9.797318179847739117e+00
-1.000479925595738351e+01,-1.582254001198004321e-03,-9.799830902423126489e+00
-1.001142612775986684e+01,-3.774460862241107821e-04,-9.806171709857594010e+00
-1.000144321385107560e+01,-3.676895848974107497e-03,-9.789315154308669165e+00
-9.989260453904719839e+00,-3.907626153579354077e-03,-9.792858207777467072e+00
-9.999283479040004252e+00,2.406214488889288263e-03,-9.785876780024942434e+00
-1.000557711256016447e+01,6.745533620917313830e-03,-9.790243218473673181e+00
-1.000022748069955902e+01,-6.369806739523878325e-03,-9.794318099851327730e+00
-1.000270861280479195e+01,-4.298272031278186863e-04,-9.792276449753076761e+00
-9.994389410876417301e+00,-6.829980356747468624e-03,-9.781159952190984441e+00
-9.990696547112227321e+00,2.166265680638001807e-03,-9.811378100585880446e+00
-1.000642513067088579e+01,-5.877967394970407726e-04,-9.801628775171856489e+00
-9.998802900609064181e+00,4.336210962657278609e-03,-9.793259568139859539e+00
-1.000321136588441284e+01,8.559722438125285261e-04,-9.787373775970143797e+00
-9.996132320276981176e+00,3.743821397997063732e-03,-9.794617342858860098e+00
-9.998775861731642678e+00,-2.424731424016125878e-03,-9.784750574528816358e+00
-1.000504067036475320e+01,-7.441352221079089099e-03,-9.796033772149144170e+00
-9.995765481342552050e+00,-1.860363975315137974e-03,-9.795598993414310840e+00
-9.997268693707679788e+00,-7.309721839153206918e-03,-9.785267697417367572e+00
-1.000563252985114460e+01,5.137151408921018098e-03,-9.789166566879655917e+00
-9.996468623047134017e+00,-1.596809014718042355e-03,-9.798731324927986819e+00
-1.000108164129377997e+01,-2.194706567099082364e-03,-9.790559538995909250e+00
-9.995314381424133643e+00,-3.461275425722869486e-03,-9.795152540735280411e+00
-9.994083653504931775e+00,-1.403405347644710421e-04,-9.804562926079743335e+00
-1.000123564320936786e+01,-2.462552424243258375e-03,-9.803562158086222666e+00
-9.994313586242780545e+00,4.849721997870638963e-03,-9.793262512375649820e+00
-1.000234178843437505e+01,2.234943522986857032e-03,-9.814952129453494933e+00
-9.998024302818159015e+00,1.230858033135720552e-03,-9.798028778277831918e+00
-9.996331173123985891e+00,9.349980229780047343e-04,-9.787438248757458936e+00
-9.998827731596552582e+00,6.346764488238357260e-03,-9.804510338314976536e+00
-1.000090999116979873e+01,-5.230001124385513789e-03,-9.798372708994595115e+00
-1.000055295804217970e+01,-8.072175892134668016e-04,-9.794476038962610431e+00
-9.996723199221646539e+00,-1.055641913476891526e-03,-9.790026620650566613e+00
-9.995003081049866012e+00,5.890021405802392182e-04,-9.791161484203383836e+00
-1.000762017925066161e+01,9.953759660647668039e-03,-9.787704160951230747e+00
-1.000060092202740236e+01,-6.409167386834353081e-03,-9.797079924044531651e+00
-9.989167801814060610e+00,7.746001754995471495e-04,-9.787323544310329027e+00
-9.996945808288437263e+00,-3.920672767471413724e-03,-9.804186258816008248e+00
-9.997327228986588210e+00,-5.911705773646061231e-04,-9.799959986194236805e+00
-9.996396072738470195e+00,3.690113395790370170e-03,-9.795321214827193756e+00
-1.000039702531021923e+01,-2.280628475642658762e-03,-9.802888878134247364e+00
-1.000081740697347499e+01,-1.064392390459689870e-02,-9.784017938803760472e+00
-9.997313344079042707e+00,9.981420692917737474e-04,-9.794360266083216970e+00
-1.000024607265295451e+01,-5.391673842229623322e-03,-9.782998257333128223e+00
-9.997644436017941061e+00,-3.342492717154076651e-04,-9.799113633871538553e+00
-1.001293991024625640e+01,2.417441440857459687e-03,-9.793542749111690426e+00
-9.994347356616072986e+00,-6.200211174642923997e-03,-9.785335397537881619e+00
-1.000193282197779432e+01,-2.517511798162533516e-03,-9.780068946399518737e+00
-9.998709660172789171e+00,1.793721695626422641e-03,-9.789580605174780459e+00
-9.992802088294615359e+00,4.264474277184367342e-03,-9.787960801564112856e+00
-9.996249988489111615e+00,-2.880443709669405598e-03,-9.786542510197817180e+00
-9.999301556848770645e+00,3.977604830772792609e-03,-9.784560507611832492e+00
-1.000115441924942772e+01,-5.290039743474511408e-04,-9.783657334927646332e+00
-1.000131266829698085e+01,-5.065256199147077920e-03,-9.796742918995672511e+00
-1.000712709563040548e+01,-2.367135750621960667e-03,-9.790474801072081235e+00
-1.000141775890128137e+01,3.368530608581337890e-03,-9.807813105094293604e+00
-9.995563715644864899e+00,2.732013190508337554e-03,-9.785171145566406992e+00
-9.995044878822248791e+00,-3.736329425240593211e-03,-9.790348327960415986e+00
-9.996858415426281397e+00,6.960455843219300748e-03,-9.806187087532283186e+00
-9.996065093465663409e+00,-2.373826428608903465e-03,-9.825253365213681533e+00
-9.995766956431964445e+00,2.061689709214478174e-03,-9.799036557194806818e+00
-9.993674529659209327e+00,2.728364877197507390e-03,-9.788333242813905599e+00
-1.000217584682031102e+01,-5.229556005965372081e-03,-9.784320975912619289e+00
-1.000446394982486531e+01,2.639113508657244694e-04,-9.797568660516169814e+00
-1.000195358581583704e+01,3.969795088194621666e-03,-9.798633037461677020e+00
-1.000439220617198721e+01,-6.691117232253910446e-03,-9.793286187525996667e+00
-1.000133858554020527e+01,2.299261481152255118e-03,-9.804053378802592533e+00
-1.000310567607649581e+01,3.526926385293522020e-03,-9.804260083314121133e+00
-1.000150949417391288e+01,3.776259158109868206e-03,-9.805326816248252086e+00
-1.000061580014930840e+01,-2.580753576904779023e-03,-9.794775336692755019e+00
-1.000123814682451417e+01,3.050501083843194274e-03,-9.794251071619346050e+00
-1.000478434750925594e+01,-1.591216949639885072e-03,-9.804278516840421176e+00
-9.996542241798547224e+00,-3.525329424679049962e-03,-9.799068560653998006e+00
-9.999500793833972168e+00,-5.347261176625147522e-03,-9.791825145766383187e+00
-9.991719760238925829e+00,-1.914410525979294477e-03,-9.800152655352810882e+00
-9.991487770033064209e+00,-3.667401493652338012e-03,-9.800562110047746245e+00
-1.000331360119143298e+01,-6.472098940975498822e-03,-9.788723158172107475e+00
-1.000206386233189448e+01,4.887791474121277666e-03,-9.784261574890393831e+00
-1.000577165208045649e+01,2.564567794734263877e-03,-9.788787943212797771e+00
-9.994646055109273064e+00,6.984690039690000414e-03,-9.811101788321137107e+00
-9.994438142742261277e+00,5.387501328872814667e-03,-9.799558190151321568e+00
-1.000066968112699684e+01,6.839008842036574300e-04,-9.801839359185899880e+00
-9.996174247191904172e+00,2.612163013777800760e-03,-9.803057047591575923e+00
-9.995563460592762794e+00,1.217053827945265194e-04,-9.800096496426236925e+00
-9.992696277613996259e+00,4.115885505742362710e-04,-9.800975842159111551e+00
-9.995456963652234350e+00,-1.046228323210029445e-03,-9.794167780134657164e+00
-1.000123299159811729e+01,8.522951000878655620e-03,-9.802143137285485253e+00
-1.000033786793375157e+01,-2.865002351407052068e-03,-9.801699349994871469e+00
-1.000695546357792942e+01,1.126043047139480002e-02,-9.806573965545430482e+00
-9.994445629917638740e+00,-2.312602853621448674e-03,-9.779600111660087691e+00
-1.000585533347798517e+01,3.606911261415420965e-03,-9.779833414600460628e+00
-9.992436031167789778e+00,-6.131978823789126926e-03,-9.777738781046327432e+00
-9.991973129736525294e+00,-5.934602094662434768e-03,-9.784777692765523227e+00
-1.000785718215871967e+01,-1.309593686721401053e-03,-9.799354829268144940e+00
-1.000830205147514462e+01,-1.389261314534576911e-03,-9.808144310179134351e+00
-1.000408239500070273e+01,7.363327701597825216e-03,-9.800926276288430827e+00
-9.990954858908184022e+00,5.205257607599487676e-03,-9.792870964695190139e+00
-1.000036308250807515e+01,7.651754217099204477e-04,-9.808353942437769035e+00
-1.000120178543940597e+01,-3.476130038612803945e-03,-9.767477364200203738e+00
-9.993767060493899734e+00,2.308142024746029451e-03,-9.787448555143759776e+00
-1.000353635663125829e+01,2.774144664707669638e-03,-9.795668183338801072e+00
-1.000559477877415127e+01,-1.676725977651519640e-03,-9.793208617633048618e+00
-1.000684447831388724e+01,6.228739274584140645e-03,-9.789797864958153184e+00
-1.000116110189043717e+01,-3.490549009237202925e-03,-9.787576494919214554e+00
-1.000166423967885621e+01,4.180299374463581838e-03,-9.797395265187722302e+00
-9.996075407558716819e+00,6.460518778300520550e-03,-9.790384200353496880e+00
-9.991430545736331936e+00,6.610196180576572399e-03,-9.796771175204499471e+00
-1.000279257891286377e+01,-4.323995306325999904e-03,-9.792958127322172857e+00
-9.999727487269826298e+00,-1.000637023445180660e-03,-9.782392727885174111e+00
-1.000397942890344893e+01,-2.571236126609957075e-03,-9.788506015225561185e+00
-9.999108035807809713e+00,1.310136585490008412e-03,-9.790682031790346684e+00
-1.000177938302594960e+01,-2.127956277697587006e-03,-9.782424126933985775e+00
-1.000320290087999808e+01,-3.199868999032681911e-03,-9.800199915365851666e+00
-9.992016825590985363e+00,7.464182538824032029e-03,-9.797919101466110448e+00
-9.998004279177617803e+00,-7.045429189286783050e-03,-9.794676436826282639e+00
-9.995152519139702818e+00,-8.427550886362569077e-04,-9.796882304071006686e+00
-9.990552840489970166e+00,3.990588581923590686e-03,-9.793084260703736277e+00
-1.000200396166982131e+01,1.511539641428493331e-03,-9.797851712904579458e+00
-9.998814564029055774e+00,3.174656039032829578e-03,-9.791788990139917104e+00
-1.000335111224059048e+01,6.910460165836335112e-04,-9.788221179268576932e+00
-1.000453004861171813e+01,7.692712411620677634e-03,-9.794273921448045428e+00
-1.000205589734212630e+01,-3.147054065649657409e-03,-9.804235628108051159e+00
-9.991427312841697272e+00,-4.935217537987621021e-03,-9.788771410398531714e+00
-9.999491756348476201e+00,-6.393357459645392614e-04,-9.807980302389363914e+00
-1.000066018258912059e+01,-1.092839044052528949e-02,-9.801077073992187749e+00
-9.997279119791874891e+00,1.205433391648241294e-03,-9.804941780878369428e+00
-9.997342717085700770e+00,1.591970606727443087e-03,-9.784660160080266067e+00
-9.994820115642857772e+00,-2.115409443910815557e-04,-9.785904147795676522e+00
-1.000390445404306838e+01,-4.049107997640198457e-03,-9.800773779852320899e+00
-9.996146061180073872e+00,1.356497999094998918e-03,-9.804691411162131942e+00
-9.994560487879455835e+00,-3.854858386259550889e-03,-9.794607046817999318e+00
-1.000572567815498815e+01,-6.793815770725522389e-03,-9.780111093857263072e+00
-1.000240797789196812e+01,1.447221312893481144e-03,-9.800520147663505099e+00
-1.000134746793226093e+01,-4.067446771228665735e-04,-9.779847541112584253e+00
-1.000829339906786153e+01,2.095305453988624035e-03,-9.805310848873304508e+00
-9.993632596746639507e+00,-4.549074115418716424e-03,-9.805407075068046652e+00
-1.000809859398233037e+01,3.350389181991916604e-04,-9.786018087391724407e+00
-1.000083742918005569e+01,-9.297209733969935899e-03,-9.800395658255768083e+00
-1.000330953472617779e+01,1.577476191661563755e-03,-9.784067729817195413e+00
-1.000144546977877980e+01,6.575290473480167527e-03,-9.801767739418853154e+00
-1.000340470669609161e+01,-2.566353159304010471e-03,-9.808461624168844040e+00
-1.000275975891887903e+01,-3.647510786198611930e-03,-9.788150071359662974e+00
-1.000222392367834523e+01,3.820076825388665775e-03,-9.791703735011585863e+00
-1.000117869472594201e+01,8.642393125625523823e-04,-9.781345385215017174e+00
-9.986198579104367923e+00,-7.854702895548534500e-03,-9.790998167652514184e+00
-9.991768704675187962e+00,1.500342793195548474e-02,-9.787713161669923778e+00
-9.996113325977999509e+00,-2.005161351474113039e-04,-9.789495267477429152e+00
-1.000434710956486661e+01,-8.304457819259950576e-04,-9.794808556468424854e+00
-9.988310261449584004e+00,-2.971736242463585663e-03,-9.798036440211166820e+00
-1.000176122910285059e+01,3.849469321125655475e-03,-9.785201679975157774e+00
-1.000112478554778228e+01,-4.453688739954416343e-04,-9.803675029916757211e+00
-1.001183979836679683e+01,6.213083783971991812e-03,-9.803166834288040477e+00
-1.001177874993113548e+01,8.121275201061433843e-03,-9.790676587767499939e+00
-9.998077388942508748e+00,-4.602742020391187706e-04,-9.779347408597994118e+00
-9.999732912960093145e+00,1.998489862121536047e-03,-9.783370019245456461e+00
-9.995594782420960556e+00,-6.619386367247042562e-04,-9.800859100622501430e+00
-1.000353034557827492e+01,-4.855809442146729812e-03,-9.801092933719413480e+00
-1.000659751325785507e+01,-7.333732061726406896e-03,-9.801989289257276639e+00
-9.994789817743894744e+00,4.008357162295465848e-03,-9.791531297193232675e+00
-1.000333143688109061e+01,-1.791009723855162749e-03,-9.796056227868083610e+00
-1.000123098849846670e+01,-2.987379068463852285e-03,-9.797846166345747676e+00
-9.998280797675139553e+00,1.754926890245953313e-03,-9.797628582358946403e+00
-1.000913667740644719e+01,4.856629003857854468e-04,-9.779263532694216110e+00
-1.000085752735660805e+01,1.433820673493216638e-03,-9.799448304954600175e+00
-9.997729613747916133e+00,3.939055403855816311e-03,-9.813549576113876682e+00
-9.999693577812800882e+00,1.872249939997396365e-04,-9.810745376872290535e+00
-1.000898543542154151e+01,-4.636592517909704850e-03,-9.805745648985622509e+00
-1.000826950580793273e+01,-2.056272818115963911e-03,-9.791019945410077696e+00
-9.997824536112606353e+00,-3.383415639396272333e-03,-9.797217829610502804e+00
-9.994832398176589194e+00,8.783517765709509054e-03,-9.798104172952303514e+00
-9.998332180432511151e+00,-3.134935251317706381e-03,-9.783454878422693568e+00
-1.000847888511919948e+01,7.625945892511538059e-03,-9.793056720201914089e+00
-1.000436438168879505e+01,5.443604556319192643e-04,-9.797882697502767968e+00
-9.991567191812315230e+00,4.898992074333781768e-03,-9.786193601743782722e+00
-1.000307979542703052e+01,-1.422798375628704474e-02,-9.793553232091982252e+00
-1.000088103126134875e+01,8.931293412109924182e-03,-9.807040434635101889e+00
-1.000041259684211781e+01,1.245898904160357102e-03,-9.799237963545310848e+00
-9.995995977928453513e+00,-2.928370533213024100e-03,-9.796195319585001116e+00
-9.991346256922586377e+00,6.400427130858037279e-03,-9.796527896263192758e+00
-9.997830014071553251e+00,-3.035386483578844229e-03,-9.806720123700486624e+00
-1.000082242340421423e+01,-3.475619985800169030e-03,-9.787542869246721011e+00
-9.997814364173111201e+00,1.132065089465492981e-02,-9.794996201109144707e+00
-9.999394785348689751e+00,-1.270837093968457936e-03,-9.787442174118007543e+00
-9.998596420914307004e+00,-7.123499681574288261e-04,-9.793292631280577254e+00
-9.997998863560091820e+00,-4.282251586098463972e-03,-9.790202796114131800e+00
-1.000153787096016167e+01,4.118683259259572731e-03,-9.785116372670183083e+00
-1.000065085105314289e+01,2.946322298571028061e-03,-9.812308662369678913e+00
-9.994578431125177076e+00,-5.424518309785111327e-03,-9.773120634154427222e+00
-1.000056109145315020e+01,-1.805048392605047500e-03,-9.803697986598811198e+00
-1.000408486733275915e+01,3.293107181453570897e-03,-9.801751247694850733e+00
-1.000091996435135400e+01,-3.020293971738794315e-03,-9.784459723427165301e+00
-9.995236653457563847e+00,3.466468695250490752e-03,-9.790882353940109084e+00
-9.997471828623092804e+00,8.058582079003385546e-04,-9.788326576474398522e+00
-1.000543391989131514e+01,-6.651150868430046612e-04,-9.774332252056483483e+00
-1.000240858620919049e+01,4.283713684143319010e-04,-9.802478164060708821e+00
-9.991681185775927787e+00,-7.664548758942104235e-04,-9.781724835827166231e+00
-9.996587971505924486e+00,-6.729363306943582021e-03,-9.788556312165555440e+00
-1.000494550030703955e+01,1.305136469175051167e-03,-9.795970242322347588e+00
-1.000160883616766938e+01,-5.656258655645888221e-03,-9.798185788625714210e+00
-9.999979310446173386e+00,-1.613029452506938586e-03,-9.803102849066119617e+00
-1.000064841357465717e+01,-2.376474165548329333e-03,-9.798114450776074236e+00
-9.999384372408240296e+00,-2.022580597049964107e-03,-9.801580711979628546e+00
-1.000461473528125289e+01,-1.447153744336640785e-03,-9.786607121659645969e+00
-1.000567018384238516e+01,2.809852947615834595e-03,-9.790416139987520694e+00
-9.996000524194224468e+00,3.980779963143963283e-03,-9.793647715176206248e+00
-1.000135360563415787e+01,-6.708743917242757093e-03,-9.792685770690075842e+00
-1.000298580028398554e+01,7.640058045028261420e-03,-9.783188698168920894e+00
-1.000642199033368129e+01,-7.091101753879482973e-04,-9.792121910521858652e+00
-9.991523681811930402e+00,-1.161011359384088795e-02,-9.808169708193135605e+00
-1.000656965900224371e+01,5.979860410973748992e-03,-9.788687484373493675e+00
-1.001167234542465323e+01,7.019428107857611163e-03,-9.780132330275648656e+00
-9.999391561185392518e+00,-6.145016961936706828e-04,-9.800427761991169717e+00
-1.000000105781859183e+01,-9.023530274751209723e-03,-9.795010223772752767e+00
-9.997901035495335265e+00,-3.542555638823976973e-03,-9.796369592854496489e+00
-1.000111011105254377e+01,-3.898026639412403849e-03,-9.790665665462814360e+00
-1.000814402499674927e+01,-3.189256388080794185e-04,-9.799224325175858397e+00
-9.992465056625359665e+00,5.288030819826378646e-03,-9.802596341707671357e+00
-9.993915724047882421e+00,7.173065935708897688e-03,-9.789042606504835931e+00
-9.995707607635738512e+00,8.063701129163013560e-04,-9.784965489677418304e+00
-1.000723789120550045e+01,-6.045363652406533089e-03,-9.786428665184848441e+00
-1.000302158248422302e+01,-1.361720916609992843e-03,-9.785370653905228977e+00
-1.000615853322664250e+01,-4.196914827250564648e-04,-9.784215319048252368e+00
-1.000263878759122704e+01,-8.520888152928429368e-03,-9.802838831554664623e+00
-9.997409427899276224e+00,2.487592213321834864e-03,-9.800105232285323709e+00
-1.000432090354351722e+01,9.291220630028206029e-03,-9.796644216800467930e+00
-9.998893876734513242e+00,5.740556843592991426e-03,-9.812386416482189233e+00
-1.000509487471294001e+01,-3.882713342450209559e-03,-9.792516398805030775e+00
-9.999342838456627192e+00,-7.111265027394134131e-03,-9.785455967304688585e+00
-1.000384173390107989e+01,5.581846969059094804e-03,-9.804846057974208051e+00
-9.998924054342285928e+00,-2.136830034267596292e-03,-9.806092460277110234e+00
-1.000176630871208339e+01,9.892327577171339606e-03,-9.776686737575850827e+00
-1.000436148356963706e+01,1.864349340117620003e-03,-9.802993241287005333e+00
-9.998845399373172071e+00,-9.526448447599091332e-03,-9.786069683463553659e+00
-1.000150442135083395e+01,-6.233284807706241694e-03,-9.793165774191839645e+00
-1.001025067454259165e+01,-7.544902876428947677e-04,-9.789908836863713049e+00
-1.000016975414976628e+01,3.973068115355057710e-03,-9.799280820685480009e+00
-9.993016320507065231e+00,-1.236881513536206402e-03,-9.790183765562362694e+00
-9.999047000753991554e+00,3.673388228920743993e-03,-9.790158125283486612e+00
-9.993768588431262145e+00,-9.604528697502093607e-03,-9.790002966102514748e+00
-9.999053600308352330e+00,-3.032575714194379012e-03,-9.784369996710321260e+00
-9.996506919139736880e+00,-2.268237897866343979e-03,-9.800844920653270620e+00
-9.998467243083149825e+00,4.949200526490562038e-03,-9.809549406156461870e+00
-9.998077173708429299e+00,-3.340256569657527419e-04,-9.786334558502959524e+00
-9.990573432034045354e+00,-4.163519793710077771e-03,-9.793817106292847186e+00
-9.998429973676126181e+00,-2.995052017230816818e-03,-9.794666138283512069e+00
-1.000388850881459035e+01,1.940042377955750359e-03,-9.799061016115700795e+00
-1.000617718400644307e+01,8.595190323259484233e-03,-9.780714526202542558e+00
-1.000233621105295256e+01,-4.292557110114749255e-04,-9.797169618948771586e+00
-9.996198971373798869e+00,1.658842028469044395e-03,-9.806388413593463582e+00
-9.993568789513235018e+00,-9.012982874645478551e-03,-9.795149863480165919e+00
-9.993571828290042092e+00,1.964061223278092648e-03,-9.793026790890323241e+00
-9.995505138370702980e+00,2.351952476896552232e-03,-9.777050448990994624e+00
-1.000754347435989189e+01,5.986713605843873610e-03,-9.784608740222603629e+00
-9.996012376339935557e+00,1.399969912928290946e-03,-9.808979097062939800e+00
-1.000889302596002395e+01,-5.310352279156394135e-03,-9.794421906831308533e+00
-9.990842456178674169e+00,9.148088094449822875e-05,-9.783260239859032481e+00
-9.997184214299387861e+00,4.156373018613763949e-04,-9.773232679770751830e+00
-9.996772412259437246e+00,4.659044926752604551e-04,-9.792294394800522994e+00
-1.000156083560742992e+01,3.098502952617497412e-03,-9.796336338765055274e+00
-9.991967013832047328e+00,-4.134874106046407954e-03,-9.802473550727375695e+00
-1.000222703216912734e+01,-3.467795192863939091e-04,-9.801330888485159321e+00
-9.999852642083023824e+00,-6.349501759740411224e-04,-9.797108393692703032e+00
-9.995158006675318063e+00,2.350982427792076173e-04,-9.797950899683527837e+00
-1.000416237908778783e+01,6.652287152690439936e-03,-9.786376550906036087e+00
-9.991309724537719816e+00,6.313508988687924726e-03,-9.785849131606095597e+00
-9.995453551178473006e+00,1.279199155275661214e-02,-9.798591765721250013e+00
-9.998931868138495105e+00,9.775192924535155775e-05,-9.777330831605967276e+00
-9.998891728253111566e+00,1.481440127160504232e-03,-9.798099101394369015e+00
-9.994060856059499898e+00,-7.525950550713713348e-03,-9.810531589155536025e+00
-9.997408190361991132e+00,1.339990684776698991e-03,-9.805238281660018984e+00
-9.996172198045167434e+00,-9.578780875529780900e-03,-9.806136113016741263e+00
-1.000027243164918822e+01,-5.197802918740531200e-03,-9.800800823018503749e+00
-1.000568050225904493e+01,9.254298469318963244e-03,-9.791534637548222619e+00
-1.000380301286439710e+01,2.377700744371550462e-03,-9.803326125769928012e+00
-9.999310430143619755e+00,9.128669472630013531e-05,-9.792323933590848739e+00
-1.000011925493392617e+01,1.891802335473549593e-04,-9.782462612937971258e+00
-9.993950307653658882e+00,1.253424815438190657e-03,-9.795397813361628181e+00
-9.992342999356269573e+00,-2.246293609168494628e-03,-9.802382384080678079e+00
-9.991932521452142169e+00,7.486299175706211811e-03,-9.801916124510254846e+00
-9.999121474819878230e+00,-5.480450125552381417e-04,-9.803152949665644655e+00
-1.000017160300303942e+01,3.063737013905701214e-03,-9.800273649327643000e+00
-9.998859832635913492e+00,5.657072345907301252e-05,-9.788158462645917268e+00
-9.994575447260817924e+00,2.344174004495582810e-03,-9.794241209612517096e+00
-9.990036538836818636e+00,-2.656487411641828607e-03,-9.786752218649466428e+00
-1.000304990152493190e+01,2.526828262843107582e-03,-9.780506162856305252e+00
-9.997025136924962752e+00,-5.348563493688053734e-03,-9.807474358406391701e+00
-9.993868621964161036e+00,-7.110357743096294009e-03,-9.786609006464406235e+00
-9.999219102497752587e+00,-5.129243392839670209e-04,-9.778730810239546045e+00
-1.000013440155315081e+01,5.014063805650173337e-03,-9.785198708659537559e+00
-9.995399995517894709e+00,1.258355276093019604e-03,-9.811209935664191306e+00
-9.999478589644622772e+00,8.065912928038715922e-04,-9.802174613577102846e+00
-9.997701921865782992e+00,-4.197050037674402573e-03,-9.792987132660112337e+00
-9.995598531368601769e+00,-8.737082508369426598e-03,-9.791904438650801623e+00
-9.999517483472537549e+00,-1.659975777905156472e-03,-9.798628182797367359e+00
-9.999651218644311612e+00,-2.235438995731529530e-03,-9.791883189845334456e+00
-1.000661934687400212e+01,-9.515319576096170715e-04,-9.794150648895605826e+00
-9.992744885337986105e+00,-1.066368200997944030e-04,-9.788315335678786866e+00
-1.000010160444648655e+01,7.169873362580120877e-04,-9.804791434846926279e+00
-9.994750602258829275e+00,4.827298288869006672e-03,-9.805321037090054759e+00
-9.996325543167136729e+00,6.031283528740359568e-04,-9.781699772789050229e+00
-9.991567845720004115e+00,3.431191481339987935e-03,-9.796374534965782033e+00
-9.999368805102159641e+00,2.282582698962977354e-03,-9.798768945587156054e+00
-9.995585656933565488e+00,4.422433113282248952e-03,-9.797557613336254079e+00
-9.994144917201285949e+00,-5.658827507217223038e-03,-9.794269377582073943e+00
-9.998154973874370910e+00,5.738349750500073773e-03,-9.797967738428232209e+00
-1.000175304656694131e+01,-8.418292990190085270e-03,-9.790899249335557997e+00
-1.000517180435821452e+01,6.713342378454120220e-03,-9.802759250767953958e+00
-9.999249956311807352e+00,-3.289729793657943536e-03,-9.793089519581986480e+00
-1.000045114413627445e+01,3.180987956896668811e-03,-9.782841468526401130e+00
-9.993580768974052120e+00,2.867392139299914777e-03,-9.807154122518230821e+00
-9.994027093093116321e+00,-3.318624801639565112e-03,-9.794426214436148470e+00
-9.998272753790747203e+00,7.413734621653387570e-03,-9.796642490257747582e+00
-9.999960763077696768e+00,7.033028884406503903e-05,-9.801268294786083857e+00
-1.000091634900255677e+01,-7.438427727598449432e-03,-9.789592999144876018e+00
-9.999044167614771439e+00,-8.044987617700382135e-03,-9.788273031929206169e+00
-9.995922207516654723e+00,-6.183051587416398681e-03,-9.793212631620123787e+00
-1.000962499216387869e+01,-2.675294362894339948e-03,-9.801900034059361388e+00
-9.993276760901304456e+00,6.015350660244976784e-03,-9.804613894391774664e+00
-9.999312306435198749e+00,-9.976453770053522394e-03,-9.807471639533110519e+00
-9.994979347170595219e+00,2.579676285588347606e-03,-9.797602687470840621e+00
-9.997222738628300576e+00,-2.761476954309392915e-03,-9.788644330052255427e+00
-1.001050145801995406e+01,8.765898381444288748e-03,-9.793778775183925589e+00
-1.000936578428209778e+01,-6.168431478518852408e-03,-9.798285824188235793e+00
-1.000340240274365300e+01,7.889845561638944918e-03,-9.794442424315660034e+00
-9.988087171519213214e+00,-8.016705097334216046e-03,-9.787973195691225925e+00
-9.995404660432750887e+00,4.896235335931358769e-03,-9.794995220054817153e+00
-1.000319700078007656e+01,1.786999391193193993e-03,-9.784743448425370360e+00
-1.000182667181967844e+01,-4.403930606296658189e-03,-9.792125323744066634e+00
-1.000159980596507125e+01,-4.353189840485314523e-03,-9.806476436436115662e+00
-1.000085302987008085e+01,-5.252981086021851309e-05,-9.786557912062816555e+00
-1.000195915402614588e+01,1.013947492885677176e-02,-9.808257419009080991e+00
-1.000009100032864673e+01,-8.719335890068138917e-03,-9.784324983545113597e+00
-1.000030022480568981e+01,-3.652509329526818123e-03,-9.790573497583469731e+00
-1.000098398974346914e+01,2.774153449408192640e-03,-9.792604745250164555e+00
-1.000240849064852888e+01,-1.709253740680105778e-03,-9.798762974113461865e+00
-9.990562830269407613e+00,3.296668669325114424e-03,-9.790791802773162189e+00
-1.000467368528829226e+01,8.102899510829639652e-04,-9.797270901031728485e+00
-9.988386058446335980e+00,-1.098517504925424198e-03,-9.787780231878612014e+00
-1.000004117715960916e+01,-3.649500758566629616e-03,-9.805588336045065745e+00
-1.000250129635690755e+01,4.194065008563657021e-04,-9.799626100415686381e+00
-9.993016605052696733e+00,1.257098706351297140e-02,-9.794810350117041153e+00
-9.996100064173248256e+00,-1.537231601632412360e-04,-9.778827800349631616e+00
-9.999746712001641669e+00,3.199476566142475491e-03,-9.793046764694846473e+00
-1.000654734108340804e+01,4.795469412407221341e-03,-9.806071327246520752e+00
-9.995240432810769349e+00,-1.499509116348210578e-03,-9.795026837859406754e+00
-9.997488731211980451e+00,-1.132837624052405318e-02,-9.808691531773435557e+00
-1.000344638069332959e+01,3.371392011639311442e-03,-9.797045352007764052e+00
-1.000077693395066625e+01,2.081563074156318489e-03,-9.779382633842272909e+00
-1.000514824542530690e+01,5.077393659954377962e-03,-9.786307272346235209e+00
-9.998053163748251038e+00,3.733356154498490998e-03,-9.796211141994795923e+00
-1.000199946967886255e+01,1.760935644341375108e-03,-9.789833209681196635e+00
-1.000414828498499453e+01,-3.132685443055073602e-04,-9.803612937005196315e+00
-9.992147869473269495e+00,-5.754952204006613496e-03,-9.801726384028702554e+00
-9.997249417007068928e+00,6.500486605619608914e-03,-9.795601087830073439e+00
-1.000210754123707346e+01,-5.301259829747220699e-05,-9.789741909264884967e+00
-1.000757937783145124e+01,6.963187540342841457e-04,-9.788816381198946814e+00
-9.995276196777560074e+00,8.894071715218932611e-03,-9.791077697141698621e+00
-1.000078668718309594e+01,5.696444493230573732e-03,-9.790987133423181277e+00
-9.996699886572205429e+00,-2.364299234046020239e-03,-9.801766127777186810e+00
-9.998507182892394596e+00,-7.000865659953282340e-03,-9.796357563792376766e+00
-9.999646476922231741e+00,9.949640602840498704e-05,-9.795230315019404443e+00
-9.992278872371208820e+00,-1.413399909304720791e-03,-9.786406244831439949e+00
-1.000753253405721566e+01,-5.344499534512572826e-04,-9.792383430498079022e+00
-1.000482864317430298e+01,-1.917900011472806372e-03,-9.790645856725578966e+00
-9.992480861485285359e+00,-1.850850164377443752e-03,-9.788069826956737884e+00
-9.996736007881430908e+00,-1.203678447106558717e-03,-9.790402382381413915e+00
-9.999587103748503125e+00,1.426198438591177835e-02,-9.787291971601453255e+00
-1.000576418911446375e+01,1.763033078162334032e-03,-9.786882026729436745e+00
-1.000032901848483213e+01,1.134166259862879299e-03,-9.805732606527771011e+00
-9.996595102357368035e+00,-4.299858437586894823e-03,-9.797770087711814568e+00
-1.000880021969209110e+01,-3.198758226636903585e-03,-9.778342028578290268e+00
-1.000105130092208405e+01,-7.059784824567779012e-03,-9.795917232308710254e+00
-9.993066192368484479e+00,-1.049801890039528396e-02,-9.787674284373061084e+00
-9.992970123667381799e+00,-2.850652768937169106e-03,-9.790632890382930498e+00
-9.997140108032040118e+00,4.215691793986254925e-03,-9.797204314410290493e+00
-1.000164958020769390e+01,-1.078052369628740639e-02,-9.781168474934810675e+00
-1.000318432325215845e+01,-4.996676560084312504e-03,-9.793650370399102911e+00
-1.000104509340531500e+01,-7.045265218859381347e-04,-9.805939745624137061e+00
-1.000117118902656799e+01,-3.771988901707527212e-03,-9.798891516831874426e+00
-1.000393797565039122e+01,9.765465677928663810e-03,-9.804832225882657681e+00
-9.997760147123106123e+00,-1.087083645375225283e-02,-9.798122041219528455e+00
-9.998962013046631014e+00,5.239577377188235109e-03,-9.796640704241854181e+00
-9.997999328396971919e+00,-1.636937201118909271e-03,-9.811478906109858400e+00
-9.999931949187253366e+00,9.866542727861844862e-04,-9.804716479771123261e+00
-9.995448100527880797e+00,5.448588943385421733e-03,-9.794276602033574974e+00
-9.994612680013656103e+00,4.368340267673835424e-03,-9.790981898665547689e+00
-9.992393992056157970e+00,1.224591309141558927e-02,-9.798535294581355970e+00
-9.998482934427942226e+00,-6.806533379608262387e-03,-9.800396928987495926e+00
-9.997926340809776491e+00,5.974315070862883277e-03,-9.795672702932231246e+00
-1.000486483245712321e+01,-5.032147566454512065e-05,-9.788629024383094901e+00
-1.000357067096623531e+01,-4.910349391429263619e-03,-9.788085821869847436e+00
-1.000476593384097690e+01,-7.532415893257820563e-04,-9.798766278718121114e+00
-9.999360476022756572e+00,8.262567958680376579e-03,-9.771092302993491074e+00
-9.998778988563554293e+00,-3.475099633636887907e-03,-9.794616292981148220e+00
-9.996914057506122830e+00,3.249631355424464386e-03,-9.787073493473064545e+00
-9.995577262135874719e+00,-4.076092355978682205e-03,-9.795271679147468546e+00
-9.988625362217645076e+00,3.829174729958065206e-03,-9.801760990827844466e+00
-1.000540086023416286e+01,2.065695285371998372e-03,-9.803763801983071957e+00
-1.000278717404281537e+01,1.982149437227201817e-03,-9.796205487475413420e+00
-1.000778649378721674e+01,5.288715057577850730e-03,-9.793151792654894550e+00
-9.996818802807112547e+00,-7.471035426731116808e-04,-9.790261725646233870e+00
-9.996566162478346840e+00,3.411195678228380688e-03,-9.791888123834466384e+00
-9.992528495882428530e+00,3.024002288426155382e-03,-9.802531814843113978e+00
-1.000013279184325654e+01,-4.516471125374729029e-03,-9.807181034267729913e+00
-1.000792124243355019e+01,-3.108494284763555025e-03,-9.785822389029235069e+00
-9.999668087639774328e+00,5.195991678562306669e-03,-9.794838101427318477e+00
-1.000548354995883038e+01,-3.862165294876430868e-03,-9.790523701016304869e+00
-9.994665420192799132e+00,9.801231170398290622e-04,-9.780806532259051167e+00
-9.999034306786484194e+00,2.954347910099078094e-03,-9.797181324970146932e+00
-9.997670924923923508e+00,-1.194350077159069120e-03,-9.794661518350876506e+00
-9.996877876369834937e+00,-4.496022111384233994e-03,-9.792660078978585148e+00
-1.000566614918329300e+01,-9.926412040242737003e-03,-9.785177767012759986e+00
-1.000503545494902191e+01,-1.486432073533568328e-03,-9.802175817518158141e+00
-9.995903718075608069e+00,-3.838150136179441447e-04,-9.803272591134311043e+00
-9.997150534548978840e+00,-3.976120779356086266e-03,-9.797963940489557544e+00
-9.999794417111303346e+00,-4.308165446171375972e-03,-9.779001166456128047e+00
-1.000420716854826608e+01,-6.810052023155479736e-03,-9.793420745500013069e+00
-1.000081213048768980e+01,-6.860677149094729539e-03,-9.793633795386424978e+00
-9.998886903682040028e+00,7.642498259373760490e-03,-9.781394395763790328e+00
-1.000757868993885680e+01,-9.252296375144487437e-04,-9.821158512627535586e+00
-1.000577552165045603e+01,2.621698187281802477e-03,-9.805370240752949940e+00
-1.000257353923836412e+01,1.327720451430083317e-04,-9.781641873052770109e+00
-1.000251706488218062e+01,1.890086722581017396e-03,-9.788074762048116995e+00
-1.000058049750506761e+01,2.964965643286974865e-03,-9.788510948462350925e+00
-1.000498348879558996e+01,-5.452441261675428433e-03,-9.791033282875233112e+00
-9.996851180924240410e+00,2.336132920030363404e-03,-9.790828918922239055e+00
-9.999051794589023601e+00,-1.953719275289141771e-03,-9.802615931503135371e+00
-9.993055963852077284e+00,5.039028449088146528e-05,-9.803906270445526872e+00
-1.000578302735803682e+01,-1.373296605697899367e-03,-9.786846080727118036e+00
-9.994026306252830949e+00,-1.380140533121037519e-03,-9.799052197618630444e+00
-1.000887667119070557e+01,-4.305086261858613204e-04,-9.785189567889473139e+00
-9.995181841546376234e+00,3.693319950568306389e-03,-9.791296853834293046e+00
-1.000129533343187660e+01,-7.377171226673375458e-03,-9.785616471897380819e+00
-1.001003021793739300e+01,6.877609016599562676e-03,-9.803990469519101580e+00
-9.996023561262562751e+00,-1.617975321479399103e-03,-9.793449587611362972e+00
-9.998358036587941200e+00,2.698713606498995710e-03,-9.785113419133006474e+00
-9.998957119324154874e+00,-6.371133407938674338e-03,-9.780494216761798754e+00
-1.000189193144032629e+01,-3.270536747991895088e-03,-9.790005715349039406e+00
-9.993015436720156686e+00,-2.374425938048741434e-03,-9.804266347155836669e+00
-9.993121390975408858e+00,2.273171548354281299e-03,-9.796539717947968740e+00
-9.994597063673358761e+00,-5.248381801910026109e-03,-9.796094872195110881e+00
-9.993755198405944284e+00,6.211097434323092741e-03,-9.795116523530380093e+00
-1.000142787983347148e+01,-2.907590621338483096e-03,-9.786686866877982283e+00
-9.998871324691451790e+00,4.779629553519902305e-03,-9.796691302687799308e+00
-9.997769762152168838e+00,-1.150539099386626218e-03,-9.804811181805366260e+00
-9.997098171863330052e+00,2.911049598736407430e-03,-9.789294606307837654e+00
-9.997939841134789063e+00,-2.709565337279001319e-03,-9.807442711021877813e+00
-1.000208921445210386e+01,4.936921183615272657e-03,-9.807288712719413937e+00
-1.000154263324474790e+01,3.091650539515917659e-03,-9.784113467780150231e+00
-9.999979141131420945e+00,-3.570135573583516075e-03,-9.783858811158939517e+00
-1.000267230835770427e+01,1.152649168182040237e-04,-9.791536846125373117e+00
-1.000241452583008517e+01,-4.421462736745449505e-03,-9.796368217012949131e+00
-1.000213907581268735e+01,4.770996105114375975e-03,-9.803748573321637849e+00
-1.000026217761495140e+01,-7.350865673789585587e-03,-9.795263102898264407e+00
-1.000495518612805235e+01,-4.977998803072638742e-03,-9.794756127059510931e+00
-9.994409585769131965e+00,8.392326049635634444e-03,-9.799033829599743228e+00
-1.000271342926551021e+01,7.406804336181317498e-03,-9.794085975456908955e+00
-1.000378296470395867e+01,-5.255336599554385514e-03,-9.791641226560907185e+00
-1.000998751569477463e+01,3.668139268530855920e-03,-9.796267026964786240e+00
-9.995022043997366268e+00,7.329898628377309877e-03,-9.780442263544200543e+00
-9.997881292533783437e+00,1.516119634176794906e-02,-9.812993444427538847e+00
-9.999648159447380280e+00,-1.191081883808049573e-02,-9.800435758677414455e+00
-1.000574968952382804e+01,-2.482628034553491323e-03,-9.786873621952228319e+00
-1.000708299648890787e+01,7.642617308952510263e-03,-9.794860303813457847e+00
-1.000082428179358729e+01,-4.914600710849070315e-05,-9.797839875743090232e+00
-9.999816251810138112e+00,-3.056324958691979121e-03,-9.797714583364941276e+00
-9.994805647389068071e+00,-2.930419112279120542e-03,-9.794246421840609784e+00
-1.000108264706816996e+01,4.725424830181889149e-03,-9.795318759206180559e+00
-1.000633281819488651e+01,6.186920437633212054e-03,-9.803783960127081087e+00
-1.000977020373392001e+01,5.237812412785028925e-03,-9.792782021620844546e+00
-9.995427883004854408e+00,-1.615791721301257757e-03,-9.787553648440281862e+00
-1.000227230053665117e+01,-3.985998083946098482e-03,-9.799925365149404044e+00
-1.000031348689466348e+01,3.263822210286702972e-03,-9.799831967786154507e+00
-1.000547827935805856e+01,1.059239817959233779e-03,-9.817593459111634502e+00
-9.995934431713140000e+00,6.644013209351220216e-03,-9.795569070318812521e+00
-1.000435853025089727e+01,-3.090461645266318752e-03,-9.793593963009543657e+00
-1.000363239396465076e+01,-1.714207365504551682e-03,-9.797951311029008181e+00
-1.000165291487674857e+01,1.298383001033417939e-04,-9.805241857108732972e+00
-1.000399822413330320e+01,3.291615581792778247e-04,-9.804689342189943702e+00
-1.000371214629332428e+01,4.812439517263322514e-04,-9.790804946089233241e+00
-9.995272613803692252e+00,-3.177231348545960302e-04,-9.806309394463445628e+00
-1.000244664857135746e+01,-6.354499734775175164e-03,-9.782787447270676395e+00
-1.001012235805363737e+01,5.061023413094029033e-03,-9.790839534869952843e+00
-1.000446171003672369e+01,5.448496395398947680e-03,-9.794563054200226659e+00
-1.000293980965660801e+01,-2.254736007858694729e-04,-9.813891231820429439e+00
-9.993950884185302641e+00,7.235978943643082625e-03,-9.798505643739863658e+00
-9.994557955693622375e+00,1.170853481998664850e-03,-9.801436811415284112e+00
-9.995009125475160516e+00,2.781680573705153179e-03,-9.789765839350422993e+00
-9.996321392253580740e+00,-4.042175261308876728e-03,-9.808102835054800295e+00
-1.000187861694411851e+01,3.722338668669119101e-05,-9.787343382776381162e+00
-1.000078216349223759e+01,1.053281661020594347e-02,-9.790488480811985639e+00
-1.000164330842391003e+01,7.440895117733199379e-03,-9.794797763885501496e+00
-9.994046961813085161e+00,1.133871848481168843e-03,-9.803792005288034517e+00
-1.001019487084456117e+01,1.247703803351392100e-03,-9.787453580605228964e+00
-1.000043060720870791e+01,-6.425009771275952582e-03,-9.803154744855529401e+00
-1.000391460790558895e+01,-6.691536881428410827e-03,-9.802950579495371741e+00
-1.000330478763142850e+01,-3.455886873557791669e-03,-9.794672757298533483e+00
-1.000329044468698925e+01,-1.238978684224488003e-03,-9.783835583121625490e+00
-9.996172882463447706e+00,8.328048441567526688e-03,-9.791191889801929449e+00
-9.998077025151006936e+00,-9.880453977601968540e-04,-9.791319502743249359e+00
-1.000060105701352597e+01,-1.679436291248047298e-04,-9.781479342867161364e+00
-9.997801315005887091e+00,4.962073821896547353e-04,-9.782113116763955674e+00
-9.997302790743441747e+00,4.238001674387288122e-03,-9.793166451885616297e+00
-9.992732956835002511e+00,1.362712555173870065e-03,-9.774291620458686936e+00
-9.992811833273325561e+00,-2.642164151679225834e-03,-9.806389439152328080e+00
-9.989322056125285343e+00,-2.130398897393510557e-03,-9.772795075215553240e+00
-1.000367417692453742e+01,3.827765540927696958e-04,-9.803572245055500289e+00
-1.000531284022682854e+01,-1.961028229727691807e-03,-9.782581294667203053e+00
-1.000517945755840010e+01,-3.066371409246994393e-03,-9.787104251002514133e+00
-9.994442176029446401e+00,-6.441048930321055868e-03,-9.792623757314833810e+00
-1.000102326895373928e+01,-3.008282510139290763e-03,-9.796755475240805922e+00
-1.000538866248559167e+01,-6.322658936385551660e-03,-9.790917371435030603e+00
-1.000565943030877669e+01,3.048129004784800710e-03,-9.798921664235523465e+00
-1.001184012469765960e+01,4.190374195671175625e-03,-9.803945105056971698e+00
-1.000471385538656754e+01,-6.347980539694232476e-03,-9.790898851876665532e+00
-9.997110588140900589e+00,-1.435933018599894109e-03,-9.792831691542513539e+00
-9.993369904818106164e+00,3.980967971309701259e-03,-9.795795173832644309e+00
-1.000129524557891969e+01,-1.706531577513056971e-03,-9.792223874666508010e+00
-1.000447909088269149e+01,-2.913377625280999701e-03,-9.786120187212535626e+00
-9.999091545060595720e+00,-3.909693909630630043e-03,-9.794612159860990985e+00
-9.999004466345247977e+00,-9.567446049838158190e-03,-9.786974861752755217e+00
-1.000100102730614360e+01,2.496099281172524387e-03,-9.784142101538964909e+00
-9.995740601821237803e+00,4.453242762794270074e-03,-9.796398969410086366e+00
-1.000046534038974144e+01,5.104974761764816994e-03,-9.795098983271977033e+00
-1.000016952096707001e+01,-3.388789565688540405e-03,-9.784983239738140881e+00
-9.997259573530968169e+00,2.606652217904258540e-03,-9.808444952793731630e+00
-9.994931675611240962e+00,2.763350691381911278e-03,-9.784412358528035369e+00
-9.997568418437378313e+00,6.332448449093946562e-05,-9.789943209909493405e+00
-9.998348979298206984e+00,-5.027668485654577211e-03,-9.791483349389517699e+00
-9.998307291215065007e+00,2.040229208367261987e-03,-9.791816869457655059e+00
-9.999539390875554545e+00,3.171375590358639293e-03,-9.792186794597618871e+00
-1.000806702385016678e+01,3.837537448593324944e-04,-9.792288645690277349e+00
-1.000449014091482347e+01,4.777000474810101822e-03,-9.800997746267874788e+00
-1.000192301705298092e+01,1.995158414154809320e-03,-9.783066865052902017e+00
-1.000251356578336370e+01,9.522043116551567876e-03,-9.781150968231084875e+00
-1.000380498551090724e+01,1.060662209879715927e-02,-9.806557016272517302e+00
-1.000749389421076785e+01,3.498072468555917230e-03,-9.794221663886157003e+00
-1.000218304081021259e+01,-4.786610884041708823e-04,-9.788873039150164601e+00
-1.000176219024070257e+01,-6.409089426255149859e-03,-9.801900169682879138e+00
-9.995318281987792375e+00,5.371138646260629991e-04,-9.791158407913455264e+00
-1.000718563175864340e+01,2.380522654042383120e-03,-9.799764630851123925e+00
-9.999976011778381135e+00,2.978821908347218175e-03,-9.793025836978138443e+00
-9.995883406924033210e+00,2.992363602515344962e-03,-9.790938203448341426e+00
-9.991969136434118326e+00,-1.187561795052894352e-03,-9.798836808063448700e+00
-1.000188368923851634e+01,-4.710187009073588463e-03,-9.789843639041531986e+00
-9.999672415357826694e+00,1.662746985581105112e-03,-9.789032146866993855e+00
-9.993873205918930580e+00,4.939849913399723541e-03,-9.816506933215254804e+00
-9.999198524584359760e+00,1.791737516222670573e-03,-9.803109617777549190e+00
-1.000825071104552677e+01,-2.015982766933364836e-03,-9.794608354115785787e+00
-1.000482155240746174e+01,8.515257986582610563e-04,-9.782304640063955503e+00
-9.996298709195064802e+00,4.989369931371448290e-03,-9.800959244441836304e+00
-9.988628717261713419e+00,7.352696233849533199e-03,-9.786096050378390032e+00
-1.000117695440427568e+01,4.659432000525595816e-05,-9.798122017222787861e+00
-1.000109201813720361e+01,1.470059880648056933e-04,-9.781814494711058572e+00
-1.000327657335326670e+01,2.129941693666148294e-05,-9.799104173984741095e+00
-1.000813710571594939e+01,3.020068336893740654e-03,-9.790196668971072214e+00
-9.998834054085522283e+00,-4.615893451421356278e-03,-9.784208869570468536e+00
-1.000173146762599430e+01,-2.490930169425148964e-03,-9.799490392922113102e+00
-1.000673517443470750e+01,-8.484162707445211740e-03,-9.783558464934603904e+00
-9.997583059437664232e+00,4.114355256740538647e-03,-9.794966879311859387e+00
-9.993544140844601742e+00,-2.989794000733984533e-03,-9.802338773204747113e+00
-1.001011552352279210e+01,-2.876604297193131703e-03,-9.788552866031670519e+00
-9.998687468036322912e+00,1.388992878919399418e-03,-9.788636319905078764e+00
-1.000071984495895272e+01,-4.470462049851761308e-03,-9.794128474998077039e+00
-1.000345285306330467e+01,-7.074614607220152751e-04,-9.786369255055328509e+00
-9.993440367462040896e+00,-3.738946591624879232e-03,-9.799719147532819363e+00
-1.000145339968604929e+01,9.812361118121527663e-04,-9.796662052263393150e+00
-9.999903299501017528e+00,1.166937227941296099e-03,-9.788788745720305329e+00
-1.000098099442536004e+01,-1.766878233723460879e-03,-9.802438677096237285e+00
-9.998682637679596752e+00,-6.232492003409370943e-03,-9.797691693354403597e+00
-9.993524305314117839e+00,-5.805205823819345121e-03,-9.803265233098624520e+00
-1.000867986893710793e+01,-2.717419689320291600e-04,-9.782970783938118586e+00
-1.000734493219196786e+01,-2.457663114387666561e-03,-9.789556503282312860e+00
-9.997478252996051751e+00,2.415537437680152257e-03,-9.809479089381882844e+00
-9.993305545278648339e+00,8.253638542407831097e-04,-9.793568881819878058e+00
-1.000070418307523568e+01,1.724941374140731001e-04,-9.806108714744109278e+00
-1.000748734473632950e+01,1.721133235752752297e-03,-9.797228920241494166e+00
-1.000597835688995474e+01,5.056466190059778591e-03,-9.784845216667147128e+00
-1.000574808767000512e+01,3.113181521088406387e-03,-9.804250532193030665e+00
-1.000407369362913457e+01,-3.770733865538110005e-03,-9.792723763917720703e+00
-9.999204090469095974e+00,4.302805182961742152e-04,-9.790639705845977758e+00
-9.999817656372371744e+00,7.215928714947571774e-04,-9.799417960295087937e+00
-1.000243223195243480e+01,-9.063728003160855320e-03,-9.792017563342614750e+00
-1.000782531735734793e+01,1.913489979827012700e-03,-9.790676620001443453e+00
-1.000198229253132531e+01,-1.401669635222370120e-04,-9.800937877363018913e+00
-9.990617339645570638e+00,2.025376807834538585e-03,-9.801682967334192753e+00
-9.994454770439464397e+00,2.378664822283643038e-03,-9.785685224452068454e+00
-9.995390302142297401e+00,-5.769153884845609282e-04,-9.804829446868403409e+00
-1.000351161167751890e+01,-2.862453042561199836e-03,-9.797429488936312936e+00
-9.994718317568406007e+00,1.884968496369735565e-03,-9.800412190651744737e+00
-1.000303117760029536e+01,-3.833817850399799838e-03,-9.796027043964627978e+00
-1.000163307137660951e+01,1.952584629900158339e-03,-9.772682922044021225e+00
-1.000235041280065040e+01,-2.026028536980730311e-03,-9.801130534041343267e+00
-1.000483444637461261e+01,2.601591688829520219e-03,-9.812897980379148066e+00
-9.994290193735348993e+00,1.426829619999724942e-02,-9.800311879096957668e+00
-9.998947842684758669e+00,-2.520926524749589424e-03,-9.795416026198923376e+00
-1.000138476879599025e+01,4.918596714286289744e-03,-9.795576292701085208e+00
-9.997009442445305538e+00,-3.820832845767374673e-03,-9.779081945437573253e+00
-1.000153011193002861e+01,-8.108936422158321937e-04,-9.795598822867493283e+00
-9.995389511067690691e+00,3.988495662537090182e-03,-9.809072722690553192e+00
-1.000496067360792019e+01,-1.109957067570811317e-03,-9.795310386098062594e+00
-9.999752559812192132e+00,-4.689713342563082803e-03,-9.795372222006120566e+00
-9.992868808897199528e+00,6.597045621496819452e-03,-9.801096049281770917e+00
-1.000478749548149437e+01,4.421600313159035193e-04,-9.802789024679999130e+00
-1.000946988152073658e+01,3.579701404434276020e-04,-9.793182562929542812e+00
-9.993633722433022726e+00,-7.843790718312167350e-04,-9.798687887368142668e+00
-1.000099333022533266e+01,1.391168318361174147e-03,-9.796162220739883963e+00
-9.996948220794108053e+00,9.600167290289968441e-04,-9.794446788739453069e+00
-1.000127194022075194e+01,-1.342487244971688398e-03,-9.790619831512797688e+00
-1.000691041293842787e+01,4.534742252097386829e-03,-9.794803204635975646e+00
-9.994384835307318582e+00,-1.122065503443709852e-02,-9.808758362876499604e+00
-9.997725324649717749e+00,6.990763354153512604e-03,-9.789840426598690470e+00
-9.997691449280935672e+00,5.429171040142491758e-03,-9.793380158118235812e+00
-1.000652226620986696e+01,-9.623970585179842871e-03,-9.781586548855765173e+00
-9.997550578830047385e+00,-2.678316480569060704e-03,-9.801883472711100609e+00
-1.000264354351338270e+01,3.523043680389521641e-03,-9.774884027151864885e+00
-9.997471961097003756e+00,1.231751459479563451e-03,-9.780563474516620559e+00
-9.999995101439424161e+00,-3.351549744390008509e-03,-9.798501812482760087e+00
-9.999272944738386570e+00,5.275131540565147076e-03,-9.801248796975771782e+00
-9.997459623897681169e+00,-4.042286655068646865e-03,-9.797993042362596938e+00
-9.996156206008040002e+00,-1.849984016116028535e-04,-9.792151214781867452e+00
-1.000378756951122838e+01,-3.260684127801861780e-03,-9.801631629521892819e+00
-1.000402371596398154e+01,4.438485150352220951e-03,-9.796373061415076577e+00
-9.996694913331751309e+00,8.405821870107224938e-03,-9.802957328302976947e+00
-9.998531366391009811e+00,-3.178425608054957427e-03,-9.787051580861543698e+00
-1.000473703967141681e+01,1.259439749625609851e-03,-9.795349027301222478e+00
-1.000557307939045337e+01,-6.625102214464817334e-03,-9.785812763262445202e+00
-9.997980774576276985e+00,9.594009565179240778e-03,-9.803983414708007160e+00
-9.995354740495304924e+00,-6.318675190081831511e-03,-9.802749408159112221e+00
-9.996092741681051663e+00,-7.249585174173065957e-03,-9.788855136593211270e+00
-9.992173562081752891e+00,-3.568510407186245331e-04,-9.796511134435302637e+00
-1.000246571055967237e+01,-4.935467722216268366e-03,-9.799690760314270221e+00
-9.998952665763487957e+00,-1.091251640167704984e-02,-9.793538089182153072e+00
-9.998921429558892626e+00,1.611523731013230322e-03,-9.793811293629097747e+00
-1.000105764871954861e+01,-1.305598967482718116e-03,-9.798925085610409980e+00
-9.985322674364059736e+00,-3.076167352581072288e-03,-9.793443895748279004e+00
-1.000236090308374592e+01,7.939761312129521922e-03,-9.787738091283230801e+00
-9.998860412371152862e+00,1.636490305445408326e-03,-9.799572134215022601e+00
-1.000170032233472206e+01,7.000524300194472735e-03,-9.809733289999998718e+00
-9.994863761117265710e+00,-6.176313681334285981e-03,-9.791997500578524694e+00
-9.997954282470738363e+00,-7.301740223922618435e-03,-9.796187928537417378e+00
-1.000843671416948233e+01,-3.393076191610940734e-03,-9.788620125344889900e+00
-9.995133279786047709e+00,7.650095314345032628e-03,-9.787957682917275193e+00
-9.992342718365890164e+00,-4.509824744592924595e-03,-9.796359016840485268e+00
-9.993175633418054815e+00,-3.561839342449709886e-03,-9.794926124264101475e+00
-1.000007640596929015e+01,-2.619175658331480538e-03,-9.797499384187398519e+00
-9.994982125212709789e+00,1.758678747158450625e-03,-9.798456424857592495e+00
-1.000488901918732765e+01,6.973488148232748034e-03,-9.798575528090536224e+00
-9.996794048944943611e+00,-3.852330232817158511e-03,-9.806240615284304241e+00
-1.000053715856288861e+01,1.341271883175179126e-02,-9.804085095249806869e+00
-1.000667073566482479e+01,-3.316457316740384549e-04,-9.800625491841865156e+00
-9.999891715606251452e+00,3.068495801829619705e-03,-9.807567109358368285e+00
-9.998518238787005075e+00,-2.249972102114244400e-03,-9.799721240533475708e+00
-9.995127933452065960e+00,-7.428947777207955527e-05,-9.789282180110031817e+00
-1.000025822052616498e+01,-5.059911972910835498e-04,-9.796779181599573505e+00
-9.998793468880053936e+00,4.480791679132155488e-03,-9.796698430935144586e+00
-9.998847456146901180e+00,7.197688372398531979e-03,-9.796654294943055064e+00
-1.000300368783725347e+01,-4.813033338952384804e-03,-9.793970885393504133e+00
-1.000444722580623846e+01,-1.368253922264041356e-02,-9.797981781805001233e+00
-1.000239580426011266e+01,1.742775730047401014e-03,-9.785100621569634782e+00
-9.996669708120572651e+00,-2.825622193592522511e-03,-9.794492910646745543e+00
-1.000142656813588005e+01,4.951330682536427864e-03,-9.800439863042004873e+00
-1.000272037378644896e+01,-7.720537731603601891e-03,-9.792462922473628595e+00
-1.000161717121138238e+01,4.631619554520938187e-04,-9.801153484603782218e+00
-9.994170561588433088e+00,-1.841892386768279868e-03,-9.795163551987547734e+00
-1.000123292660794583e+01,-6.636154281830324714e-03,-9.805449266576477640e+00
-1.000315725863149829e+01,-3.372007414445594379e-03,-9.789850335453527563e+00
-1.000326557647982639e+01,3.177962197364924638e-03,-9.787978660264203157e+00
-9.992556514079190322e+00,1.902811289499781698e-03,-9.781866022728824106e+00
-9.997453454689605223e+00,-4.445666546357324861e-03,-9.791395206236494175e+00
-1.000122324542996388e+01,-6.503483765942509945e-03,-9.795199985557504263e+00
-9.987021734802452144e+00,2.604928215738440845e-03,-9.799194997077105285e+00
-1.000076731915562966e+01,-8.239147909837539127e-03,-9.791533677928699220e+00
-1.000372063186425997e+01,4.847333545757057278e-03,-9.797835296001496275e+00
-9.997849787823717804e+00,1.892450051288418339e-03,-9.796441627604316693e+00
-1.001117811871039720e+01,-4.578847250950599315e-03,-9.781991628576999886e+00
-1.000051398740710162e+01,2.333451178237784182e-03,-9.794714475712185120e+00
-1.000231805186051304e+01,-9.596577772378397583e-03,-9.788544066562005597e+00
-9.995917704624385891e+00,4.981497384695296980e-03,-9.790164192493902462e+00
-9.997364532626763278e+00,-1.439168954622591914e-03,-9.807862033549533010e+00
-9.995878615717140647e+00,-3.338020009616738423e-04,-9.790040550138119357e+00
-9.992565449993376703e+00,-3.923401009186220333e-03,-9.781325623424402593e+00
-1.000727419207837166e+01,8.734078811523143110e-03,-9.795913133133060668e+00
-9.993466906670064986e+00,5.866257177424235615e-03,-9.774505523234216398e+00
-9.996499436879247469e+00,-1.527870857666951314e-03,-9.785138015775221021e+00
-1.000085910971855085e+01,-9.614429500751090407e-04,-9.804006077486295823e+00
-1.000106405727608561e+01,1.969909313317660168e-03,-9.794906299846608988e+00
-1.000061951572771157e+01,8.604223788434587836e-04,-9.792206442360052776e+00
-9.990745634197354619e+00,6.853011955703256115e-03,-9.795076665174349273e+00
-1.000002960549370812e+01,2.043473910097296268e-04,-9.796086357829709712e+00
-9.995950825568471032e+00,-4.966183406444179410e-03,-9.782460976209142345e+00
-9.996581406445017137e+00,8.164523865904075792e-03,-9.799934428284272414e+00
-9.992111811177199598e+00,-5.419679958420136386e-04,-9.798736052782807349e+00
-9.989092617016851250e+00,2.956624139388319174e-03,-9.784555890523856547e+00
-9.995053454087329925e+00,8.060885449141680392e-05,-9.792408103547868947e+00
-1.000263648247732640e+01,-6.578715755603477093e-03,-9.791961203591265317e+00
-9.999498091145438750e+00,2.104931050725291145e-03,-9.811178669655491902e+00
-1.000065387515776294e+01,4.947788668127965986e-03,-9.802343617029308120e+00
-1.000307747171528483e+01,6.415400357195054923e-04,-9.779799984596865059e+00
-1.000847316096594142e+01,1.371819928387932102e-03,-9.789132830780213013e+00
-9.993492322975104258e+00,-2.378461690157891890e-03,-9.791990641203804913e+00
-9.998589395357996068e+00,-2.390633826265300130e-04,-9.793587946347980022e+00
-9.993355735480664137e+00,4.271385803349717417e-03,-9.792711819931053441e+00
-1.000065306099522466e+01,-1.097963166381552176e-03,-9.793115151710747313e+00
-9.991999092746658206e+00,-5.426964488988670135e-03,-9.803298151507645386e+00
-1.000473164975177021e+01,-5.969074010518650398e-04,-9.803195450127526911e+00
-9.999875992562161642e+00,-3.437982192836449083e-03,-9.797649094879114173e+00
-1.000535480750220074e+01,-1.312219692007425857e-03,-9.790252867868520781e+00
-9.996045617363678915e+00,-6.154543185613310478e-04,-9.788536832996383552e+00
-1.000409102099857961e+01,-4.026347037685558232e-03,-9.783424905895698132e+00
-9.997726220565169797e+00,-3.885609476110098767e-03,-9.800303002032494604e+00
-1.000298682017599106e+01,-2.875051050925497403e-05,-9.783490530085288128e+00
-1.000570346226967366e+01,8.122942876859860079e-04,-9.796745778130695470e+00
-9.998069877484370593e+00,5.992312640939758371e-04,-9.784123002921537804e+00
-1.001176194478878401e+01,5.215905550938884638e-03,-9.806566328087553686e+00
-9.994325311614534968e+00,2.920547216139209945e-04,-9.803077359722383477e+00
-9.990982036730947868e+00,-7.710811411037475464e-03,-9.795012176555429662e+00
-1.000220123084565138e+01,5.894005000846267404e-03,-9.801951802562657079e+00
-1.000882211609196304e+01,-3.772666938754915857e-05,-9.793877969878684198e+00
-1.000131972144551895e+01,2.059597978675136842e-03,-9.777775130000833315e+00
-1.001105236231536288e+01,3.311651135239698871e-03,-9.787847485093893241e+00
-9.995448422323867987e+00,-6.148037670633305259e-03,-9.774467185783004552e+00
-9.998755132009888413e+00,-2.926850309519599125e-03,-9.789578663234507871e+00
-9.995721718552387003e+00,5.368357504562808885e-03,-9.779838895789060516e+00
-9.994937670915327033e+00,2.013316957752674281e-03,-9.790787784999187338e+00
-9.997134758945717792e+00,2.295119383226658556e-04,-9.777790094848398894e+00
-9.999864166368274354e+00,3.836120915519642890e-03,-9.797757593668874776e+00
-1.000866112223792292e+01,-2.421971690784135815e-03,-9.795466174761484623e+00
-1.000897319348113257e+01,1.624513791117753185e-04,-9.803143178593916929e+00
-1.000038152700667204e+01,2.295319859704718097e-03,-9.782240998137995192e+00
-9.993356658651023849e+00,3.815723129354249674e-04,-9.796254720694996365e+00
-1.000249849586204043e+01,-4.152581417269662206e-03,-9.799114586187112508e+00
-9.998123127820592870e+00,3.360809060447711698e-03,-9.794765147472460853e+00
-9.994122725225444981e+00,-8.040600687223641019e-03,-9.786142200861775109e+00
-1.000405925125410000e+01,-1.211551307011305431e-03,-9.800350579906472959e+00
-9.989004435929837555e+00,5.870743360534333606e-03,-9.793199362027289467e+00
-9.995839996596366461e+00,5.490999809459813294e-03,-9.798532073782526552e+00
-1.000099503595971839e+01,3.275101116731055691e-03,-9.787684842943795260e+00
-9.986685345350897691e+00,8.167811043014175853e-04,-9.791804766762941981e+00
-1.000062536244206690e+01,2.059096753461171878e-05,-9.796548187842121891e+00
-1.000268889558409136e+01,-1.158538112328733310e-03,-9.807606259116978364e+00
-1.000254478674831127e+01,1.294439233828068112e-03,-9.805990655435644854e+00
-9.994962862536796777e+00,8.041862315747810158e-03,-9.811613701187081205e+00
-1.000377468142824178e+01,2.836955114206286301e-03,-9.794318679803950545e+00
-1.000387680976018068e+01,-1.298552289148282614e-02,-9.792381059837431678e+00
-9.994378052689722125e+00,3.952655280034645877e-03,-9.794229802960673581e+00
-9.991646846294866435e+00,1.876152830732441892e-03,-9.795062012818402053e+00
-9.998146933318480478e+00,3.854521802095122601e-03,-9.783615934704686268e+00
-9.997710911143174783e+00,-4.732730531707066493e-03,-9.792621845841960493e+00
-1.000499636465372078e+01,-2.309188556526653533e-03,-9.797172183868097406e+00
-1.001048389371124081e+01,-8.271489999994944414e-03,-9.808706245932132362e+00
-1.000442999685980183e+01,-3.729362197499029347e-04,-9.793678947072864460e+00
-9.999918571477575568e+00,4.276449116514538453e-04,-9.793846818712156121e+00
-1.000161068994662372e+01,-1.150737957880132185e-04,-9.781107688956044655e+00
-1.000273118889658441e+01,6.282299641683785837e-03,-9.800160651416032209e+00
-9.989705203744746242e+00,2.418683458984308057e-03,-9.798978841161735787e+00
-9.996874254348307787e+00,1.318778180674123066e-03,-9.789085694695950579e+00
-1.000431360717837137e+01,1.387818178601740683e-03,-9.778782878888339525e+00
-1.000985283994453923e+01,2.351161729267842344e-03,-9.789351432934097375e+00
-9.996036966047569194e+00,-3.698370607853482695e-03,-9.794217550412602336e+00
-1.000142701745628671e+01,-4.711515491182856862e-03,-9.792337061931775111e+00
-9.996422771040947453e+00,-3.603956236840735999e-03,-9.789563020630176027e+00
-1.000297723985184994e+01,-6.572235697565298983e-03,-9.789020433630090778e+00
-1.000658181454214457e+01,-1.787367150926233526e-03,-9.798119269724788083e+00
-9.994852675194010772e+00,-9.579928197079794899e-03,-9.798137125719859952e+00
-9.996868783417921733e+00,-7.304091366574106542e-03,-9.799999385856079215e+00
-1.000238916225112540e+01,7.542424313130051232e-03,-9.788839605133224708e+00
-9.995602366126981053e+00,5.012690500634861893e-03,-9.791714242614146357e+00
-1.000379272817735199e+01,-6.378055080091381973e-04,-9.804010189427589950e+00
-9.987499783941951037e+00,-3.588088777197920732e-03,-9.809241893476016827e+00
-1.000181959110119934e+01,3.551298973420307400e-04,-9.795116309194339621e+00
-1.001026300893293808e+01,1.256179649930027828e-03,-9.781260872526621242e+00
-9.989691176655847826e+00,7.632101031370660052e-03,-9.800921097361930734e+00
-9.999804255832628996e+00,-1.106421264201432920e-02,-9.804027590024139371e+00
-9.997220733872023146e+00,4.013148157392496841e-03,-9.792242031153300275e+00
-9.993478729761369195e+00,-2.999056440407060591e-03,-9.795513017626307217e+00
-9.999856027455138019e+00,7.954946333149552282e-03,-9.788026516656515241e+00
-1.000601143165008189e+01,-2.358363640385203238e-03,-9.804933862290670987e+00
-9.997750826683688530e+00,7.020978626131247312e-03,-9.800249481256400941e+00
-9.995085824246091377e+00,8.701833507225384054e-03,-9.800726184599616531e+00
-9.996283669629550062e+00,-3.138538589237000950e-03,-9.797857820422088082e+00
-9.995427743440659540e+00,5.555958657060249689e-04,-9.786518841700425853e+00
-1.000406221582507449e+01,5.328106718487556764e-03,-9.803420884715979611e+00
-9.999687091860048227e+00,3.279384250186874461e-03,-9.780190966728543600e+00
-1.000227887880129707e+01,3.021539474127256722e-03,-9.794831024604278014e+00
-1.000579031855107637e+01,2.557419646756058876e-03,-9.783390567618287292e+00
-9.994479558999884716e+00,-5.069858373412428586e-03,-9.786330231024981785e+00
-1.000035735829749761e+01,-1.143116934861752908e-03,-9.796959019775806965e+00
-9.996430692779551208e+00,1.946885213440994024e-03,-9.795954480131033648e+00
-1.000267175604086134e+01,-1.705840168850987146e-03,-9.813923462802245368e+00
-9.995425784089398746e+00,5.012859156412509398e-03,-9.790562059597538891e+00
-9.994459761580575474e+00,1.128113770320882852e-03,-9.806641435784875682e+00
-1.000024986487123080e+01,-2.330217918637269431e-03,-9.792067008737006972e+00
-9.997766195478188678e+00,4.273423002016071490e-03,-9.801219793989373485e+00
-9.997025456788172448e+00,-3.638777426953268036e-03,-9.796354614878644895e+00
-1.000733794215817518e+01,-2.456783840483087785e-03,-9.809148065628923163e+00
-9.998337728614597353e+00,1.546220317749337427e-04,-9.785608131149079014e+00
-9.999206529578035685e+00,6.423288721258474908e-03,-9.782783244470143913e+00
-1.000579874879370834e+01,2.093451308792613954e-03,-9.794036065912358424e+00
-1.000486226035736692e+01,6.164735140013340511e-03,-9.803104696385881667e+00
-9.994056126374408322e+00,6.076569427228584739e-04,-9.794841108769823279e+00
-1.000498615063624186e+01,-5.631248623996661356e-04,-9.777627159737239282e+00
-1.000513335986061314e+01,1.645687552197839729e-02,-9.797030721038918699e+00
-9.996233271707987811e+00,5.298258989835663221e-03,-9.793588997705857224e+00
-9.996131889604136234e+00,4.263983055314965985e-03,-9.799858988132976734e+00
-1.000385178831488275e+01,-3.283700614687748149e-04,-9.788554395983306122e+00
-9.994272761717912346e+00,-1.827280745533761816e-03,-9.802611910043767196e+00
-1.000453458059606682e+01,4.726815820684861745e-03,-9.794098676251596913e+00
-9.998702394485592393e+00,9.009969871867036517e-03,-9.787928452747188146e+00
-9.997517914100095382e+00,1.922888916592064385e-03,-9.797699882206591937e+00
-1.000298555298031111e+01,-4.459833828472915124e-03,-9.795490167149996097e+00
-9.999517733376183770e+00,1.116501438571121906e-03,-9.794110261887663427e+00
-1.000196284608679775e+01,1.954227674151736826e-03,-9.806260522508273070e+00
-1.000197864628631450e+01,4.106312372761804263e-04,-9.806969296582785489e+00
-1.000072740723265596e+01,4.326941305958738326e-03,-9.792595670951742548e+00
-1.000382767044260213e+01,8.606931166645001574e-04,-9.811590824601264416e+00
-1.000165827997053114e+01,3.970954960306423420e-03,-9.795486580582885239e+00
-9.993951795852156650e+00,-6.730037506777414649e-03,-9.796243922459849429e+00
-1.000412738568468463e+01,8.457195817403674945e-03,-9.778364281288897786e+00
-1.000268979208506437e+01,3.244991577186988763e-03,-9.797582803495545889e+00
-1.000306456907132890e+01,7.111244155776802120e-03,-9.807000932375466107e+00
-1.000762948887344450e+01,-7.473455565489056998e-03,-9.790291873156357738e+00
-1.000474811655259622e+01,-5.069895921217637373e-03,-9.798214440330051289e+00
-9.995275470149509900e+00,6.245303483664093810e-03,-9.793241509761710262e+00
-1.000376512216459446e+01,-2.293871222812893414e-03,-9.788461716291722681e+00
-1.000353344246889442e+01,-6.681708205761124246e-04,-9.794162852127955787e+00
-9.993226982693665050e+00,2.075334729668504730e-03,-9.794082235185321395e+00
-1.000277911925589969e+01,4.950100981040769267e-03,-9.788298785399909718e+00
-1.001038573633153916e+01,8.686847459321592408e-04,-9.793771953708136024e+00
-1.000508515941736576e+01,4.498330754110062626e-03,-9.792207157779332150e+00
-9.990630604915564206e+00,-1.589799316322182453e-03,-9.789559935140971447e+00
-1.000420938536818483e+01,7.293010477500181700e-03,-9.797242449500101813e+00
-9.994470755124009287e+00,-9.722634417428180093e-04,-9.785101956976255622e+00
-1.000221200184130232e+01,3.348495014840147284e-03,-9.793260643846844360e+00
-1.000408526163780820e+01,1.046264912808786772e-05,-9.790892956353145493e+00
-9.999887733411510382e+00,-7.693110991855063759e-03,-9.794229633083944009e+00
-1.000438485760686902e+01,-2.728270745129000256e-03,-9.789004494298746195e+00
-9.999474093618212933e+00,-6.940625437228148398e-03,-9.791068867224526073e+00
-1.000631196168561132e+01,-1.636766124220130061e-03,-9.794727987162323402e+00
-1.000182046648484757e+01,-4.639395951201941148e-03,-9.793600148549986173e+00
-9.998224355842092237e+00,9.700967374461832646e-03,-9.806929385811583799e+00
-9.994478462852120160e+00,4.917246056211664780e-03,-9.795425831938423755e+00
-9.997529719937171322e+00,-5.847656553821964538e-03,-9.784956914368596159e+00
-1.000435393170949894e+01,8.896025381886036795e-04,-9.788461419787656936e+00
-9.993106438680690928e+00,-8.500707212844793581e-03,-9.803146699023320920e+00
-1.000342900551851599e+01,-1.465925977881618256e-02,-9.784980112416761244e+00
-1.000246288705703535e+01,2.121973408894606630e-03,-9.784099092419630495e+00
-1.000369912657383686e+01,-3.470807238415643363e-03,-9.800450767763514648e+00
-1.001189282749971099e+01,-3.049039277158496156e-03,-9.800379707890158443e+00
-9.992254071774327784e+00,-5.295852665921205529e-03,-9.792728893322014017e+00
-1.000187010229746853e+01,-6.390502645468291824e-03,-9.793955749413553846e+00
-9.999714726058517300e+00,1.194784574274335718e-03,-9.810462338440197883e+00
-1.000702347013447380e+01,6.076308863901870062e-03,-9.791795273600397920e+00
-1.000124490075552686e+01,9.008447040655995870e-04,-9.798719987394212794e+00
-1.000008163406287665e+01,4.533616733385350574e-03,-9.794427072432917214e+00
-1.000667293310077532e+01,9.009324269780074343e-04,-9.793093439240356801e+00
-1.000427820356509123e+01,2.868958301920183744e-03,-9.792778030086077834e+00
-1.000792559577356755e+01,-4.549829727833783720e-03,-9.800070959236908408e+00
-9.998306986178469913e+00,-2.821152125880585851e-03,-9.793201439831666022e+00
-1.000096915292215627e+01,4.705426927739465512e-03,-9.797096779459895544e+00
-9.993396501741331761e+00,-9.252698812960357625e-04,-9.800405551097234991e+00
-9.992294957892067231e+00,-1.517711351615252426e-02,-9.801615744656031026e+00
-1.000063310373754710e+01,-3.947281689592256095e-03,-9.791093137226761556e+00
-1.000270951481300763e+01,-1.812329291940490339e-03,-9.778110741583130761e+00
-9.997162339676259890e+00,4.620603151572297285e-03,-9.795305468102187163e+00
-1.000865898227648998e+01,4.487195158963119823e-03,-9.782281287315333529e+00
-9.994998781822554079e+00,1.460538821231822503e-03,-9.798132303840707991e+00
-1.001139117639318599e+01,-4.577871032107115427e-03,-9.798308857775804626e+00
-9.996174071520693261e+00,-7.139800318949099736e-03,-9.799468595812868443e+00
-9.999148459126532273e+00,-1.803831302424465126e-03,-9.795459212194618459e+00
