gyro_x (deg/s),gyro_y (deg/s),gyro_z (deg/s)
2.921613322065393786e-02,-1.472925163376201212e-02,1.579641343259664127e-02
-4.321455164079210376e-03,-6.697576618486250633e-02,1.729010598922592346e-02
-5.637467392222001578e-02,-2.548546506608609288e-03,-1.967369729182372965e-03
3.621363691445574767e-02,1.833226838376748533e-02,3.222307402971844731e-02
3.692287766636662139e-02,-5.989986186432591508e-02,1.381113718218378826e-02
-3.740157380007506221e-02,7.899383385956351700e-02,2.313727186852221687e-02
3.542354955387865684e-02,9.414105267453568016e-02,-6.488144682688534726e-02
1.472732196413503898e-02,-2.271147148737481108e-02,-4.492819222619691237e-03
-1.449062940930630379e-04,3.075915386399328058e-02,-4.967052110043888163e-02
-1.609995064116888017e-02,-1.003143458889376068e-02,8.005425680982872216e-02
-5.475977603196097165e-02,1.991075746989140818e-02,-3.786244990073066525e-04
7.961406621366202280e-03,-3.372675689744531607e-02,-3.279564042755004488e-02
3.129989429655219424e-02,1.139155930789451099e-02,2.923678415118307825e-02
-1.234442679841345029e-02,3.961933193080295623e-02,-1.301262776295354466e-02
2.336708888410106086e-02,-2.658865710168940855e-02,-2.387931727160262294e-02
-5.059501473525293558e-02,-7.696571750121728762e-03,-1.602731777967865423e-02
4.265860056187016636e-03,-4.193759136853810604e-02,6.928786462387821754e-02
-2.305247731785126097e-02,-2.762327110367017100e-02,-3.689785239649422122e-02
2.752001142798512698e-02,1.692004958089794037e-02,-5.490808742350633889e-03
-4.392908688595040245e-02,-2.183173111484853351e-02,1.778359028575048420e-02
-8.029609262618590121e-03,-9.723105635627971380e-03,-2.264694762158578345e-02
-3.687309504315103986e-02,2.108823352276158192e-02,1.281112967280501058e-02
-1.859210272502782521e-02,-2.867495097976330287e-02,-3.856709196783533050e-02
4.894839655511127458e-02,1.062055865063345900e-01,-3.426015159341878197e-02
-6.325176981271501964e-02,3.592662203362205486e-02,4.130917304461310252e-02
-1.459374487523690733e-03,-2.424055137501501811e-02,-1.689256074006081215e-02
6.518309280592297916e-02,-3.077748676930898430e-02,3.311458390713591798e-02
2.581972187122741000e-02,4.160381368732419399e-02,-2.306013177826860341e-02
1.663922216877654044e-03,6.093834684089256132e-02,-1.288037097600365499e-01
-6.020253112025555908e-02,2.024154801566147022e-02,8.432351401952044301e-02
8.062863832631032845e-02,6.122651801394524140e-02,3.702882216988021089e-03
1.062578725900451340e-02,1.263361203567241534e-02,-1.877378278097581107e-02
-2.604220851837345599e-02,-9.687727275301838761e-03,-4.040187541096198869e-03
-2.775178325400265086e-02,-2.500496658389697244e-02,8.138504131134632891e-02
3.158719986598893664e-02,-1.201853617010483627e-02,-1.424555319726927491e-02
2.988336401684272420e-02,-2.684888498393075626e-02,-2.018296865246858515e-02
8.124547172538179596e-02,-9.858569817826961720e-03,-4.352271424723882370e-03
-6.922422291507267234e-02,5.581949639755095366e-02,6.129850169330974125e-02
2.223965745078054779e-02,2.684698793290611271e-02,-1.748300533970199508e-02
-5.290648554577848800e-02,-6.008233488227288435e-04,-1.906694858423998995e-02
-3.695028749972757709e-02,-8.694273024580131959e-03,-1.979062680614383785e-02
-5.537991905031628553e-02,-5.516527263338556752e-02,-2.892714613177951866e-02
-2.235800907953411354e-02,2.642697367473969064e-02,2.486639910862873531e-02
3.069142087542706121e-02,-9.030492782721090406e-03,1.475759781490655707e-03
4.996637140725524937e-03,4.910278257606081470e-02,3.363163142269894046e-02
-3.381503964388109240e-02,2.276543750069481495e-02,2.836536365948156072e-02
2.688430554950500123e-02,-7.398476333773192082e-02,3.816260999611356935e-03
5.020178889123426413e-02,5.102113650790334951e-03,-2.784894723954681184e-02
-1.243175022476246915e-02,1.724551678940427352e-02,-5.118102352731081911e-02
-6.470369490598359974e-02,-1.649339366396646023e-02,-2.690547590222061580e-02
5.677403177119837163e-03,6.500072291128397399e-03,-1.000054730028811407e-02
-8.439169858250357426e-02,6.725875796942718497e-03,3.078966018570857693e-02
7.256253603300137633e-02,-5.146480496072925077e-03,5.813631051005163641e-02
-5.058075114232445102e-02,-9.227868592047813734e-02,5.311407024026625762e-02
1.584267745173796940e-02,4.297533235343885261e-02,-3.024201704806693883e-02
-1.607107430404185189e-02,-3.977428933912180962e-03,-4.343464776846628350e-02
7.888229007572319929e-02,4.651107615527064199e-02,-5.285660710453683742e-02
-2.828285071081265353e-02,-1.524093361853342057e-02,-2.552233029531738792e-02
-8.388963232948985771e-02,-2.781943337750293621e-02,3.468726424396307434e-02
-5.250488717583429860e-02,3.109632650563398659e-02,-2.512826243740138091e-02
-4.259958108162295587e-02,1.612543845581701843e-02,-2.403303802066911882e-02
3.309388734990926367e-02,3.266434779019458667e-02,-3.084769202815074857e-03
-7.299090622023804431e-02,3.744243948008538908e-02,-6.032804619107318828e-02
-2.704755224327431637e-02,-1.890748171875599945e-02,1.132911020050346267e-02
5.662439106085521978e-02,-2.331241330469449591e-02,-9.299993681339747964e-02
2.443896697324199341e-02,7.446376525989491235e-02,-5.128814591054964983e-02
7.123996316816214036e-02,-7.246656824010501950e-03,-5.331904389113323317e-02
-4.419745192550485202e-03,-5.357903527366698893e-02,-9.125864195057771522e-02
4.154706590420704365e-02,1.538801044551047804e-02,-3.396046210455139214e-02
-3.497660044676940971e-02,5.944808858936390800e-02,4.918318183852397885e-02
-2.388012673756716858e-02,-9.845611568140793732e-03,5.351260270135062280e-02
-2.445342405554058393e-02,-3.788058266891007608e-02,-5.251957180262896430e-02
-6.710898459474616551e-02,-7.301987441142029391e-03,2.950945121101557905e-02
-7.323345697251617756e-03,4.963876600542089373e-02,-1.203978521572443214e-02
1.290109347832945619e-01,2.915372428324308762e-02,5.204797977555657151e-02
-2.192641242814759132e-03,-2.708356046679652809e-02,9.384251149289124169e-04
-5.746185617268967372e-02,4.090471583795061983e-02,-2.755010354487210864e-02
4.959867813083300436e-02,4.241852795870661857e-02,2.143518378925619167e-02
4.513088131377915313e-02,4.844897591628091749e-02,-4.607344238980374401e-02
-4.220661148721634864e-02,3.979541377830091153e-02,-6.623108377924233348e-02
1.544841842604927074e-02,-5.052991938640048752e-02,-4.324586769800282601e-03
2.919296495705412178e-02,7.257874418556023444e-02,5.181352496880727021e-02
4.702099903474853582e-04,1.946156166843851162e-02,3.444020243745374299e-02
-2.951646118659229448e-02,6.650704607203465624e-02,3.291295208501190256e-02
3.833580623099844265e-02,-1.328314601076520558e-02,-5.568277710596950675e-02
4.059924665529709292e-02,3.126293432848598758e-02,-6.356165655323539609e-02
3.599718000122297673e-02,-1.155911140388378965e-02,5.763782071439280119e-02
2.723269021415082938e-02,-3.159634920843039374e-02,9.711342020413282761e-02
-6.907818712479034395e-02,-3.024810787949551265e-03,-8.944423166836145550e-03
1.943669651191703984e-02,4.333815218007745773e-02,3.345747292395500477e-02
-5.462165634584427443e-02,4.079441092986865053e-02,-1.339020945818750891e-02
1.861158580962725059e-02,7.023339468439322719e-02,6.314792591048819237e-02
-4.322304449647629276e-02,3.620346606244654458e-02,6.248258955415694760e-02
-4.096387435921328493e-03,-3.328799653431122052e-02,-4.027824393283176152e-02
4.283569639130618140e-02,-5.243966192534391807e-02,1.497920587351123621e-02
2.681557803207258511e-04,-2.730584107481315304e-02,-1.278738999567380352e-02
-7.268889259687701110e-02,-8.819192863246685943e-03,1.468694100497410643e-02
-1.192233320567166743e-02,-6.996777746719523919e-03,-9.079467069439152438e-02
5.259524335806722503e-03,2.674262841393575812e-02,1.047329320596833944e-02
-3.352940679844091526e-02,3.388683545698092155e-03,-9.245211345164047745e-02
8.134662389390626136e-02,4.947144623662857316e-02,5.278689983031183142e-02
-4.028575203981703962e-02,-2.209670097043020878e-02,-1.924168751074837105e-02
6.224768181979110915e-02,3.555444931466110459e-02,-2.803868775513140843e-02
5.999926645564859079e-02,3.876721030900582426e-02,-2.378877668598838174e-02
-5.929644029543822137e-02,-6.629443854021466881e-03,-3.488078436438193930e-02
-1.234845046654321939e-02,6.787752393601744275e-04,-3.854496800719416083e-02
-6.913880097228197741e-02,8.407773113677552423e-02,1.645787911381097618e-02
6.553773045652272478e-03,8.949020513031792634e-02,-6.272313039784663258e-02
1.643327440119124504e-03,1.079353812008075099e-02,-9.927531755947904824e-02
1.331997437016172424e-02,-5.852921529901097125e-02,-7.212149492270400822e-03
-3.107879581711173872e-02,1.622393238261077980e-02,4.454633964959800463e-02
8.106804137424325832e-03,-4.265392257009575222e-02,1.526865585140613907e-02
2.987355820166773257e-02,2.208337455398149199e-02,6.692257574231227912e-02
5.294662793823431274e-02,-8.326896838596024517e-03,3.658494096692184450e-02
-6.894855686571547959e-03,-3.792057876533151684e-02,1.351459261594907015e-02
-1.431703880118172234e-02,2.858731189584688692e-02,-8.573374757776926203e-03
1.581199831970822242e-02,-4.939270619154981223e-02,7.514935034843632511e-02
-1.937382323087297187e-02,-4.185490604521821534e-02,2.164918380682761753e-02
7.875059029508679753e-02,-2.745539467326107638e-02,-7.031805610846077192e-02
9.927456603249470990e-02,-2.238046705172070175e-02,1.704435688355325149e-02
9.331797514135568503e-03,1.492122618518395075e-02,3.967467982031897553e-04
2.990357220184375678e-02,5.367204421021763011e-02,-2.183759726647794067e-02
-7.840506632144401619e-03,1.096893829600677044e-02,8.314893943774860521e-05
-6.141876640544580851e-02,1.568722532679790727e-02,2.333952807701944812e-02
-1.720099197108648434e-02,-3.081262703061763905e-02,-4.515187667265962296e-02
-1.006686415637458171e-02,-7.758659860577142575e-02,-1.131198706909536909e-02
5.745654642660744799e-02,3.356881087420422738e-02,-1.338872257245427022e-02
5.588048715592998372e-02,3.980394968911442669e-04,4.730237151895784996e-03
-3.636204491536867978e-02,-4.201078951071910567e-02,1.357194103797427619e-03
3.270944682242761525e-02,4.876961005477899874e-02,4.977990857025430677e-02
-7.002080551290154609e-02,-1.500384920279454817e-02,-3.852803222951516754e-02
1.891832306101037461e-02,-4.206409227869738893e-02,-2.650986815448084719e-02
-1.732382523705555330e-02,-2.091033196374869965e-02,3.806011370156345275e-02
1.746816380882099812e-02,-1.208195460220192786e-02,-3.155786029028979228e-02
4.807290644475731983e-02,-4.376485803074326060e-03,-6.812071245643705475e-02
2.224536617704008998e-02,8.085933556144941914e-02,6.417132719912034544e-02
1.921178726614129056e-03,5.296303986484041104e-02,-1.426429900354851329e-04
2.452785014613788686e-02,6.212986622706803685e-02,2.188939283562965979e-02
-1.571779663027125318e-03,8.075867905963421411e-02,-2.348200175826645544e-02
3.433628481603315935e-02,6.038904191937972954e-02,-3.840328770723903159e-03
-1.558003089253390087e-02,-6.102783637377562354e-02,-1.033045815064085465e-03
-7.220306369975405814e-02,-5.454574298662126508e-02,-3.386337800588133662e-02
-5.969838644494093044e-02,-3.291774822932563849e-02,6.323007769881523743e-02
-6.622709150878479389e-02,3.233214121028759463e-02,-3.104968900050868522e-02
2.301215015449170273e-02,-1.353739673162088902e-02,-2.558509293864365611e-02
-3.043834282219964188e-02,2.158341479525868745e-02,-1.552907829164771290e-02
2.965849647479090398e-02,-1.611200642990372536e-02,-8.748994421092589138e-03
-6.898484510294787195e-03,7.143692641292598289e-02,-9.591562877623633146e-03
-5.113042740816718668e-02,-2.749703567774410429e-03,4.768466702659585055e-02
4.617781410348779925e-02,5.828361811549748195e-02,-2.319618469331012969e-02
-6.423006994356857471e-03,-4.977272021862073903e-02,-4.425064716017632072e-02
3.772331260480334125e-02,-3.933168324977488056e-02,1.325572323363017647e-02
-1.013774379994772379e-02,-5.965386550613301303e-04,-4.702625788799295187e-02
-3.622488574765397699e-04,-4.616131582903104788e-04,3.537819532022417474e-02
1.740697733490714771e-02,-3.079582304349419777e-02,-5.962107983328602395e-02
3.031688724768798887e-02,-1.424833145143939751e-02,5.332585296540955089e-02
-4.706668805153657077e-03,3.127232274831892589e-02,6.560673375984085384e-03
3.106229595536094679e-02,2.847891232835161532e-02,2.238794003424450160e-02
-2.703346815271738882e-02,3.859222711749082935e-02,-7.699466386036489529e-02
-6.695094412734214906e-02,1.195010341247521035e-02,-1.718026754317586446e-02
1.309649645203617846e-02,2.479649270559997412e-02,-2.863830840093349248e-02
3.719700351030239688e-02,-3.688572264555649294e-02,-3.256043201121352343e-02
-3.000069733135667452e-02,2.918511705181996499e-02,-3.053398604348771597e-02
2.202900543783468598e-02,-1.267751146415519066e-02,1.936283803817573021e-02
-5.387795463242355670e-02,5.300939484829934184e-02,-6.713098029524649027e-03
-1.826514377009744172e-02,-3.466888126938354187e-02,1.551859717008464111e-02
8.897709394394531096e-03,1.056647727907371048e-01,6.111917890817688409e-03
-6.919661951661715271e-02,1.184629540098075008e-02,2.089029648209811754e-02
4.504264097088078733e-02,-4.017092917953195286e-02,-1.839510103317943193e-02
-2.085815952659178171e-02,1.206891335966493901e-02,-2.882959630997722691e-02
4.134597760738734085e-02,2.854618549041551198e-02,-5.207763137428130309e-03
1.469113444508947852e-03,1.249858957008627425e-02,-2.680904903824694527e-02
-2.273271250733157819e-02,-6.206193908404455430e-03,-4.506275851796030102e-02
-6.559982437023550994e-02,4.844753467053800056e-02,3.104764409289907656e-02
7.446759536275918134e-02,-7.470417446464173994e-02,-7.441976959315410589e-02
6.080939009442498482e-03,5.258874027397433121e-02,1.293322893143305542e-02
1.432886775332593322e-02,9.149600680850380769e-04,5.121508024432229467e-02
3.437187197250063386e-02,-3.262452860673231703e-02,1.426805751832251230e-02
7.069501675460983237e-02,5.928765892975298990e-02,6.985717534631226411e-02
-7.876187738716748654e-02,1.777763802049059372e-02,8.612717001732798916e-02
-8.052116218420750371e-02,-1.799250887465048826e-02,2.875913563497046999e-04
2.649118030071056021e-02,-1.647540626821281107e-02,2.147415618144732016e-02
-6.634875963691670014e-03,-2.787929427917245490e-02,-8.581168937323359683e-03
-1.384686821393635824e-02,-7.023982092114966491e-02,7.135170691978082180e-02
-1.472992961880627977e-02,-2.377492322253786997e-02,5.258389907685079301e-02
-2.490983181167739230e-02,4.361203953092063212e-02,1.506314834104533189e-03
-1.787243493161265462e-02,-3.153455150753281533e-02,6.912448167061551081e-03
-2.288382637585243892e-02,2.806614588256231904e-02,-1.924031893108046204e-02
1.655647911076540968e-02,3.239116095472286544e-02,1.868782861181042532e-02
9.823630744145281715e-03,-8.840125738277772316e-02,6.886051720703154945e-03
-6.895338102688018667e-02,1.944814561017950416e-02,2.799378446084539382e-02
-6.843198026090673014e-02,-3.156930815667897267e-02,2.164108976440880239e-02
-5.052885432215097061e-03,-1.779731329524833136e-02,1.584527701864969079e-02
7.755550575712585881e-02,-5.711295994434072328e-03,4.548709107196801521e-02
-2.796833333674296398e-03,-1.619636233849985549e-02,4.834066922008024847e-02
3.887961046681987637e-02,3.274392375882435088e-03,-6.615417916867326331e-02
1.652518733834607836e-03,1.388820620757985104e-02,-5.873372553338388619e-02
-4.989665574431535744e-02,-1.967223610987531290e-02,-6.346696166389215535e-03
-5.462988807308943179e-02,6.243357841567839794e-02,1.894105132074610717e-02
2.924096557460490950e-02,-3.241772056043069200e-02,7.287169269541021906e-03
2.396796274095674278e-02,3.325747418521318721e-02,7.428957664339245863e-03
1.002909307019165912e-02,3.399917628561161670e-02,-6.872155518339218006e-02
2.210902633055424060e-02,1.459207716306514663e-02,1.949204098901557991e-02
4.159750827934776546e-02,-5.055795889586815750e-02,-2.408979567322038981e-02
-7.042735326737786621e-03,3.826372640169760711e-03,5.626419451707331820e-02
2.319063292210641822e-02,-3.024334154861011217e-02,-5.204752309991477616e-02
-3.118964627160808467e-02,-4.283262437281627755e-02,5.731449529985585545e-02
-3.714066389061795870e-02,-2.610386854034885129e-02,4.001666820401805075e-02
-4.342252566931116206e-03,6.326691187274290085e-02,-3.276631460326134837e-02
-2.181422302834876842e-02,-6.261560438232252786e-03,-4.166681110375194258e-02
1.831625259479088830e-02,6.035266604597855356e-03,3.222502108703225593e-02
1.894569041855163243e-03,-8.839996402653925445e-02,8.496483653242974110e-02
6.458737854090366992e-03,5.379153446611606437e-02,4.533310530274330119e-02
2.992181882931343930e-03,-4.618693961242290036e-02,-6.893077480655891709e-02
3.327488859744533178e-02,-8.612379837858398501e-02,-3.607382851540177904e-02
-3.363439746262947283e-02,-1.767426785019936275e-02,-1.247853124446459197e-02
3.751587259106688166e-02,7.053185581580083408e-02,3.728212122447006893e-02
-9.908695518276604275e-03,6.785117684932959192e-02,-4.233611892470114275e-03
-3.788939095024827786e-02,-3.569402506575393430e-02,-7.368692818554802536e-03
1.741347811049698269e-02,-4.773526827522639460e-02,-2.922119823790230234e-02
-4.496716649690772616e-02,-2.101713587433964511e-02,2.215514736582661209e-02
-4.803994547143558558e-02,9.269222119705293472e-02,5.685404583897287964e-03
-2.736012016056167673e-02,-4.444405591979799786e-02,-8.188369913743475878e-03
5.030968284223124448e-02,-3.230702528010222230e-02,2.538498933528720788e-02
-2.486323668410251111e-02,5.820296577090228185e-02,-1.239564651058230535e-02
1.430114560154538417e-02,-9.271964639590010021e-03,2.576567388145637599e-02
-2.575162732086225259e-02,-7.469492421550569250e-02,7.727575509436261647e-02
4.007763289320075833e-03,-1.201060065338621918e-01,1.347202184978469816e-02
-2.403838601284314855e-02,2.248777250670394145e-03,-6.619403921777897160e-02
1.463984262514185682e-02,-9.388433316232956335e-03,3.924549136776742109e-03
6.431124586389252995e-03,-8.668599528345812336e-03,4.909455795981251813e-02
-7.392841502846362895e-04,2.238363499426349046e-02,2.244983473503880250e-02
1.229809371925428586e-02,1.167661164654611519e-02,-3.985538233058477653e-02
-6.048828340477284404e-02,5.587465388137513589e-02,2.067850598253598987e-02
2.408979167401530119e-02,-3.868244932670799816e-03,7.242370768572761741e-02
-1.395754383009689681e-02,1.007626734929220960e-02,5.294108349768920224e-02
-2.415581335506354274e-02,-3.382398280031282539e-02,-1.635495245999948194e-02
2.123276648962942395e-02,-7.211845344091184773e-02,-4.360630803029255653e-02
-4.059571233896495240e-02,1.071702811775156975e-03,2.848537732281484353e-02
5.486295090732917767e-02,-8.604402663231154602e-03,-3.015046937513753481e-02
-1.490320476950152649e-02,2.460344010935279144e-02,4.309539568867237075e-02
3.738779854846529301e-03,1.049130709820428158e-02,8.370250093121353596e-03
4.124832966852583910e-02,-7.553687995510457998e-02,2.348486397448824176e-02
-4.574035905968817234e-02,-3.296643434143719381e-02,-6.879956357317744409e-02
-3.794934672967169992e-02,-5.645431010698753055e-02,3.528680488200191395e-02
-3.076590821861573469e-02,-3.554012824355714389e-02,1.095873655911459438e-01
-3.715491373124809454e-02,-5.473982007163882835e-02,-2.916054511945410238e-02
4.321633672303883816e-02,-2.259514790936211631e-02,-2.446661956006848659e-02
-2.938184281927301578e-02,7.883895353782231774e-02,-1.188285507535086910e-02
-5.745677014261409143e-02,-1.461155847730410962e-02,1.003443480324733711e-01
-4.431187970556763750e-02,-1.677129940632516442e-02,-3.822180033261920323e-02
2.967435661566905289e-02,5.776089495199467072e-02,2.984186413910869598e-02
5.714314727887691292e-02,6.063972266683314433e-02,3.126392725025886610e-02
-3.322898265727761841e-02,-6.306188001841670811e-03,-4.142484388136509141e-03
-3.271901151861119944e-04,3.405743604953009179e-02,1.333558866475412913e-02
-7.065698245447436278e-03,-1.256544324515617046e-02,-2.408767025096007069e-02
3.311928925590724299e-02,7.592462227019363069e-04,-2.049217750083609166e-02
-3.925744064402286737e-02,-1.972080995844134772e-03,6.930472903693143949e-02
3.869742156801284777e-02,-5.428743023632277148e-02,-3.103762900080930115e-02
-2.174482701146797717e-02,2.076265245801447654e-02,-3.394709803147974436e-03
2.397732892403698149e-02,2.673520482693293038e-02,6.850783029534970869e-02
1.244072899453797267e-02,-1.091103602180356485e-01,3.245553416097794654e-03
7.776253118308639259e-03,-4.654472942656946027e-02,1.336236616064058469e-02
-3.249004244158556869e-03,1.595854045899475909e-02,-3.700402945494132151e-02
6.745073497774346782e-03,-1.508335103276344652e-02,1.772680041213883784e-02
-3.334975452728665543e-04,-3.736395178749948170e-02,1.566617095231397430e-02
-3.095418746499052978e-02,3.046297281171684440e-02,6.158373696430608467e-03
7.354218567074374824e-02,-2.250407565862373033e-02,-9.285710730453977657e-02
2.328316755127864471e-02,1.023573243579927183e-01,-8.005080720623973176e-03
3.149627119438155182e-02,9.837875234588424472e-03,-3.299866025356427285e-03
8.045672138116573974e-03,9.569042128410169476e-03,-5.339878221471048431e-02
2.347844279324026034e-02,2.307161786347534937e-02,4.355116498217478233e-02
-5.167828982895549678e-02,-1.299966486674995064e-03,2.257124959685484489e-02
-4.089879794270499802e-02,-2.072564960966806480e-02,1.043148169473356174e-01
1.175500345203612379e-02,9.142955820235780517e-02,-4.043919133434341340e-02
2.096222463799013534e-03,4.089828782310966221e-02,4.492514193899962288e-02
1.476956659607206283e-02,-4.256051204419837239e-03,4.318131221105293849e-02
-3.468573555649329815e-02,1.860861169521146885e-02,-2.238370655163265596e-02
-5.290270487690876960e-02,-3.062605296849942732e-02,-4.966634959742557975e-02
-1.828074779318987833e-02,-1.343460807201246957e-02,5.810258393474306698e-02
1.248879506657971485e-03,-2.704169208894686895e-03,-4.048499688249196024e-03
-6.611077516336719140e-02,3.307240110868265442e-02,-4.371898430728645563e-02
2.741193033006391125e-02,-2.935158496939913042e-02,2.756721487317356431e-02
-3.917121697841430272e-02,4.404076983683864743e-02,-3.621267785057444288e-02
2.213928726540351222e-02,-2.764978988207725946e-02,-2.161399263469103091e-02
1.607254780881168035e-02,-6.910923876950443578e-02,-2.892341385283475966e-02
5.136171313639954772e-02,-4.384058516110686532e-02,-3.760320045621877438e-02
-1.005708564462000527e-02,-2.587995394492247775e-02,-5.366021195471922661e-02
6.237493792809632384e-03,1.124072028731326785e-02,6.427146930458947204e-04
4.633200964240082737e-02,-5.341303790984606309e-02,4.556365849426383813e-02
3.617824635017598267e-02,-3.382412415193409433e-02,1.432170567993779932e-02
2.530759697989497931e-02,-1.897121650433646750e-02,-4.251936236625176307e-02
1.826919671797254396e-02,-5.433270120946011306e-02,-1.958050969547951020e-02
2.057895375816524292e-02,-1.468771706514875530e-04,-3.209686172538915344e-04
1.580103934930843571e-02,-4.985109728049583189e-02,-2.222348005747662100e-02
-5.987452037997912507e-02,6.415606843207322108e-02,-4.776811012283056247e-03
-2.724904142718884495e-02,-4.125018849270823199e-03,-1.219288560738027855e-01
-4.856311240105815052e-02,-2.481667872650836475e-03,-6.414147003949048804e-03
4.852793754812877169e-02,1.392493670109977780e-02,-5.139910413495186320e-02
-3.643676817252277517e-02,-3.472068790659986470e-02,-1.349088092991987051e-02
9.430970967170982516e-03,1.968847784395501982e-02,3.843859362044789452e-02
1.296645706159845479e-01,2.669673671733769835e-02,4.277847945909666119e-03
-1.201869813250419500e-01,-2.330958900759439248e-02,2.144856861649877206e-04
1.741469573210765315e-02,1.502684406120296905e-02,8.802680052307816291e-03
6.152418481294175817e-02,-6.094372151834057290e-03,-1.810438641949915252e-03
-5.921574515829814388e-03,-8.398397043815326868e-02,8.297834718687922568e-04
-2.608141552300346361e-02,7.680134894385955624e-04,-4.413549485188883459e-02
5.888881220012105039e-02,2.415249912997703382e-04,-7.659437181133774489e-03
-4.009590197312658949e-02,2.499983882064526347e-03,-1.181044603733709224e-02
-2.116392755898388513e-03,-4.267011641872882344e-02,3.190367576287924008e-03
4.807638754794636704e-02,5.132531279121862328e-02,2.588485699553548514e-02
-3.463349223202580318e-02,-1.527967131548106823e-02,-1.955679678707619371e-02
4.791544570246041718e-02,4.574352911602918431e-02,-7.613912949049013446e-02
4.032039399219561338e-03,1.835781469137765616e-03,4.407641137621464561e-02
6.173291053540305717e-02,-4.117282882724078441e-02,-4.310874301978181999e-02
-2.109376082395801946e-02,2.376151556749393073e-02,5.470299706650506855e-03
1.096373103951206879e-01,-1.540169163912087635e-02,8.739950702100298709e-04
-4.440872224202761093e-02,-3.256575024857186196e-02,-1.293116668307191242e-02
-4.666219330484953215e-02,-1.596427881427800108e-02,4.538612130417717799e-02
-1.399810439166338481e-02,3.915117978966003998e-02,-8.242282682748998390e-02
8.526176977096896342e-03,1.966659941147651247e-02,-1.288033941890421100e-02
-5.285280906519149863e-02,4.042263089887864619e-02,4.314829501931633643e-02
3.935226016672039445e-02,5.111802531578715433e-03,6.707996657051043532e-02
5.247405062572502166e-02,-3.400402973199139617e-02,1.865571594477623968e-02
-1.786674070824390351e-02,-9.359608515483839805e-03,3.693803174673750828e-02
5.374319830527934244e-02,5.201265797974773814e-02,4.731056616585371105e-02
-2.720379789901745341e-03,1.344120307945572204e-02,-7.649488062597713245e-02
1.839387530658691608e-02,-2.656117187428344573e-02,-3.421921936118766522e-02
5.520295734106496488e-02,-5.350126465845145285e-02,-5.469375868586334039e-02
1.582306974337242475e-02,-5.014469447418162112e-03,1.876860455037398026e-02
-8.091240084806255312e-03,-2.708239985782645229e-02,1.702697711767129155e-02
-2.145775520340104710e-03,7.900776473848927089e-03,-3.270191020769925433e-02
3.895654026200075226e-02,-5.098860369076162885e-02,5.390278726038449930e-02
2.192129049938911292e-02,6.548845152669004188e-02,8.745396009438195783e-02
5.429911885387444376e-02,-3.453714093555650729e-03,-3.979687700837229031e-02
6.531178908457319077e-02,1.859796815033170486e-02,-1.363721863627061909e-02
8.505087295437318423e-03,5.897902024482084768e-03,-3.429190679649057015e-03
1.013082650982306127e-01,3.147733430258112253e-02,-1.479941775776314437e-02
-7.035145808462940631e-02,-6.446014265827610702e-03,7.589076123066400975e-03
-3.533662128335093161e-02,-5.549793274515661679e-02,4.665976387404664055e-02
-9.720133555607377322e-04,-8.999621888709400525e-03,-1.146413034082198294e-02
-3.674983946519843475e-02,8.385501303789602567e-02,-2.754091597605590191e-02
2.844557986868391161e-02,-1.151357103849520030e-02,-4.506256506804492967e-02
-3.695311059593085756e-02,6.107660819780624112e-02,-3.650910167163596426e-02
1.597806650583995236e-02,-1.529398749161642833e-02,-3.312038244782058993e-02
-5.080144295540509058e-02,-4.368741375193352372e-02,5.392089647435169796e-03
1.821224016059827533e-02,-2.962362579499441817e-02,5.041191492349055003e-02
-1.681544902028745195e-02,5.591797705898265969e-02,3.216140793692204292e-02
5.405821382905593581e-02,7.538190141759090745e-02,2.866575602009108215e-02
1.044260557369578769e-02,3.177991310929866725e-02,2.500827113852645972e-02
5.322764599953597187e-02,3.558328966130442500e-02,-6.063728224716416482e-02
1.211899869295584783e-02,5.408737790827401054e-02,5.270068978716823012e-03
5.109755714295446949e-02,-6.284449554725647646e-02,7.697382958934920194e-02
1.111218576531934794e-02,6.515840505696761376e-02,3.882504196412459724e-02
-2.351814131949451353e-02,1.228003697779376721e-02,-9.709008737010720036e-02
-8.214788359235683513e-02,4.918301520424121082e-02,-1.672518405763546295e-02
-3.739352442921578534e-02,-4.914369711933205126e-02,4.551836256041598590e-03
1.146674280987773110e-02,-1.553395012711158464e-02,7.380889082882752250e-02
-2.625475748733202899e-02,-5.284052394381199592e-03,3.695198922651831558e-02
-6.905271773264207158e-02,8.669911522450807206e-03,-8.770575319867555258e-03
2.654239572893513435e-02,3.441236991269872036e-02,7.279234152808239378e-02
7.260363954570937806e-02,2.715798307545665320e-03,-5.941264202673698924e-02
2.572418241167963651e-02,-7.703983071441730668e-02,-3.148121778445750474e-02
3.195873166810662275e-02,4.841619569995990469e-02,-3.876069134665229010e-02
3.218695278908343532e-02,3.213722465792354793e-02,3.769396335590343219e-03
-2.123262424629639156e-02,6.725633234981942543e-02,9.868255618746653995e-03
9.125085533299399920e-02,-5.919846112035451885e-02,1.057512852799640385e-01
-4.123785131107440480e-03,5.278401427888858299e-02,-2.146855720582859645e-02
-1.948928481856254669e-02,-3.906412314435381977e-02,5.633397621022815521e-02
-3.435600094634617269e-02,3.574484700068109727e-02,1.877964494635575576e-02
-1.490907775363965737e-02,-3.035811438096402276e-03,-2.788412250464987821e-02
-1.577608373552933860e-02,1.094468610371220497e-03,-6.760416733881188800e-02
-4.183380602804907117e-02,-3.985219141962574423e-03,5.906440136644556388e-02
1.939548338662712423e-02,-1.034401759679898919e-02,-1.235626944934893265e-02
2.395076288836485781e-02,3.999820242415503407e-02,1.955906992605735417e-02
-4.244026197787985344e-02,5.359417704462238891e-02,2.586605057777218580e-02
3.097160720844882933e-02,-4.892509880610941553e-02,-6.377827770187965983e-02
1.064274695307454027e-01,-7.734361770720937085e-03,3.302013880250563582e-02
6.733260183714318003e-02,-2.075001895225616483e-02,1.909626752192537802e-02
-3.485266105709425299e-02,-4.658164341449043400e-02,1.133157760637029665e-02
-5.671003449638822901e-04,1.328554300919143616e-02,-2.961496210717418087e-02
3.574500592072966162e-03,1.409938759146243253e-02,3.549033700169527961e-02
1.498694466604455662e-02,1.388513972427964614e-02,9.425341463041066181e-02
-5.052655981954302239e-02,-3.576500540067097805e-02,9.548734933487415533e-03
3.155423656151019884e-02,-7.666414361593167082e-02,-3.423570223345052260e-02
-7.232104284416918105e-02,-7.833184039217808148e-02,8.610812571612997193e-03
1.639146658461869410e-02,1.528797487617369888e-02,1.726748273556612603e-02
-2.870126264061166783e-03,6.758079103224089168e-02,3.597264355698508165e-02
-1.666079072712768269e-02,6.258837021148729030e-02,-2.780888940677224766e-02
3.902864766550752373e-02,2.806389950285279999e-03,-2.990752090001985719e-02
-4.231315746369742475e-02,-5.104116791748349730e-02,8.245659550443068531e-02
-4.445415202304330710e-02,-3.946572433290806287e-02,-2.133629742315951497e-02
4.288565663235573144e-02,3.029634173831179805e-02,-5.169509844825391498e-02
2.991085695002367734e-02,-1.558667632707469441e-02,5.233539634623507984e-03
-3.389642800983921900e-02,1.147238718441219441e-02,-3.408775887542785099e-02
-1.770603308906675000e-02,1.319492102420538647e-03,-3.745879875356494110e-02
5.664553442273962541e-02,-7.497339097518961049e-02,-2.776459170520174588e-02
-4.981255899565755624e-02,-3.084136184481537854e-02,-7.836337625009193175e-02
2.414050920187748098e-02,4.592663897279773005e-02,-2.538049581547775074e-02
-5.772862170740076723e-03,-5.083991274937608995e-02,2.410293939333725891e-02
-4.345478356111498464e-02,9.171056506554418550e-03,2.352683319304421303e-02
-1.587191043793408432e-02,2.969386934849169157e-02,2.033309871684778683e-02
-3.071126604309698874e-02,-1.993894931912969237e-02,-5.969891212902030814e-02
2.450508282390794976e-02,2.144033145405127225e-02,-2.024049556419593721e-02
-4.437980588350710388e-03,4.860223791836022766e-02,1.395275110022658159e-02
-1.316785086848298522e-02,-6.528597263844744536e-02,7.015217174273742813e-03
-4.531971193186946217e-02,3.116744790357474024e-02,2.066388506847237350e-02
8.210672125697872706e-04,2.757932129120889420e-02,1.706142109004337847e-04
-3.648028607150185371e-02,-2.307571168049326812e-02,7.363626927172989278e-02
3.357113106362347860e-02,5.829061862192066318e-02,5.628663335844200089e-02
-2.373029464679949144e-02,-2.724874430190056887e-02,1.265636490212402980e-02
7.089709452634646372e-03,2.826784201245030950e-02,-2.009490609369701027e-03
8.224443634048205984e-03,-8.899177132202994167e-02,7.842928245149462241e-03
1.786415800532116863e-02,4.963122564210681320e-02,7.098869447834195434e-02
3.320875101390446948e-02,1.258763363785974677e-02,-3.107235377875583953e-05
2.536591770138230464e-03,-6.845572663653300138e-03,-4.624093412030317457e-02
-7.780220547400554243e-02,-8.539538138026478431e-02,5.545092439912530785e-02
1.422742620739173187e-02,1.736040793838935711e-02,3.264929964031287185e-02
3.455323518965672941e-02,6.081158304918238972e-02,1.413406087080465792e-02
1.752854733405343618e-02,7.334993974776872483e-02,4.405188586360442998e-02
-2.083960843102858340e-02,-3.493471197485935754e-03,-2.136184028874739405e-02
1.740005142279281089e-02,-3.235705080031661685e-02,-5.508665026147310101e-02
5.233120141842775158e-02,-5.034103587140796587e-02,1.905610861305173306e-02
8.654810201471849207e-02,-3.267663005907081586e-02,-6.050319076980462812e-02
-1.154687274179476246e-02,-3.014490435065993526e-02,-5.868195546901904674e-02
-3.882135448384697526e-03,2.388779863852412769e-02,-2.897935273595334785e-04
5.644313851396397241e-02,5.502218060972114203e-03,-4.627922999328932391e-02
-2.292451935301365387e-02,-1.585581278276191122e-02,-4.965957023005465598e-02
-1.415564182724435814e-02,-2.407586398837215438e-02,-4.047864138691146391e-02
-8.592918202511058007e-03,-3.627809243467077643e-02,6.330394310546803849e-02
-3.288079817230812885e-02,-7.179269181619334084e-02,1.779139911934465162e-02
2.792326040467016379e-02,-5.318363039219110855e-02,3.694411699994856746e-02
-7.111474460188570157e-02,5.307231900202423469e-02,7.703789418580486714e-02
-8.054541097793294080e-02,-1.608697448522715748e-02,-1.567648081148564215e-02
8.987019867136488219e-03,1.896848010699793072e-02,2.354974994681889935e-02
4.135057885935066770e-03,-1.223583603018620243e-02,-4.546157503258212336e-03
-8.945586793410047199e-02,3.303023201710778012e-02,-1.347997566746459092e-03
1.081531191737258521e-02,2.656732808925429609e-02,-3.710866333821213198e-02
-5.025938358943150830e-02,-6.463391451561861789e-02,-5.615258478973732953e-02
1.133435824898512863e-02,2.838947231950285019e-03,7.756940252396099175e-03
-3.769383973815472987e-03,2.577639861266683985e-02,2.525750697443162468e-02
1.807581177211400880e-03,7.618463937587906416e-03,1.010166594644699642e-03
-2.702498385467966627e-02,8.635914137880427999e-02,-3.228258379942065825e-02
-1.767598579020811592e-02,-2.541044164175882553e-02,-4.809837510496422358e-02
4.420571667366111901e-02,5.480710512103802862e-02,-3.003697350420769449e-02
5.108282348798588723e-02,3.649856380494174990e-02,-6.514648555189209156e-02
8.837145795890169464e-02,-5.916510272580453172e-02,-1.140255297486068506e-03
5.005133324244086940e-02,-6.458394595359794564e-03,2.670198644066882222e-03
1.605666221574905683e-02,1.383527390755826675e-02,3.908484966124214227e-02
-9.952452984486902243e-03,-9.978992665741201473e-02,-2.032406631021216672e-02
2.532653827460473392e-02,-1.890178734438592578e-02,-2.465591834851336636e-02
7.149979042996451335e-04,1.409022869304546628e-02,-2.526113069050470866e-02
-6.651972398465169634e-02,1.919862986481182116e-02,-3.383982974535241356e-02
1.685412932427806515e-02,2.235745561064038465e-03,2.642786094190113788e-02
-4.038455850474232528e-02,2.986089522164260546e-02,-4.606127169888988432e-02
3.450344186215232190e-03,-7.806133426085580529e-02,5.072597882629848592e-02
-4.188672566604136754e-02,3.063394797452551749e-02,-1.800390649194425451e-03
-5.690020694491138703e-03,-1.865158100375410161e-02,-5.534672054036075817e-02
-1.601699668085839606e-02,1.985226167704403841e-02,1.365058150098147176e-02
4.323062218178010119e-02,-1.379435674417668102e-02,-1.262469900701604017e-02
1.691470737756463815e-03,7.620884574798040406e-03,4.490355399903397937e-02
1.609241317811149069e-02,-4.363921178354265851e-02,-1.819627616928022606e-02
-5.615005303111839097e-02,-3.612635916579338274e-02,-2.348842837367530120e-02
4.542897454814769781e-03,1.316619012262370235e-02,-1.619770990743510039e-02
3.298334423687384470e-02,-1.333742329994546359e-02,-2.133991107390255035e-02
-4.132301583719227844e-02,2.172171479952987594e-02,-5.696623810717466735e-02
1.258514578747271795e-01,-8.314630522881515107e-02,-2.639487076362601829e-03
1.319186410872468657e-02,2.481231942041088254e-02,-7.059952869507842010e-02
-8.092290442442121035e-02,-5.841768240463441481e-02,2.132331133583001328e-03
-6.069915826974327938e-02,-6.851887228620619219e-02,-7.287125917923657770e-02
-3.639889298358955222e-02,4.912777415990445679e-02,-3.268248521275228784e-03
5.745336709810786729e-02,6.113369760145243026e-02,5.554240369907329639e-02
-3.395913492902458836e-02,4.377420352434518123e-03,2.411921625647528780e-02
4.661144293428924612e-02,5.279873377592468608e-02,5.850575527937457859e-02
3.553710042444576528e-02,1.141507705376906302e-02,-7.070494688445477793e-02
-6.167269778233310656e-03,-9.768293496629762429e-03,-4.614806968731177683e-03
4.886493709717934508e-02,-5.698770363804249450e-02,-2.170782004373317600e-02
5.964166367008141671e-03,4.281994216307922346e-02,-1.256818736576252246e-02
-7.324536197349934552e-02,-4.972884045149292276e-02,-3.370991227458291356e-02
8.356826821348485243e-03,-4.916656455807279918e-02,-4.385136292561097465e-02
-6.490619045705879608e-02,4.821191471595214634e-02,-5.647486821252223343e-02
2.925191150296562598e-02,-2.154098032498171986e-02,-6.687448126546725706e-03
3.560383078731774870e-03,-9.909143339337471434e-02,-8.894801044769089227e-02
-1.308279712613934047e-02,-6.915139978552059530e-02,2.421054031993603167e-02
-2.092329189935616604e-02,-3.751223914746351640e-02,-1.460423066137862130e-02
2.560477640658715207e-02,2.865454827327269111e-02,-5.811220769644926537e-02
-8.279589776210126081e-03,-8.244991319507685842e-04,1.982481528111785726e-02
6.330189625688367738e-02,-3.236569177049925666e-02,1.154953701150370458e-02
-5.236059364945100381e-02,-6.713025782444065337e-02,-3.517642570780270261e-02
-7.075442584652193168e-02,2.419129430987042306e-02,3.503178842100242163e-02
-3.713999169243578646e-02,4.669130684316273594e-02,-1.679148317499244009e-02
-7.670785028149111791e-03,3.002726621681406707e-02,2.063827166145114356e-02
-6.966197074769872599e-02,4.320689140473751161e-02,5.112208226880084888e-02
3.749886512878746608e-02,-3.071220846240029639e-02,-1.735604798835740925e-02
-6.158083080690292949e-03,1.962904398924919872e-02,-3.660573123473872398e-02
-2.240802234578016805e-02,-4.464676278510772492e-03,6.215828320360738436e-03
2.139652762929165203e-02,3.749945277951637068e-02,-2.162494254381932754e-02
-3.598703118480559709e-02,-4.491551822526760988e-03,-4.481614932693761717e-03
4.814750311380042863e-02,8.049003455458003664e-02,2.467775006330089754e-02
-1.226010253088832911e-03,5.946529873901120616e-02,-5.012115029936015792e-02
-1.061479514720264222e-01,5.467083162357697090e-02,-2.271982756356897767e-02
-9.224852515254693477e-03,-2.737496018972373005e-03,3.544488157445331578e-02
-3.586969132592578852e-02,-3.024277092376411943e-02,-7.941093672582130378e-03
4.325888628071091618e-03,3.730953368365488854e-02,-8.189637798976437399e-02
3.167969761582386384e-02,-3.256454179239039876e-02,6.452760077394012472e-02
-5.073476241953071147e-02,-2.492146455028906513e-02,-8.541933032465873210e-02
-2.853300464534988881e-02,-4.422075842517908008e-03,2.217338242311136728e-02
-8.231864086603424280e-02,1.372965526480728754e-02,5.844917312555840405e-02
6.802968182618717406e-03,-1.226949150362669286e-02,2.276740543978981839e-03
-2.093504371705003086e-02,-1.553651076138281781e-02,4.921972838562774927e-02
1.243463176400160658e-01,-3.785082767910119116e-03,2.566655380865468655e-03
-3.459815031795952789e-02,2.515608941514525451e-02,-2.646642440184946224e-02
-2.168391625681491408e-02,1.326503246740248602e-02,2.956952336998859912e-02
4.918666051508576581e-02,-5.461798316458721381e-02,-2.759173390070733881e-02
2.285871467789070757e-02,5.799664359849623918e-02,-9.741593720827895417e-03
-6.066005303159682088e-02,7.038778256393909971e-02,-2.367656261005709681e-02
-1.971808549998771420e-02,2.209130255935691923e-04,-4.773122478421856080e-02
2.541008640681647040e-03,-2.315637314102809291e-02,5.782783769749146735e-02
-1.205888834413996330e-02,5.126537471496849657e-02,1.499682491496696218e-02
7.247929175693003725e-03,2.401367241736651614e-02,2.707247434678223402e-02
-4.689401409795015963e-02,7.677607650751311352e-02,3.837318936081568488e-02
-2.271080397650630800e-02,-3.172608667479050876e-02,-7.689390889040445369e-03
-1.811041236454921655e-02,-4.326601132314526060e-02,-2.114212730176510610e-02
5.833917378080948762e-02,-5.629109380254669615e-02,-7.785869002984958584e-03
1.079736824820454015e-02,1.466165892337320878e-02,-1.074451718951367589e-02
-3.966220972903985315e-02,-6.770426110884931840e-03,8.226142579990811110e-03
2.684458204778358489e-02,3.438699743529793212e-02,1.794529060049608604e-02
-5.963870910123843933e-03,-3.022680052239125337e-02,-8.284104658354615736e-02
5.570550630047638868e-02,-6.368958572753795344e-02,-7.221996429591963189e-03
-1.536920670016129753e-01,-2.506770608479505502e-02,3.484332722432725155e-02
4.165343900528117177e-02,2.753283466395341217e-02,-3.262730264191414375e-02
3.981268374461855233e-03,3.551578806633677587e-02,-3.224561191379339553e-02
2.490384295754482363e-02,1.653631188477431430e-02,2.963323336613095729e-02
-8.114767199130901165e-02,-5.276558976404458791e-03,3.961281398589969888e-02
-1.624298450298969354e-02,8.317076730777869797e-02,2.311191201911765372e-02
-7.852859758962127401e-02,-2.231709786110336324e-02,-6.878865470118759873e-02
5.485870275748408811e-03,-4.759031540851887086e-03,3.131964059975202164e-02
-2.092223721833278913e-02,4.344836601909092544e-02,-3.574035426043456476e-02
-7.476088218583882422e-03,-4.816933908346980597e-02,-2.484987686719335870e-02
1.174616870315037948e-02,3.153373317779935292e-03,-3.187303102758409085e-02
-2.516647877430454143e-03,3.414229121797470595e-02,2.797463036150413598e-02
3.222087722591648884e-02,-4.993052798467625952e-02,4.602167716214607823e-02
-4.893854633902935264e-02,4.062501097332880257e-02,-4.152989769483513699e-02
-2.018267018025382900e-02,1.950534309804368913e-02,-1.462945244253886258e-02
1.795503812135215704e-02,-3.126344107763081442e-02,6.042744709755978882e-02
8.712748809685254281e-02,-4.578626803304744475e-02,6.983551737772125678e-03
-4.355352458157313311e-02,6.728831959501218284e-03,5.889854772060332255e-02
3.074300815840417742e-02,-2.814309599857296382e-02,-1.706512250185060909e-03
-1.378652631552337079e-03,-1.235132104396992163e-02,-1.080401676467971153e-02
4.327223323788183251e-02,5.711288581510731016e-02,7.233037881604699459e-02
-2.867601570675902545e-02,9.876805474207933991e-03,-4.114445933283190221e-02
-3.801859398126195694e-02,9.039201076539481183e-02,4.736986740149358791e-03
-3.135872498593979957e-02,7.580322674194654720e-02,-7.107117782706343090e-02
-3.891712172879990828e-02,-5.594561425626121652e-03,3.796663722406355690e-02
1.802760484874561808e-02,2.311696417332888970e-02,3.220985547707464619e-02
-1.409177162804989836e-01,-2.461719971514168392e-03,-1.684223040731211429e-02
-4.874446898573655401e-02,2.338997910082425691e-02,-1.253651559324416714e-02
-1.662869163433547751e-02,-6.557601978826502198e-02,4.474009578441388163e-02
1.045228595390225272e-02,-1.489363784351400641e-02,-2.351914913954214828e-02
-2.810251338229375478e-02,5.124654130726506718e-02,3.737951321216175654e-02
4.956774728754464489e-03,-3.907588461450683254e-02,-1.266699589432840854e-02
-1.308005719287685942e-02,-1.161498836258175772e-02,6.786431216501312425e-03
7.505976857782113276e-04,-2.749189640017868710e-02,1.871350652426652383e-02
7.463129068840110292e-02,-4.065125795650328944e-02,6.696244980116054790e-02
3.200890231177753661e-03,2.998307736685817959e-02,-1.064229817120739968e-01
6.846251447255663480e-02,-2.267029801170495230e-03,1.690815870263949125e-02
-2.715836353514447868e-02,9.514735872389622532e-05,-6.811823896360308384e-02
8.826705430556848475e-02,-5.916292579412406154e-03,7.136974631177636988e-03
3.242627065804194741e-02,6.285500312964831422e-03,1.845600097025520275e-02
2.046362077416688519e-02,-1.316833632732571958e-02,7.158039465724712336e-02
2.858076607196375490e-02,7.561689043274746544e-03,-6.347871208935436382e-02
5.470322317724080063e-02,-2.336069084690875139e-02,1.519578638262897123e-02
-6.401835151919417488e-02,-1.771340025942169574e-03,3.179980592563950385e-03
5.574304716738699012e-02,9.274900915053948397e-03,4.006494407309603434e-02
-1.880025376443406407e-02,9.307137358740575489e-03,-4.346635099154771975e-02
-5.533187456840420876e-02,-5.334868695518287483e-03,4.226080870171507881e-03
-1.282565693927838549e-02,-1.498146894660654614e-02,-2.322698723565494450e-02
2.137302326651815965e-02,2.635010649991176637e-02,-4.991993930380890510e-02
6.293418024562931479e-02,2.786431653903682915e-02,-3.557269004677204166e-02
8.674240311898879716e-03,-2.059115809896479993e-02,8.528016837585519760e-02
-9.445236123260309811e-04,2.971232023406481307e-02,1.228665199820607248e-02
-8.146520332971328437e-02,2.856106664642318535e-02,2.707154866437498641e-02
-1.361050914235982512e-02,7.750905087838161345e-02,-1.140907953083380860e-01
-5.142453780531013041e-02,3.905363727740776558e-02,7.919851292130535361e-03
-6.680352174071232940e-02,1.287698100284802652e-02,4.050404613045632124e-03
-7.153376977582590057e-02,-1.135858184033909125e-02,-3.765502298534707804e-02
-2.054090184323310864e-02,5.792524286954543050e-02,5.927530058670985730e-02
-2.097064905394132803e-02,8.373288050341846922e-02,-4.975508488482850537e-03
3.123676502952604447e-02,-1.615027903473427798e-02,-2.780134263613231321e-02
-4.592674347424485770e-02,-2.337353330944321947e-02,-3.236033014154354737e-02
-6.405497319203218298e-02,1.145607082417138788e-02,3.803659112085727018e-02
1.149139833304949482e-01,7.009466232121694049e-03,1.680940232803557546e-02
2.113754473481857521e-02,-7.635313356841164079e-02,-2.859670149255980759e-03
4.096773704643028036e-02,1.019624275835987783e-02,5.827519619921908006e-02
3.988648849536246925e-03,1.032384278819613484e-02,4.129683514285176216e-02
-6.300436473346596178e-02,-4.120993067163896545e-02,5.742221214225220333e-02
5.286777869751026204e-02,-2.199140789758883413e-02,5.144292259776240411e-02
2.515708371189174716e-02,5.059087925345540082e-02,5.383085263436675205e-02
7.716146646734196694e-03,5.919140765271184434e-02,2.211333834414742211e-02
-5.093771751256167060e-03,1.816961549348816360e-02,-2.194300019802059715e-02
2.411241349294714065e-02,-6.177619398242543275e-02,-2.747327916054326247e-02
-1.671156545067667767e-02,6.341951394937933584e-02,4.075027360757941391e-02
2.010485020705809339e-02,-6.756090941892183011e-02,8.612496763322111115e-02
-3.050238700782980511e-03,2.943924477255259811e-02,-1.753403319684378875e-02
-5.883720441823795527e-02,-2.210727959514601632e-02,5.620567179242940727e-03
-4.432636200073684918e-02,-6.670142658686435688e-04,-1.104440900247564625e-02
-5.272948011982089844e-02,-5.522394312369005576e-03,5.691271212136948809e-02
-2.772070310628364440e-02,2.273817854023391441e-02,2.598168600837956130e-02
-1.647249467456047070e-02,-4.980470974599816164e-02,3.593602074619679093e-02
8.212185767618267185e-02,-3.085784899134160278e-02,-2.827871120956679946e-02
-1.984532425369557249e-02,-4.076709864120790089e-02,2.300980070568419897e-02
1.984074006739231302e-02,6.191632711619161900e-03,6.265476651926336904e-02
-1.672634353815783195e-02,4.196408505261643718e-03,-1.856203048314014614e-02
9.524705718497233561e-03,7.526353639565763753e-02,-3.451132645756960476e-03
-4.333227634599524231e-02,-3.083004768001184129e-02,-1.034889187464433508e-02
2.357797678037033134e-02,-5.158797851022756294e-03,-4.989518003661895518e-02
-1.113968435589259183e-02,1.761384118309896468e-02,2.829373251025953800e-02
8.218597451640552443e-03,3.011735601825774392e-02,7.348521795662987105e-03
-2.701161445523888802e-02,3.691751880146908887e-02,1.206607415497562043e-02
2.135920012365094198e-02,9.044185423845121918e-03,-8.742284276029121948e-02
-1.404592721652325391e-02,-2.068390313991830265e-02,3.160144370340833148e-02
-1.255443290859090816e-02,-2.902588152863875073e-02,-7.813145767113845175e-02
-7.834646094118602466e-02,9.195383350616089663e-03,-6.417307111639987752e-03
3.083716549760875253e-02,1.815284904724223311e-02,-2.087008963090760880e-02
1.936295467262559925e-02,-4.959034454910826034e-02,2.646581916434287071e-02
-2.538748475085720810e-02,3.275676953049881657e-02,-2.202040256431692447e-03
-4.168915006667608253e-02,-1.874470436205305512e-02,5.905760407100223847e-02
6.929148333542926863e-02,1.439720598316380010e-02,-8.461291467744601336e-02
5.605572208170468695e-02,-6.292081324710073476e-02,-3.432523442327955338e-02
-2.244537921041378503e-02,-3.365675119206088667e-02,-3.089223678887477800e-03
3.188045701128679188e-02,-5.388741928518869795e-02,-8.500748136692122536e-02
-1.373952932770643870e-02,4.031683749614980994e-02,3.677969109908402374e-03
-2.554077556290589371e-02,5.877241557309509368e-02,-1.002492111456411775e-02
-9.958694728530236712e-03,1.406609749115826299e-02,-2.840271721662971163e-02
5.091318071885584523e-02,-8.087808307246352468e-02,1.551779160251044905e-02
3.090803793845810221e-02,-1.437970655039756511e-02,8.371908999443770927e-02
7.383234491459174376e-02,8.054436301173444057e-02,2.532271627561540756e-02
3.082628643063742638e-02,-2.473658684581142575e-02,1.369120982081943952e-02
5.322528093479771821e-02,3.074016625045564860e-02,2.286409409520321397e-03
3.790211192958603016e-03,1.596256549365123248e-02,1.008847590039708107e-02
5.787764907637404921e-02,1.427957859394777401e-02,9.709644895222629968e-02
5.781685521424946572e-03,-1.512512337307469860e-02,1.977744503892044786e-02
2.591305338008461842e-02,-2.803407074809655466e-02,-2.551546782698666666e-02
5.462144265954527872e-02,1.950194001573257035e-02,1.713113695629604055e-02
-2.399715387542153064e-02,8.080691080260819781e-03,-1.137308818362117377e-02
-6.956372461819168573e-02,4.211962634750052170e-02,4.109292976302109102e-03
1.333129783366805710e-02,-4.311472464779978614e-02,6.024743935085306173e-02
-1.575694656253521717e-02,-9.618218171346197207e-03,-4.950379486977919685e-02
7.737589843624806743e-03,2.413657826500971090e-02,1.196744638109082000e-02
-2.214715525457808948e-02,-1.316546573160096894e-03,-2.998749597580873880e-02
5.533077473304807981e-02,-8.025838404171542137e-03,2.867587171863844597e-02
-2.302320187792844530e-02,-3.933580622826485934e-02,2.490751990427039764e-02
1.856144417620175791e-02,8.242802581445286478e-03,5.043327416575485445e-02
-1.572440053084958600e-02,-9.247182635321056499e-02,-2.078441741161704548e-02
5.638983665543163132e-02,9.396731053365341840e-03,-5.714580812743590837e-02
-3.226392386332902623e-02,-8.514298515104033738e-02,-2.740202739431200560e-02
3.847924468681860471e-02,7.187304728170758328e-02,6.537774659038941838e-02
4.484790100652619876e-02,-2.523916332845558153e-03,-4.252144547346661113e-02
-2.691005772907041280e-02,2.120828554632287616e-02,4.479333813126632272e-03
-6.517252335676687039e-04,-4.954999441618558598e-02,3.082611982729082517e-02
6.807009699233020072e-02,1.064831655136854321e-01,-7.482232433122873450e-02
4.783591519028447536e-02,5.053541506428825894e-03,-9.185700666748415621e-02
-2.209643487391983047e-02,2.620783833605893481e-02,8.203733948411780913e-03
1.791236612000935563e-02,-4.037785991974355421e-02,-5.801343371691808880e-03
-1.312440450088238342e-02,-6.121169969885529184e-04,-8.559643992864923723e-02
-1.881234350857204779e-02,-5.397107320772664453e-03,-6.180762843013003389e-03
7.834457360009690341e-02,-4.063859272189319222e-02,4.145387230970890707e-02
-8.293250124141711421e-02,1.141990918646595445e-02,-7.957498269630479751e-03
2.594188917149362408e-03,-3.739698356363713172e-02,8.468417681259826982e-03
-1.055016817453115902e-01,-4.455432898700427413e-02,4.096318751859771151e-02
5.615687225478691556e-03,-1.625064081863883056e-02,3.193592242271140608e-02
-6.580811803480976496e-02,1.740872830441855465e-02,-2.313233488863930543e-02
-1.684330111174006661e-02,-1.309302953194689881e-02,-1.960908466815039150e-02
3.400641170008898012e-02,-7.235281559179647382e-02,-1.834216211903976629e-02
4.228976082931657637e-02,5.158706957552269129e-03,6.159320258121793283e-03
1.553781190333133888e-02,-4.004157673147660385e-02,3.939596224425293003e-02
-1.449365463152653757e-02,4.107376073651831938e-02,3.372013283831416363e-03
-1.148196114129196831e-02,-1.954756963285603222e-02,-1.174678611564069532e-03
-2.149980258706856578e-02,-8.991834452621406959e-02,-5.343687438186540267e-02
6.337243744489386155e-02,3.588123929228086151e-02,-2.272683408362254770e-02
1.717906558260898914e-02,-4.819113018604122972e-02,-3.786485813501856007e-02
1.251558777698409328e-02,5.029315779398886056e-03,-4.031727668013108251e-02
3.528917335914125153e-02,-3.842026440550187598e-03,5.443109681207206063e-02
4.768280096712863153e-03,-9.229151383415479595e-03,2.415757201238153198e-02
1.612909918542364263e-02,1.515916771319251490e-02,4.148706356789044064e-02
5.769407429582685404e-02,-1.202172266570541471e-02,4.448647407910265306e-02
3.443192156377972157e-02,-5.307798970850147180e-02,3.133504324003191094e-02
5.911678384234152900e-02,-1.379735397292810271e-02,1.689430992946813412e-02
-2.476965641411141283e-02,4.187549123162193770e-02,7.326603576404643048e-02
-2.910074138850225062e-02,-5.554665140206885288e-02,-8.618333824390164710e-02
1.107314699471606545e-02,3.521072505287940746e-02,-4.293515213712426754e-02
5.687050538496580578e-03,-7.138057003861249250e-02,-1.098186211337219206e-02
4.405851136721217892e-02,-3.748038902610088818e-02,2.820741950724561797e-02
-5.140095438681296230e-02,4.484122244228883752e-02,-1.908463988317403090e-02
-3.406001659599992154e-02,-7.069977186462590713e-02,-1.132411469098633661e-01
6.544896216617218654e-02,8.803320244148052365e-03,-3.388094134037577393e-02
5.059706258828698677e-02,-1.106818959470285552e-02,-4.640183866562520854e-02
1.185948155447212257e-02,-3.377421651730987823e-02,-1.763586992220049846e-02
-3.991610162976906746e-03,4.449774351144036161e-02,5.702116835502713671e-02
2.459267106736554367e-02,-8.122516909509828326e-03,-2.382416942466342516e-02
-3.246644488777341436e-03,1.329703048956606092e-02,4.855002095131050188e-02
-6.865031667901781709e-02,2.616763094403846621e-02,-4.102992839553547960e-02
3.875762780801944845e-03,-1.258388403750802798e-02,1.967480905406986114e-02
5.013748566470735413e-02,-2.267838261146229439e-02,2.067417061247481258e-02
-5.638753914892349201e-02,4.649361930947828320e-02,5.386604023279073505e-02
-4.179073818726911950e-03,3.470197431095511931e-02,-2.303900295152135763e-02
-1.616336820883692085e-02,-3.907539753128712844e-03,4.167339094838050373e-02
-2.431905051650161756e-02,-6.133921675621574476e-02,3.327411479169661845e-02
1.035591613548885945e-03,2.367922819200433612e-02,-2.555843775829558934e-02
-2.165549674642883171e-02,6.999739281051410578e-02,-1.377536829166734270e-02
3.862689060222622428e-02,-4.974468263055305955e-02,5.108884230533521781e-02
-1.929249335677237984e-02,-4.083341818944012311e-03,-2.270059362107569589e-02
2.619841583728039353e-02,7.666098483727020775e-03,-7.297753582990076926e-02
1.640156563729998351e-02,-3.579093487581968408e-02,8.032753605297567046e-02
-4.494852572118156198e-02,-2.463092021257436495e-02,-3.441902783215641803e-02
1.558056718596542885e-02,5.654149416080937740e-02,8.650679250105042239e-02
-2.940482479454837109e-02,1.455961682652372538e-02,-4.166466078870596085e-02
-4.982660818227291344e-03,3.782785097004256331e-02,2.096292867127921497e-02
4.889510768740994162e-02,2.079068545483503047e-02,-1.741372764876885151e-02
1.878574966624673923e-02,7.740511822181336821e-02,2.760638944767454528e-02
3.879133615191322076e-02,-2.919196062409952150e-02,-2.398427272617373318e-02
5.626779202641721267e-02,-6.161956903586282737e-03,-2.059861517825420027e-02
3.238228030711946814e-02,-7.107923428726310722e-02,-1.432813779536099355e-02
5.949053735459090830e-02,-6.599068806674082167e-03,5.860925598232307604e-02
9.821027385196633153e-02,-6.565797972674353167e-02,1.813490191403519664e-02
-5.775741697752743292e-02,1.769963953962932351e-02,-5.633650281604297982e-02
2.791563938379881468e-02,-4.867714747807839505e-03,-8.470151177282346511e-02
-4.233923242064086684e-02,2.848734134490072539e-02,8.864730172718671142e-02
-5.405684299314351265e-02,1.314500867479082014e-02,9.227124428876463599e-03
-6.228374369974750552e-02,-8.072567744411614232e-02,-6.532361974509190428e-02
3.352402658640843414e-02,1.154290116023043260e-02,3.605215791181323737e-02
6.320922099479321134e-03,2.897316931394472092e-02,4.752575244855468568e-03
-7.545707274669721798e-02,3.501065416671322872e-02,6.606233195645638996e-03
6.966558818926023300e-02,-2.159123845775538439e-02,6.051205818269912023e-02
-3.661394709706111694e-02,-1.257642255570371251e-02,7.650100000614154516e-02
-5.278913703671980068e-02,1.808870234797159762e-02,-9.538567619169030509e-02
4.896922338533175184e-03,5.075095862741685337e-02,1.441232287199114941e-02
-2.591297136617526711e-02,1.443482807724848563e-02,1.791140600004986760e-02
3.025257019936648199e-03,-3.484497141262062059e-02,-6.971054547723279371e-02
-5.218420969550142952e-02,3.829345222461610909e-02,2.671084872387869194e-02
4.169682168396451373e-03,-6.698139035416059150e-02,-2.300549199080404936e-02
6.921798138098534184e-03,-1.350068564811564113e-03,-2.872427539805886415e-02
-7.417911738141000355e-02,-5.866646893028276688e-02,-3.479306012101539974e-02
-1.827815091682010590e-02,4.523979728593314348e-02,-9.601363748193184403e-03
4.312400711836862632e-02,-1.045546075563642124e-01,-2.251000068965360035e-02
2.628061396407963424e-03,7.080526543166075493e-02,-1.078625493153561980e-02
-3.488994182834180557e-02,5.994931889120345275e-03,-1.423554525122666323e-02
-2.036821851853909404e-02,-4.095797221694130741e-02,-5.606506522433147427e-02
-1.945763334286125870e-02,-8.010842049384790317e-03,4.633561032511088022e-03
-4.602121819156020088e-02,2.235485008506808008e-02,-2.926333577752083040e-02
1.021989764339638757e-01,1.044604965138411778e-01,-4.879161674719102726e-02
1.898288264738724057e-02,2.703033511022139360e-02,-6.522148255855803045e-02
5.363239963980948738e-02,2.660262766136365330e-03,1.755525078198332325e-02
-4.520344861245034762e-02,-7.999276177417524725e-03,-1.059954289310232056e-01
1.447466301660314120e-02,-4.328846465145461814e-02,-8.613999420861150058e-02
-4.308933618678002092e-02,-2.590614746221436837e-02,-2.606733358751503471e-02
5.221702938846598668e-02,2.095963798049503557e-02,-3.200167406268340786e-02
6.048051949776704801e-03,4.959267682081505008e-02,3.971221202633505587e-02
9.725321467877856563e-02,-4.655018047727577102e-02,2.282979264207029430e-02
-1.161672224405463361e-02,1.912734192082352069e-02,5.301647673914191422e-02
1.981461120907759832e-02,7.439142281597549422e-02,-1.128524548847387871e-02
4.094523510050909060e-02,1.936111465852939986e-02,-2.056242850055571905e-02
2.330513948096612706e-02,-3.768628892534940655e-02,2.809920865600650311e-02
6.057871418077234726e-02,6.685156951159982631e-03,-2.746428643034767164e-02
5.091028231756315574e-03,-4.521805928760134173e-03,1.209102355194789091e-01
3.321214733150920639e-02,-4.014942504717546046e-02,-1.395778191813989468e-02
-6.108429312877591139e-02,5.526097566616009100e-03,-8.050544836040444963e-02
3.057832649886322446e-02,-3.385211257442508059e-02,-2.827857224624105020e-02
-1.802997971616158643e-02,2.378640739495753702e-03,7.701418482671859751e-03
1.497411420705496189e-02,1.694300790306079232e-02,-6.881753710789798029e-02
-2.330476165804435448e-03,-4.210049323271634891e-02,3.551599589635427712e-02
2.388718720515237842e-02,6.442929243164043085e-02,-4.107337781509760172e-02
-3.760729527815278445e-02,-1.394543607961489136e-02,1.837891245161146769e-02
-2.389075633663148568e-02,6.464139364066739946e-02,5.396694773002806006e-02
4.065341486470678417e-02,1.608722381507975488e-02,-1.173730987166516498e-02
-1.451449279953023926e-02,3.365078231318913149e-02,-3.352424309269512459e-02
-3.204031630359099186e-02,9.005460623524719557e-03,-4.598834585128830366e-02
5.987714320743366819e-02,1.647650391310147983e-02,-4.490655029164033682e-03
-9.482375653658154865e-03,5.881317354663923025e-02,2.721032634118942650e-03
-1.166404194773592272e-02,-2.910623653092211591e-02,2.969245546570337124e-02
6.297541406507604911e-02,-1.431447355994610107e-02,3.297261420227890621e-02
-2.646701386728873145e-02,-5.761123787704005433e-02,-8.683356072740041134e-03
4.092853660893908813e-02,-2.639186119388830729e-02,-5.515805612157169413e-02
9.095049792317666526e-02,-1.025884405320298502e-02,-6.142336710872500771e-02
-4.568863231206360745e-03,-4.023919027277520627e-02,5.273279890533924541e-02
-7.503327745372372071e-02,2.072198433593000141e-02,7.365464044189525689e-03
3.802004994058923171e-02,2.221826918877848472e-02,-2.096770271369467406e-02
3.149796739845722032e-02,-1.508680830953025576e-02,5.230894114942102879e-02
-6.308018441269336307e-02,7.466764298041287697e-03,-2.622462085568780243e-02
-3.564655574306015845e-02,-4.021704732679783068e-02,-1.381768793273773117e-02
3.813828284101089539e-02,2.832221387441321431e-02,1.439175913647609481e-02
3.914572955826600004e-02,3.984116724502588525e-02,-4.205153021045635736e-02
9.583609553018197086e-03,3.109064762170333715e-02,3.192779583660705633e-02
-3.109165702246136434e-02,9.505084272512835664e-02,3.193814596825181318e-02
2.266360035581896359e-02,-4.114997008631565006e-02,2.917436064916259855e-02
-1.383431886235565386e-02,-2.685551459155115228e-02,-5.313929314019091160e-02
4.378865741097277831e-02,-6.675281762047677314e-02,-3.410114631933749280e-02
4.849764546236712964e-02,-4.606201282215141579e-02,2.423861765541708568e-02
1.971754371223441091e-02,-1.791794585676862242e-02,2.408940602697798999e-02
-4.895829424570491417e-02,-1.936023891930455446e-02,5.196354179780197924e-02
2.326552522925043331e-02,8.746296415033817662e-02,-6.176840529491972598e-02
-2.969615254910380406e-02,-4.369061932937735870e-02,-2.740889558173485729e-02
-1.153035812037826909e-02,3.846219184748470021e-02,4.398184556362304959e-02
-2.112201089510253385e-02,-5.478578513709223691e-02,1.649991514522367378e-02
-6.050014594281177133e-02,7.624789829593964230e-02,-4.076481850625510162e-02
1.236009285839616452e-02,-2.880962049920926873e-02,6.829168225239144741e-02
-4.627535352717370570e-02,-1.705817916351919789e-02,-1.472070547581935326e-02
-2.812864640990445086e-02,4.041784874209950612e-03,-4.947415201968121540e-02
-6.065113065828128119e-02,-1.242291851695856778e-02,1.428782830636818324e-02
5.004802426993998354e-02,-1.732790380712327313e-02,-1.596988174558810342e-02
-2.590272446837293963e-02,-5.449797279903496362e-03,-2.911343732765201558e-02
-9.385396379004939255e-03,3.850876514567710962e-02,-1.729506344230258633e-02
4.045066891524135011e-02,3.786198030107192081e-02,-1.074478369337565978e-02
9.333250665079116312e-03,3.042423560720171945e-03,2.826594176058412297e-04
1.702896531608209460e-02,-3.737721161434622713e-02,-1.281314961095141383e-02
-4.229564017055908315e-02,-5.928114629966580590e-02,-6.284475090484963056e-02
-7.165845203973229480e-03,-7.331725274050067236e-03,1.852156905102709042e-02
-1.281495494275580391e-02,-7.834928350050868184e-02,-2.107982053786772170e-02
-2.184110226443617547e-02,3.481420348121236352e-02,2.028130898572165497e-02
5.383736665025666557e-02,-1.095528870067982719e-02,-5.354746700761145450e-02
-5.995317451493022837e-02,2.461428441265452183e-02,5.868833125783141230e-02
1.051363992249237933e-02,-1.777051084463113217e-02,-1.952601206800096134e-02
-6.015649645894959562e-03,2.850746465263309312e-02,-7.771808810277021536e-03
1.008565766344346644e-02,-5.825125078953933416e-02,3.180024866548385870e-02
3.946687336179865307e-02,-1.782065812558010151e-02,-3.065587655854904239e-02
-2.356191824928513534e-02,3.006583451247540895e-02,-5.610024698350471462e-02
-9.549838345630794548e-03,6.191941225993841807e-02,5.927776083217645153e-02
5.352480464708087027e-02,2.412123770776523207e-02,3.881007829034759798e-02
-6.819712548835829558e-02,-3.064971765550859872e-02,2.347617753062871543e-02
-3.497313064977401048e-02,4.906955553924267216e-02,-1.579868568720416838e-02
-7.973795724798435347e-02,1.759753112807139683e-02,1.498492591346186828e-02
9.407286107162527930e-03,-9.548918472441337776e-03,2.758131543657482351e-02
-5.628619756541265728e-02,7.716790731500601692e-03,-1.426658906437394854e-02
-1.872908388846648148e-02,-6.239149895273064100e-02,-4.270535692817754858e-02
-6.739726499192339078e-03,-7.581591821425985589e-02,-1.745012674709823380e-02
6.767091469242983437e-02,1.162190315542414908e-03,3.668072653838976016e-02
1.775815087329691427e-02,-6.615200049824616901e-02,-4.157796758224650835e-02
-2.887944280488015381e-02,-4.435894605830114495e-02,-1.428402383536894228e-02
-3.753428044264715130e-02,2.640999313528793330e-02,8.709101964437927779e-02
2.142587991916255347e-02,-2.645837669387041124e-02,1.129909772445202021e-02
3.877155799550010412e-02,-5.943424157208655745e-02,-3.017977215220100928e-02
1.457531752744042029e-02,-1.697188807985033562e-02,-1.545225437725291501e-02
-3.772527841449411362e-02,-3.803626093996424068e-02,5.958789944336272300e-03
1.339519295788838254e-03,-2.828227643141753567e-02,9.324171469205541629e-03
-2.437742081243453665e-02,1.932423906938958089e-02,2.524642307470691821e-02
-2.133273727077612120e-02,-3.586998678067213064e-02,-1.512644392713148080e-02
-5.997411366330217958e-02,-2.463265718865364703e-02,6.121670546440259597e-02
7.791564584914509317e-02,4.853294252768166478e-02,7.578078992365508415e-02
-5.023809279472165462e-02,-7.996533637996457861e-03,2.055913304811712514e-02
3.166957815888413186e-02,-7.437702676102615762e-02,6.370693797697959092e-03
9.440149439465819747e-03,4.634238872090690187e-02,7.828223538077701271e-02
-1.399971650192706170e-03,-9.115929345265949557e-02,4.438191147372462508e-03
2.897535784737851478e-02,-2.096423166535758744e-03,-4.905820035499453002e-02
-1.866837326398387148e-02,-6.198376498692654418e-02,-1.298867548573598603e-02
-3.514728019054663005e-02,-9.768598322839157355e-02,-1.055387610578961514e-02
-1.907129710859714958e-02,1.711969410512802561e-02,3.683414530623237149e-02
6.587340901772281709e-02,-9.517120125499433552e-04,1.865514264286154134e-02
9.309128484370363110e-03,-1.992362154099755825e-02,3.507607220525955222e-02
2.754791671835402772e-02,6.737578826574279478e-02,7.174110434921408819e-02
7.810676984756659280e-02,1.129297619958074400e-02,3.079376057070802933e-02
2.438266241557112204e-02,-3.403175971671886652e-02,1.268957648429692477e-02
2.999686379476349321e-02,2.132545361165146328e-02,-6.081058324673830479e-02
2.211553478665189559e-02,-2.501097050671235306e-02,-2.166314647617800099e-02
4.524214619128331255e-02,3.808559712589435625e-02,5.573411280119401970e-03
3.697281477768257427e-03,-3.308891094345213502e-03,-4.907253944251703526e-02
2.349790950432763346e-03,-1.031178646800845200e-01,6.771137164851698254e-02
-4.457281124059204319e-02,-6.459918310995856061e-02,1.784572115699689654e-02
3.279784720819350213e-02,6.086999025573581329e-02,-2.653709973873688913e-02
1.707463069109505308e-02,2.161454711324509430e-03,7.662976355963911634e-02
-7.013310517791984666e-03,7.462131178344245941e-02,6.142136234836705067e-02
5.788573220993754875e-02,-6.756228585715948198e-02,2.646408488696516681e-03
-3.177189609386096153e-02,1.137937306588568398e-02,1.275042612606665151e-03
8.541676034448105609e-03,3.174008114184934809e-02,-4.476366299057438908e-02
8.258883812041473149e-02,-1.575040442406059693e-03,-3.001816251783306910e-02
-1.193220200489456123e-01,-2.832928142214174647e-02,1.099698412929000807e-04
1.046874254171154262e-01,-2.789382411408638032e-02,-1.507485954193687507e-02
3.547353951632273295e-02,1.006426637386632125e-03,3.097382060239492474e-02
-2.319859761608780019e-02,9.108223677580505953e-03,1.027935523687283255e-02
8.694650982370019654e-02,3.423690005161384841e-03,2.400846428409615652e-02
1.848094176420759377e-02,5.178334643656341482e-03,6.517680391908133031e-02
4.078846558480905826e-02,1.585496671559829748e-02,-1.255896804176717457e-03
2.897981355447080271e-02,8.399405291158108453e-03,5.791277338567361703e-03
-5.254190750156946706e-04,4.259174304294964519e-02,-5.397337310310523772e-02
1.499541804276237518e-02,7.473384672754844471e-02,5.650963614097924415e-02
2.681565682108338899e-02,-3.934629982221222316e-02,5.805254679179373822e-02
-8.677926807165371736e-03,1.919191962196938397e-02,-5.108125536891507112e-02
2.560862225651224997e-02,9.030197993301973536e-02,1.012637503134678277e-02
3.023668840960601345e-02,7.193370303513718644e-03,4.619911028524893715e-02
4.392406546075769413e-03,2.394922091065369938e-03,5.091596581228510082e-02
-3.338371041072531187e-02,-3.042540616596953532e-02,6.412316463922440590e-02
-2.561026913574049844e-03,3.935305232799699710e-02,-9.780004354597356814e-04
-2.780572686933858659e-02,-5.506919720828706150e-02,2.836409389313751181e-03
7.560831863073584624e-02,-1.609831856733441244e-02,5.635580022349499785e-02
3.673039125029079442e-03,6.403878868536043434e-02,-3.159089575833706059e-02
-2.663084072707904565e-02,-5.600142314719828984e-03,-4.059780356382947791e-02
4.285767911880871556e-02,7.200759375572618470e-02,-8.522450846537429903e-02
-1.518189049137101850e-02,5.696510862109208789e-02,-1.716518542209439363e-02
3.029140050606964410e-02,-5.521830371282127059e-02,6.145209139294571105e-03
1.777693201190108652e-02,-5.538012612720097372e-02,-6.690498520489892957e-03
8.415799646214275342e-02,-4.127667198619126149e-02,-7.337601550388038463e-02
-1.421417578969985792e-03,5.733106243201892618e-03,-1.108517317325982167e-03
-4.505115991503381989e-02,5.723741535110377782e-02,7.378754200903564486e-02
-6.709046652097029606e-02,-2.422151789810696870e-02,-1.690552576944239632e-02
-7.581936866543096017e-03,1.517525577011699829e-02,-1.930095193974780193e-03
-1.394933904198942609e-03,1.781905243090114955e-03,2.457926576204040939e-02
1.451318973485226510e-02,2.398580263815340216e-02,3.221534134072337463e-02
-4.707237023716139002e-02,5.822934772239293094e-02,-2.494779979600660058e-02
-1.576818062574740498e-02,9.376389150254049731e-02,-1.765053345216903435e-02
3.500322383096301365e-02,-4.513514465593852082e-02,-1.156435911852897978e-02
3.093765272748548803e-02,-7.686404019839736257e-02,-5.083371541021424606e-02
7.769200572492598877e-02,-5.687602076114913613e-02,3.120985985751977346e-02
-3.609873492204246359e-02,2.017598397390357441e-04,-3.742801269984869644e-02
2.403602155880709551e-02,-9.163800983004594114e-03,-5.376912872594288156e-02
3.056423373292114012e-02,-9.194926110521358525e-03,-1.676677210464988521e-02
2.102234256480962904e-02,4.168909253243643226e-02,4.429264542299391622e-03
8.389579864031194989e-02,-1.772941709964690610e-02,2.110916902856318014e-02
-8.301248536076624718e-03,3.150542072548279116e-02,-8.169303049217842283e-02
2.321508505345909815e-02,-1.151241642805395787e-02,-3.764696532285515679e-02
2.076619308523407204e-02,-4.585498724469793536e-02,-4.588763974846558902e-02
-5.462065627605866558e-02,9.301049345509675159e-03,1.886739786534548380e-02
-2.537758063936405850e-02,-2.085145122464749506e-02,-1.649036080169126797e-02
3.195928280676877536e-02,-7.616050248376035094e-03,7.355838930128040520e-02
-7.343317688346683025e-02,-2.442956654348464596e-02,-3.129330792682906426e-02
5.575297488496449433e-02,-3.671057594200231172e-02,-3.030790854248670285e-02
1.682178680751587191e-02,7.257474243988459861e-02,8.236278265274095400e-02
-6.235917025551420551e-02,-2.475619008920052280e-02,5.019035249158941558e-02
3.578614485244528947e-03,-9.541336825458961168e-02,1.599172127739119376e-02
5.486802586342381938e-02,-8.691842780634362331e-02,2.374826311508522123e-02
2.208653200078212336e-02,3.350491703417819017e-02,6.388033059739015029e-02
-2.956473774998436346e-02,1.452430881462856913e-02,-5.961797227996414039e-02
-1.068615336804553673e-01,2.535889505291703469e-02,-4.060239313388154525e-02
-1.033016484078420477e-01,3.185037557450699081e-02,3.491529971303113621e-03
-4.731076633782214241e-02,2.676678732575695288e-02,3.469921626984438096e-02
-3.444812738317083733e-02,1.513413679624718740e-02,-1.789412390882479109e-02
2.431472006958523141e-02,-2.138858226809033786e-03,3.399196888781274434e-02
7.537389508576609887e-02,-3.031859149528835957e-03,2.496393753653852396e-02
1.656308445597509671e-02,-3.744333487595531695e-02,-1.584542271869222863e-02
6.031273429370048039e-02,1.190053517740600683e-02,1.163107573518779372e-02
8.014955312240436280e-02,4.271331355851479272e-02,3.039642534711590321e-02
2.531713427863559792e-03,-1.195473094735868408e-01,5.527472356693224204e-02
-7.905237315223832134e-03,-2.615467306332432823e-02,-9.648985140320353107e-04
-1.629568902868193739e-02,1.664532728637812750e-02,2.541798726689315554e-03
-6.152837150581693532e-02,5.234713479715726037e-02,4.125983478725402109e-02
1.871300285184735943e-02,5.956155766735593549e-02,-1.424442789020448873e-02
4.440168388953325690e-02,4.976189867323124044e-02,9.888765917736082323e-03
-1.681806282213564943e-02,5.397523069380447819e-02,-5.481419062568119310e-02
7.303000201010625969e-02,-3.208252247649899915e-04,3.299190957063753791e-03
8.953143013718080356e-02,-1.967450570873286245e-02,1.664713538057321571e-02
-6.208054032850358894e-02,-8.732372365218560306e-02,-3.883567176672033522e-02
7.306548606345189718e-03,-8.652563125964912727e-02,-3.851308304071121569e-02
2.988344856574972827e-02,-9.226844434121087013e-02,3.656392362893887832e-02
-2.633794651308330598e-02,-1.405933264126747392e-02,-4.352409835063347776e-02
5.703702531501692041e-02,-8.874516847214119000e-03,1.985335822835896519e-02
-1.392602554618513344e-02,8.625614135718137621e-02,2.475943235620494537e-02
3.923056283024927565e-02,1.413863115217045725e-02,4.797338218317474291e-03
-6.094109008339551603e-02,-3.642252088599371579e-02,-6.130294781314207103e-02
-2.998068030762130604e-02,-1.217227001616009996e-02,-2.429561891325058773e-02
1.687088506407087574e-02,-6.283963703592389261e-02,-1.194645351926978049e-03
2.454451072996463590e-02,2.527772484762492305e-02,-4.278526302419399102e-02
5.240805149570380850e-02,-1.914640712120497384e-02,-8.516457641756720875e-02
-2.720789710329556479e-02,1.554700638799970738e-02,-6.668665711514872030e-02
6.443727788292276382e-02,-1.139971531540901611e-02,1.904951839912239972e-02
8.354286816020456766e-03,5.359681853261347856e-02,3.669398023047654861e-02
-5.739912937677819904e-02,-6.363450024257622482e-03,1.381803075672392855e-02
-5.158871373373085517e-02,3.397405407577520214e-02,8.754515673139081841e-03
-8.253806796146186120e-02,-2.880445633916639200e-02,4.464268980086361777e-02
-1.828135449549910668e-02,-3.595747084231302321e-02,-1.516372371871393433e-02
3.305590652315505001e-02,2.870529959217769586e-02,-9.349779904734548119e-02
-4.847968143448064954e-02,7.475115445192184391e-03,-3.478537364848750466e-03
-8.259358264299450011e-03,1.934171767417662557e-02,-4.172818103788644706e-02
1.222104750720919876e-02,4.283168247028756870e-02,3.686682106805972206e-03
3.551972468881330752e-02,2.059548630425354562e-02,-6.116276925398259762e-02
-6.304468430872801898e-02,4.522373615296297611e-02,3.909056775335073564e-02
-3.128828925833711250e-02,2.672803253223248951e-02,-9.268543913953918370e-03
3.123629311818694292e-03,3.208471256600247540e-02,-1.804551980043614075e-04
2.281185035179336337e-02,2.324554655344166637e-02,-8.058377701957102068e-03
3.649273238760319255e-02,1.460563969903578944e-02,-1.955433389469828434e-02
1.569722950482685050e-02,1.343748297266538286e-02,-2.870831463538107628e-02
1.780870851818651054e-02,-7.952814872472492580e-02,-4.571314879954372495e-02
-8.800450499719542075e-02,-2.193620960181867988e-02,1.750401191767707310e-02
1.326844227084215781e-02,1.350830319812791440e-02,7.195528615206205070e-03
-1.122446893879961577e-02,-5.142330938253893147e-02,4.917998583670019075e-02
-2.801596842724451628e-02,-1.550973462450198209e-02,6.659577807174159314e-02
-3.425651947997777197e-02,-2.170142024680693591e-03,-5.308598167455498562e-02
8.053287804755629442e-03,3.880093568531310655e-02,-2.438912323278670871e-02
-7.152569993268453885e-02,6.793645282013507924e-02,-6.679045872943215056e-02
-4.241055735577698577e-02,-9.223717157330325184e-03,-1.774273870838303027e-02
-4.820073177032523776e-02,-3.181837334332228429e-02,5.549856201453464560e-02
1.005529219324422657e-02,-1.639856903096501006e-02,-6.515706068431854903e-02
-8.262487932543756408e-02,7.899122464838072288e-03,-1.357304582142790286e-03
-2.092772529055722877e-02,-9.166408806146217336e-02,2.749113634150032043e-02
-4.657155632334050027e-02,6.185250433214035948e-02,4.864568533377883891e-02
-3.772555435638601934e-02,4.795254524313147249e-02,-1.804734924301638552e-02
6.549985225424631574e-02,-2.283206380749972647e-02,-5.964839222132503616e-02
-2.452519989116144078e-02,4.269003348006639165e-02,2.000784546461346469e-03
1.192846342454851744e-01,1.741338655645548184e-02,1.509141243601695541e-02
-2.826892806299151698e-03,-5.862901670026054307e-02,1.800106965824915112e-02
7.461461408615562355e-03,2.204446010887392560e-02,3.476982926012834978e-03
-7.742054082378625572e-03,1.920589397660939571e-02,-2.404931340808259821e-02
-1.026788068268377416e-02,2.217832350731033242e-02,2.365078273018255892e-02
