accel_x (m/s^2),accel_y (m/s^2),accel_z (m/s^2)
-3.834594947791321751e-03,1.502540388486452551e-03,-9.792075013184376786e+00
-6.048100134030237260e-03,2.922747032346371520e-03,-9.808684592788505796e+00
6.626012976881126906e-03,-5.445270045994261669e-03,-9.783896142667812157e+00
5.371214733994326279e-03,-6.110324210395163408e-03,-9.775785554647551834e+00
-3.994837577272362071e-03,1.101900768426978790e-03,-9.797875860091602718e+00
-6.054484376564406127e-03,3.603466997432531907e-04,-9.802397906706779906e+00
1.196891528654028293e-02,2.841755592317935213e-03,-9.790951249974929382e+00
-6.280828139152217111e-03,-2.084336254178204527e-03,-9.793942141179103444e+00
1.725529954435802479e-03,-4.025097494065005103e-03,-9.791710709454561012e+00
2.079071020602636828e-03,2.966898641664128013e-03,-9.786853458199392009e+00
5.369559635580150453e-03,-7.198484273094070580e-03,-9.802070662893635600e+00
-1.041571480856074610e-03,-7.682601069727937890e-04,-9.792808732560478902e+00
-1.909268799486968371e-03,-1.211938155872484095e-02,-9.783385431898132367e+00
7.875189229840529742e-03,-1.919705719080727754e-03,-9.785062024420721372e+00
2.889948494088908065e-03,3.584963151509943519e-03,-9.800604711679945069e+00
-7.363789744042545382e-03,2.580119401696911053e-03,-9.793580831126240227e+00
7.116888260971609807e-04,-1.841334817659275166e-03,-9.790138036909722175e+00
-4.137646438996986364e-03,1.167271110077785752e-03,-9.802322044932981981e+00
4.012341898521168057e-03,-2.212759960084123654e-03,-9.777301874526470371e+00
-2.614209088884734901e-04,-3.693019365856110240e-03,-9.810946186564908800e+00
-1.095355814320168267e-03,4.813079392874436598e-03,-9.812134260497126448e+00
4.788628892111999359e-03,9.078380743660611650e-04,-9.801210974448670399e+00
-1.010678419908173224e-05,-2.619448236592588752e-03,-9.786991848208939970e+00
-3.253308614479135438e-03,4.521366840670048952e-03,-9.781359612994540598e+00
-2.472325409142523290e-03,-2.835679660766724560e-03,-9.792705883847075299e+00
8.429028953562471907e-03,7.913540976542786029e-03,-9.777296962399411484e+00
1.050623506371528397e-02,9.707772654290865123e-04,-9.793021634325405955e+00
9.012380644450106951e-04,-2.189664815864505044e-04,-9.806576483578504977e+00
5.106907093002030495e-03,-5.221006587329735452e-03,-9.789524469454271127e+00
-1.120981116365925203e-03,6.121194230724229593e-04,-9.787379394710484348e+00
6.387449892393259020e-03,-3.585237843003804149e-03,-9.803202397201996376e+00
-1.366971113164672973e-03,-2.633431234660738637e-03,-9.788882535441651100e+00
2.510535004341194441e-03,-4.035804375034483110e-03,-9.787580042348901443e+00
6.903538653740736754e-03,-2.416780390457689935e-03,-9.794244267769672163e+00
-1.123333076729993033e-03,8.639340415770104670e-03,-9.802981177966922033e+00
-1.830748857302650192e-03,1.040450579978258357e-02,-9.799702700961743673e+00
8.196523892621045485e-03,-7.708251834714577137e-03,-9.795026877391475040e+00
-2.960740761315290223e-03,-3.583907709996375385e-03,-9.793924311944479655e+00
-1.745782665465508629e-03,4.244224118753662719e-03,-9.796662760162877959e+00
-1.585281880673323346e-03,4.711540672005820087e-03,-9.796208541292442007e+00
2.133690333031592039e-03,-2.327966014178184991e-03,-9.797406137907634260e+00
-2.002127232636013131e-03,8.478280584928071838e-04,-9.794265563581893375e+00
2.600208241215983505e-03,-2.854178767102314579e-03,-9.802464049939281665e+00
3.715629614895961646e-03,-1.762150948360677620e-03,-9.805217320431308892e+00
-1.925954606227885720e-03,-4.316881283852936659e-03,-9.786837100720980231e+00
-7.881542547696911323e-04,1.174242992170575553e-03,-9.800192071639200364e+00
4.324180947238897947e-03,-1.926577245528057693e-04,-9.809936887547602069e+00
-4.022805487588067969e-03,-5.305489197407091580e-03,-9.787826078196969704e+00
-4.653743322397315557e-03,1.751019354807812343e-04,-9.798405332464565021e+00
1.724390070694540623e-03,-5.161066207166187378e-04,-9.806865043434234153e+00
-3.752634294453281553e-03,-2.579136743197208738e-03,-9.791602118260316345e+00
-7.759181190362676121e-04,1.831998732197424483e-03,-9.795854743775741724e+00
-5.306759607035085695e-03,6.597708760963471794e-03,-9.789889671381182268e+00
1.064627967810437108e-02,-4.640302311479216346e-03,-9.796151545161665197e+00
4.817310638229170029e-03,2.212710713075010608e-03,-9.786312317472528832e+00
6.285573704515634227e-03,-4.090293407995686768e-03,-9.808742134611680541e+00
7.912054348532888276e-03,5.862566238218499225e-03,-9.791593625283692148e+00
8.542177927266175058e-03,-4.113767700848134680e-03,-9.781325930517501988e+00
7.591769454875813179e-03,-3.880075946534819898e-03,-9.803949482856333830e+00
-1.453724634169408598e-03,8.496679869062748885e-03,-9.796640061194286986e+00
5.384115085788547354e-04,4.673702863510825409e-03,-9.785715507547847025e+00
-1.433005505730198387e-03,6.058965060471684441e-03,-9.805246579061373424e+00
1.376882581661767913e-04,4.416881175959944637e-03,-9.795210593322778436e+00
-2.547575189244298023e-03,1.333423422930868850e-04,-9.793502517482453484e+00
-3.909501623530158183e-03,-2.455787419935397294e-03,-9.787789734491214588e+00
-2.523253839679817905e-03,-1.337187355485820945e-04,-9.809562200205737881e+00
-4.564427592115358721e-03,6.355806150633228416e-03,-9.791438183829676234e+00
3.244113936738196851e-03,-7.541566506605986092e-04,-9.797221236733021144e+00
-5.776068269445101301e-03,-4.776600921448956837e-03,-9.783489516076299353e+00
6.228191048509454592e-04,4.979809348672033058e-03,-9.789167925815089433e+00
3.852136180516764659e-03,7.647972669673519172e-03,-9.794156068207076515e+00
-5.141767510293931455e-03,4.480368932456444612e-04,-9.780515752973492738e+00
-7.581961785890872470e-04,5.429192960873799149e-03,-9.786970641876491683e+00
6.889000905551919199e-03,-1.049571318589710874e-02,-9.793224662160264771e+00
3.334343123477155613e-03,-2.976454377149737995e-03,-9.787554517387093256e+00
-1.218572992342683084e-03,-2.041946414186157372e-03,-9.799111260711903526e+00
7.759803439184278367e-03,5.674640763216771792e-03,-9.804079926490340213e+00
2.592377107406467412e-05,-1.092227590632888212e-02,-9.791892993562278491e+00
4.393966181850769703e-03,3.957506329185304407e-03,-9.811033652904137980e+00
-1.938714206499588498e-03,-2.505937061096279693e-03,-9.796139214560360742e+00
3.256386214015060884e-03,-4.781452042729874381e-04,-9.806785933340954386e+00
4.618177837152782211e-03,5.251755981741709073e-03,-9.806013712447438024e+00
-2.040256018199485162e-03,-1.896750460057750574e-03,-9.802875480679794862e+00
1.172185876371194431e-02,1.211569171682785016e-02,-9.794048987725240352e+00
-4.446087307630139721e-03,3.395175289851138159e-03,-9.794571202673084898e+00
-5.603092328129522307e-03,-4.240192979953309738e-03,-9.785766916740081811e+00
4.294775842638443204e-03,-3.490613022125399652e-03,-9.791573673829120139e+00
-1.011054321732764334e-02,-4.601985681162625713e-03,-9.803459335534393304e+00
6.351604400942584966e-03,2.658267369361755773e-03,-9.787181296413944409e+00
-4.029154904578459082e-03,1.178451448395947824e-03,-9.796184998540116595e+00
-2.458025928527549087e-03,3.211591482781675283e-04,-9.793071275945104404e+00
-1.174291039596533567e-03,-6.022396417308018175e-03,-9.789616441305120986e+00
-3.111719108853389613e-03,-3.532224619891744313e-03,-9.796295123683686157e+00
7.656706979112772732e-03,4.795681295128051760e-03,-9.800869653904570100e+00
-3.543261513216947045e-03,-2.830758306053385602e-04,-9.795106319260165506e+00
2.164521696710037298e-03,-4.315561385006889961e-03,-9.796005778945833242e+00
-1.387853655318980106e-04,1.733156361480965189e-03,-9.779664478921208826e+00
-5.327470506414861383e-03,-3.598227385093776595e-03,-9.797417689725270051e+00
1.097088316027541866e-02,1.778426552051919204e-03,-9.788344836087853551e+00
-6.548556074341724265e-03,3.973720079552956266e-03,-9.803456626708522137e+00
5.456154587224431793e-03,1.828721442395305451e-03,-9.786831744798138999e+00
2.078553147715343340e-03,-3.106741351130729197e-03,-9.800538034149088418e+00
3.929811160938723354e-03,5.404058538619340747e-03,-9.807532800080100088e+00
-4.563062586883665471e-03,8.858258205494641199e-03,-9.801905272079796561e+00
3.867399554139261484e-03,-4.537447266059598840e-03,-9.791100545330788663e+00
4.138309152091803299e-03,3.273565809688002825e-03,-9.797974459877204723e+00
3.273595977522314199e-03,-1.127001303422086112e-02,-9.803996122077613506e+00
-9.898846349269480732e-03,3.297952349423932759e-03,-9.787883001156828300e+00
5.133993814193751372e-03,-4.033293984187845231e-03,-9.803643869790873211e+00
3.346736937101114050e-03,-3.077054670163458113e-04,-9.782533041519471340e+00
-3.423180762661647437e-03,8.454042569461488535e-03,-9.815648173725451286e+00
1.068502143946238646e-03,6.799702506760543601e-03,-9.789683284148447129e+00
-2.147442850452902820e-03,2.629954548459130428e-03,-9.799594777115455457e+00
-7.310333606737768990e-03,-4.908888735117954497e-03,-9.803881547681466913e+00
-1.010882998850178190e-03,2.046979224312032043e-03,-9.784282162825558515e+00
-5.759199136761318635e-04,-4.481403319288649462e-03,-9.793510185780023747e+00
-1.596050134449094118e-02,3.949314422968841151e-03,-9.797242349985236132e+00
9.073684061539565807e-04,5.111082473413895366e-06,-9.807090936242465418e+00
7.737602045167758964e-03,1.189152992885854875e-03,-9.778689618820633811e+00
2.955857825791403243e-03,1.417071447757116106e-03,-9.825420081166070574e+00
5.949344978306528309e-03,-2.762858867391392633e-03,-9.811724258189666870e+00
-2.236941830919719851e-03,-5.702657366827684413e-03,-9.789042714937686185e+00
6.671481664420869824e-03,-3.561968474786085005e-03,-9.794759823549100020e+00
-1.848818933150606818e-03,-1.083616120919304870e-02,-9.799034643007367151e+00
3.260059848437388535e-03,-8.511128398167663520e-03,-9.798214033967317604e+00
-6.538467477133556686e-03,1.427103210362108809e-05,-9.786940358279608176e+00
-1.561296595439354718e-03,9.080713990041146743e-04,-9.790513676479722704e+00
3.675945992282426272e-03,-1.127393651773999500e-02,-9.808492794345710308e+00
2.525581773227678767e-03,-2.555036554254158741e-03,-9.804379328343175715e+00
-4.583655675867045988e-04,2.717827188625334019e-03,-9.799468063073524249e+00
4.768507387251222363e-03,3.059036048082947132e-03,-9.791090001973774548e+00
-3.911925697125997678e-03,1.292127267957236380e-03,-9.794070007486766372e+00
-3.725993095653456436e-03,1.435970623471709111e-03,-9.806637595644001948e+00
1.067123182560054256e-02,-5.580744969763898854e-03,-9.783817433579910627e+00
-2.190869803513144712e-03,-9.583670993010474926e-03,-9.778328011708897094e+00
9.106369182001802093e-03,-3.462609893623078269e-04,-9.802183220788290186e+00
1.338253566785583062e-03,-1.194294163445054971e-02,-9.794819192251164708e+00
-2.312793383716300107e-03,4.498933250087687962e-04,-9.781188862766709846e+00
-1.414433816424567805e-03,-7.495070145235251287e-03,-9.798514858832255925e+00
2.407979722953978562e-03,3.131539940723385498e-03,-9.803927575617441548e+00
2.088051997570361876e-03,1.408377240395080297e-03,-9.793576821294212920e+00
-8.240549187779038637e-03,7.779936085901865365e-04,-9.809047622283829426e+00
5.804303454094486212e-03,-1.273919751873893967e-03,-9.798526778744255594e+00
-7.733114170616482014e-03,4.297129537695677272e-03,-9.786410019683277284e+00
-6.381407145292028807e-03,-1.439558102527642696e-03,-9.789008982854916496e+00
6.961003856425841164e-03,3.701339987662925941e-03,-9.788272328404200806e+00
1.692057885501292637e-04,-6.670883616427300544e-03,-9.790110641714498740e+00
2.195067008597769830e-03,5.225312641689912330e-03,-9.797052007591309675e+00
-2.540218431537770265e-03,-1.697375777583945465e-03,-9.784499629057345160e+00
1.062668456107637022e-03,3.592729831992972581e-03,-9.788591330536810631e+00
-8.505705896541161312e-03,1.539723698283563570e-04,-9.778917117253751456e+00
1.879288417676957049e-03,-8.694650177115998899e-03,-9.785588603596115931e+00
2.175569264853655094e-03,-4.719453340469191224e-03,-9.810502995683714644e+00
2.660628602295874584e-03,-9.635869755219433896e-05,-9.803201322879091961e+00
1.837442493670697098e-03,7.342456944234217533e-03,-9.789474920312189354e+00
-3.270719612480153891e-04,-7.505798114578346100e-03,-9.799510784251502571e+00
2.884311345286343867e-03,3.171779034897246555e-03,-9.805599455038750634e+00
1.251600736617586220e-03,-3.245524263448896444e-03,-9.802064572363075712e+00
5.024271196898272285e-03,-4.436412366441488953e-03,-9.795809731632884265e+00
7.255254002860248973e-04,-1.627381874673149674e-03,-9.796423628004728101e+00
3.713304236763051609e-03,4.894196269155675141e-03,-9.793897827178989601e+00
5.203056307002751520e-03,-1.866003686341917520e-03,-9.797596048151552495e+00
1.970547087841412540e-03,1.959588879323975567e-03,-9.795552096917290896e+00
-9.880934139105885736e-03,-3.943560418549764759e-03,-9.805106628318551287e+00
-5.931206706572410454e-03,-7.591210296467281859e-04,-9.797921767599127918e+00
9.604790346451415502e-04,6.116395232522441570e-03,-9.802119926808424921e+00
-2.617660966599145295e-04,1.805277568294973026e-03,-9.800415862902108088e+00
1.154863811872806944e-03,3.541058715192740782e-04,-9.794136927253571656e+00
-3.385825187784427190e-03,3.198095769006321053e-03,-9.796955985432989067e+00
-4.283032752745270615e-03,-1.008095431436186601e-02,-9.793962531057513132e+00
1.367313221224539981e-03,2.830714491170994301e-03,-9.796480423641714452e+00
-8.287987835804521211e-03,1.426924567331851841e-03,-9.787686294853457980e+00
5.811369885864948494e-03,8.508297093190319779e-03,-9.782476851542195817e+00
2.895226284898373323e-04,-3.734359990556608555e-03,-9.785924794832636664e+00
1.128550923572541921e-02,2.843092428884312368e-03,-9.786254449287390855e+00
-6.037277642808511896e-03,6.371291461890839225e-03,-9.815207629139456103e+00
-3.940261867340488951e-03,2.062555179759184738e-03,-9.807075037377545712e+00
-7.667903559891563019e-03,5.184614284355849347e-03,-9.781600132290568794e+00
3.028234154773029336e-03,4.708859823527064385e-03,-9.784081953024847067e+00
1.251108406819891918e-02,5.641299008460605273e-03,-9.804638379250393498e+00
2.379335091867507308e-03,7.780262556336814753e-03,-9.809595283207125149e+00
1.406972612021084460e-03,-1.289215251605876564e-02,-9.790268089221363823e+00
-3.053540675008193858e-03,-3.512340641277335133e-03,-9.788816770550180735e+00
-6.032722244728957496e-03,-2.963509579050261321e-03,-9.794633093632487686e+00
-3.427078307069735701e-04,2.453595070003156305e-03,-9.800513780313515610e+00
1.437152893293071158e-03,-3.460837750519658602e-03,-9.813871769591305139e+00
1.728718424858744721e-03,9.778888842863454282e-04,-9.802739226926689753e+00
2.680834623381115819e-03,-1.186263003656766414e-03,-9.799047151403687650e+00
-3.490312925562932041e-03,-7.985718195869229846e-03,-9.794304307537071708e+00
-2.052359168602799384e-03,1.719766311328218373e-03,-9.800095240565772414e+00
2.744422044126845241e-03,3.204969965896607275e-03,-9.801069262749489752e+00
-2.539583553281403536e-03,-5.308858694637963969e-03,-9.775521881881013897e+00
1.747094044094845647e-03,6.392503854144760897e-03,-9.784602783372138290e+00
3.650458729376098777e-04,-6.410767460191309913e-03,-9.797529409065177219e+00
-2.197417720048174417e-03,-2.863795884848635518e-05,-9.796155313178845248e+00
-1.454346277383994270e-03,1.464014549535198135e-05,-9.798109323795120673e+00
5.196685582317037838e-03,-5.152318503959365040e-03,-9.790474370485620526e+00
3.043876235209929705e-03,8.179022836739142368e-04,-9.793376325115701775e+00
2.050453987901408939e-03,-1.872105961502189167e-04,-9.796509826477826977e+00
6.367629796483286310e-04,-1.340270759821451810e-03,-9.810015317076313579e+00
-4.264253952369819476e-04,7.406965060222650381e-03,-9.802803816299451967e+00
4.313009363075214452e-03,-3.129971269239365965e-05,-9.796903981738486422e+00
-4.133446818646279060e-03,-9.708205436503010086e-03,-9.795533514603462777e+00
7.096251391908870408e-03,1.459635090190284203e-03,-9.793505509950589882e+00
5.260657785251043189e-03,-1.584106393700447516e-03,-9.798118053539617733e+00
3.254800891247520197e-03,5.065603564578045025e-03,-9.804345582102708789e+00
4.053901977761189233e-03,-3.117476465705832072e-03,-9.795395463091042032e+00
2.205627721576953072e-03,-1.177218909487558456e-03,-9.797692544020181415e+00
8.209473046609139409e-04,1.819230845226216730e-03,-9.797653089336142429e+00
1.462468839100729626e-02,-8.322321627241991565e-03,-9.800979562971644299e+00
-6.116840542463165657e-04,-5.125443334600315913e-04,-9.797886529243296394e+00
-6.400182958005077964e-03,2.439187592367486439e-03,-9.789190351622364616e+00
3.274421013580287951e-03,-6.397516951870113773e-03,-9.790072275012022374e+00
-3.048712672253658853e-03,8.232440924785529995e-03,-9.804219120002301224e+00
-7.302668440695384705e-04,-7.604809189221412979e-04,-9.787255225388710400e+00
-6.651809678424618413e-03,6.004603195411508006e-03,-9.787090757334697244e+00
7.246309084816890530e-04,-1.778278908953210983e-03,-9.785533583389449674e+00
8.212262256342804309e-03,1.996811049019177418e-03,-9.792207118024387924e+00
3.148486413230044186e-03,-6.279448560397999680e-03,-9.797196274429573748e+00
-8.741346267421838678e-03,2.791592287527499064e-03,-9.797488939895197646e+00
5.137320064002398774e-03,-4.654095281646422784e-03,-9.784687297175640452e+00
-7.943951097656016397e-03,4.283420574865884518e-03,-9.791797926907372940e+00
-7.900009620819454376e-03,6.886898104147017204e-03,-9.805750427644882805e+00
6.505536939137129306e-03,-1.349999166380371884e-03,-9.810806652415383411e+00
5.125836752076633543e-03,-7.801506670366035838e-03,-9.799117052814960260e+00
3.077615772466284639e-03,4.709760202349037167e-03,-9.800196066354612157e+00
5.027238326167404779e-04,-3.622648040849096038e-04,-9.791171427919595160e+00
2.543421934083387598e-03,1.083377713723872489e-03,-9.807065769725445747e+00
2.975176533587093296e-03,4.118120523717677152e-03,-9.795181951973402690e+00
1.678660271029446720e-03,2.632791684418441403e-03,-9.778586041172831145e+00
5.732011802523584443e-03,5.248859506887781348e-04,-9.796737225023457896e+00
-5.722951835996424423e-04,-1.671771187101162535e-03,-9.795232351535027249e+00
-8.725093008668803260e-03,-6.671013943198983269e-03,-9.797401499528977098e+00
-2.330236275838889776e-03,5.655836374061987137e-03,-9.781661139349035139e+00
2.453418424268801259e-03,-1.954487530913063490e-03,-9.796561617497651753e+00
-3.076587645970804176e-03,1.101506254425027196e-03,-9.798285256142731825e+00
-3.362852281255354885e-03,4.816992829776258096e-03,-9.799773591407625162e+00
-1.396269906488455158e-03,7.674292646145315297e-03,-9.807120694366066260e+00
8.570978522503694484e-06,-6.422223715144732836e-03,-9.800106060013016318e+00
-9.441633354465848657e-03,-7.185957819794683071e-04,-9.776177110668861303e+00
-6.371147122248909745e-04,-3.758975002195042228e-03,-9.799778538753816548e+00
-1.071319297776650390e-03,-3.872791826392107516e-04,-9.791658432163737658e+00
9.667917611068652974e-04,5.430299219092382668e-03,-9.795272189055349799e+00
1.258387841665019845e-02,3.698082716463584746e-03,-9.809074906706543473e+00
1.497535690657205831e-03,5.447786116162732679e-03,-9.798342630405125320e+00
4.991216862104060591e-03,-5.597803794389524801e-03,-9.795346012319848583e+00
2.569248774780094353e-03,1.646665004384076716e-04,-9.801489711384469672e+00
-9.049603019971659990e-04,-4.417393871443167988e-03,-9.799827746639312664e+00
2.963759797557173788e-03,-4.745539861692797093e-04,-9.806426656310049950e+00
5.054050000980261047e-03,-1.846533107486065216e-03,-9.787072019071558771e+00
4.612970538887110374e-03,5.760085953474707032e-03,-9.787822515970113102e+00
2.006724849381347903e-03,4.725642048503382250e-03,-9.789294492778596535e+00
-1.014789261448542168e-03,-3.547683931395210783e-03,-9.772845343368786075e+00
5.587605457932009849e-03,-3.814811140274515511e-03,-9.803280068836269123e+00
-4.528128839315404691e-03,-2.785212968028600872e-03,-9.799923224117831566e+00
-3.504245696235133798e-03,1.644972580761995106e-03,-9.778863472581322824e+00
5.175401699309772896e-03,3.249705514482699367e-03,-9.802526605299501483e+00
-1.310063572913394182e-02,-4.991906921388012709e-03,-9.787308051052553637e+00
5.072269175877933654e-03,-3.394723972428966008e-03,-9.793942619493750001e+00
-2.793991052098973582e-03,-6.743830154015736066e-03,-9.777534016827452490e+00
5.507279684477821985e-03,-2.889004914920314995e-03,-9.791562220679404405e+00
2.550649606849239148e-03,4.765972262249811540e-03,-9.791488971417077636e+00
3.316047513748390969e-03,-1.130203684939690839e-02,-9.806055099378655271e+00
1.178899525859170884e-02,-2.034703454203845661e-03,-9.786535290344410498e+00
4.500239166282169086e-03,-1.438229786195740741e-03,-9.804732556877132410e+00
1.258929962078373993e-03,-1.529524095227997567e-03,-9.797190156578487574e+00
5.998080432737172519e-04,-4.739883142539379028e-03,-9.780173390388515742e+00
-6.387208381821922291e-03,7.403131278789147444e-03,-9.811280954894302297e+00
9.243687703365871186e-03,-8.401383353194508477e-03,-9.789952019738931810e+00
3.754737877757632816e-03,-3.948187107608684687e-03,-9.793623424865851135e+00
-5.667240475606564153e-03,1.587767390278843442e-03,-9.805284690242995538e+00
-1.194668132088320782e-02,-1.098763395557551527e-04,-9.798031148392171374e+00
3.874162505137624009e-03,-5.089234355185427716e-03,-9.808869348044982672e+00
7.146969409170348189e-03,8.246116465625088349e-03,-9.786571584967100890e+00
4.194855220832359498e-05,-3.401978520775728152e-04,-9.792701391878864570e+00
-7.659926099563538031e-03,5.275005602742771638e-03,-9.788093859308043321e+00
1.303525184981954230e-02,-2.445982414925502134e-03,-9.803436028919028544e+00
-5.126610618637688147e-03,9.490644827456451785e-03,-9.797829924625796494e+00
-2.681211573591497834e-03,-1.902092922316627995e-04,-9.776474961294850274e+00
-3.727721648321198622e-03,1.023999903624051369e-02,-9.789173924979486685e+00
-1.021968166776788828e-03,5.722144919678947769e-03,-9.788529462166117412e+00
1.221493749148195934e-04,8.774053785943940545e-03,-9.792288415269919000e+00
-6.817486705521791368e-04,-3.304593252689203529e-03,-9.817810554804585976e+00
2.148935257765915638e-03,-1.382472432123918503e-03,-9.788128467823396406e+00
-1.237719603913655167e-03,-3.476211835787716697e-03,-9.794027316716164222e+00
-1.361229881386001768e-02,3.014908363194507192e-03,-9.770590551866984441e+00
4.951299791619502740e-03,-1.210403376272250206e-03,-9.799501517913212112e+00
-1.075042057895742248e-03,2.932073868364230233e-03,-9.787888246178948037e+00
-4.664191706849212015e-04,-2.246384389847873742e-03,-9.804007595196985392e+00
7.751694213406094608e-04,-3.145959699371688421e-03,-9.795034185998797938e+00
-1.182024203449161216e-03,4.131138256361890394e-03,-9.784429776393276157e+00
-3.203790529564726468e-03,1.573371593429491585e-03,-9.791977542366648635e+00
-3.337025394499519831e-03,1.393163497460733844e-03,-9.780987718395765640e+00
-1.584414769785115560e-03,-8.862787816685320508e-03,-9.793828577457915685e+00
-4.463161450198293786e-03,-3.214605016203360421e-03,-9.792099752145849934e+00
-1.293723579183293781e-02,-1.488843798373397668e-03,-9.802382367233098748e+00
-5.497100122810638818e-03,3.985415592273709208e-03,-9.779293178952382704e+00
2.663965638356372012e-03,2.905324641371928476e-04,-9.791468689043675511e+00
9.908003472443329112e-04,-2.619488665487589626e-03,-9.794916808908206818e+00
3.126285333974698939e-03,4.741799422202464497e-03,-9.791943521520414251e+00
-1.981491616490854615e-03,-2.261433433100980186e-03,-9.783234435208692403e+00
-5.311396127595654441e-04,7.738142066970430007e-03,-9.803561402307119366e+00
-8.850186765880281190e-04,-9.297924487965927159e-03,-9.785603706825748205e+00
1.062854918773094466e-02,3.242661238693871507e-03,-9.810493003301496984e+00
2.795794596652546263e-03,-5.614375719348850026e-03,-9.801902843538876198e+00
3.283858525120707510e-03,2.613704328383163224e-03,-9.789385111681617957e+00
-9.171854787248879051e-04,-2.148100893294487869e-03,-9.780746121582733821e+00
-2.325236484046178630e-03,-2.193786537404999494e-03,-9.782223503852636171e+00
-1.823281496086715274e-04,1.249513362903691745e-03,-9.809777033767360876e+00
2.382587427286812949e-03,8.723513271288960494e-03,-9.795791793027099459e+00
1.773714854340689793e-03,-3.961358594357753012e-03,-9.795992718901635143e+00
7.294605152836315665e-03,4.026034455054840330e-04,-9.784888471309901803e+00
7.005319676847357110e-03,-8.107140354067447763e-03,-9.799102388899452620e+00
5.646277123087846232e-03,5.022662633504368541e-03,-9.793417537271251305e+00
4.146072444616574239e-03,5.591245363254112016e-04,-9.791581383643981340e+00
-6.969448758876276538e-03,3.639143059825156179e-03,-9.785707073437666992e+00
1.469084290768282340e-03,3.232543128992559087e-04,-9.786952691552507133e+00
-3.512547310454751728e-03,1.591291947051642073e-03,-9.795538352278473582e+00
1.095856591743965981e-03,1.460155893818076284e-03,-9.792148375157628593e+00
1.013278115181053549e-03,6.520883183526409018e-04,-9.798432001618705200e+00
7.635388954846624408e-03,-1.109572254421059556e-02,-9.782443764383094376e+00
-3.140707057618321750e-04,1.332563916946364474e-03,-9.783781347271890638e+00
2.778150607335466704e-03,1.225601607289123277e-03,-9.788307709409883373e+00
7.923813997416003776e-04,-1.134719183766124198e-02,-9.794703507039383084e+00
-2.228674062199691511e-03,3.582596980026093655e-03,-9.793090528901828407e+00
7.759207772361112303e-04,-2.826297485691570913e-03,-9.791745083579689535e+00
4.730296331508622248e-04,1.183992694397520418e-03,-9.790037572539924682e+00
1.206073242722110854e-04,-4.137994044011301096e-04,-9.787983131808125847e+00
-3.567181922205866790e-03,2.430631335422863033e-03,-9.797916138502964500e+00
4.238203439423260215e-03,3.408385799546809723e-03,-9.790951841606643669e+00
4.508541961281555682e-03,5.037849610361899537e-03,-9.787439172913130037e+00
4.545099108185289213e-03,4.592349357234011380e-03,-9.785682664398075659e+00
4.495866710752834247e-04,-7.407339573144711142e-04,-9.821947713949331416e+00
-1.787911923216067768e-04,5.779223365239182647e-03,-9.794056458473248128e+00
-4.541032820701923489e-03,-4.304617254497685244e-03,-9.789774541340714009e+00
-2.436921888854479482e-03,-8.704162448289337606e-04,-9.786643455662190405e+00
4.013077615328297307e-03,2.853165845800132577e-03,-9.797176550471382583e+00
7.572557924058195139e-03,5.402594298548300811e-03,-9.805685905580755701e+00
-9.942912617177978359e-04,-1.847752626699981221e-03,-9.794939328035580317e+00
-2.002412245927586310e-03,2.001347729072618792e-03,-9.794036841808157590e+00
-2.257749502350771091e-03,2.478723263282594461e-03,-9.786656523670407282e+00
-4.154156464235025958e-04,1.178135572029145916e-03,-9.803757983783953023e+00
-2.832035949299093001e-03,7.522262544339900891e-04,-9.811242144333476745e+00
-2.888493358397739661e-03,5.719227169231987757e-05,-9.809244428680210959e+00
-4.210588729052971123e-03,1.042449371339028300e-03,-9.794259575991288713e+00
5.946871155673853424e-03,-8.281011248882566914e-03,-9.794060544048633687e+00
-1.560829008949838389e-03,5.990211758989233068e-03,-9.807519404234755100e+00
-2.528088004451963487e-03,2.460594908786845232e-03,-9.793392027547348277e+00
2.979265066831375108e-03,-1.796561472569638490e-03,-9.804162062575503711e+00
1.333183376844206819e-04,2.038547375517730988e-03,-9.780117956820514991e+00
-5.359529520312832779e-03,5.863217790287505787e-04,-9.795300415516010162e+00
-2.979603732986925869e-03,-1.838837887782132245e-05,-9.800684279068898164e+00
-3.508225816044066320e-03,-3.447832493740230191e-03,-9.795030340044077022e+00
-7.059784785632945790e-04,-8.428451873757165577e-03,-9.787987082721649301e+00
-6.450517435854590496e-03,-1.239998573741544867e-02,-9.800148379923443898e+00
9.466795961845745483e-03,-3.184798942033962091e-03,-9.776745573618280005e+00
6.507737156223557945e-03,-8.297107541405413303e-03,-9.792319494506566357e+00
1.100782627704426433e-02,3.667245667820143553e-04,-9.794091752394004757e+00
1.511730067073597953e-03,-2.313838468852857932e-03,-9.784481019510531397e+00
3.189111065775281713e-04,2.124771813167866067e-03,-9.803792890252204018e+00
-1.465375150225460858e-03,8.307733546716159628e-03,-9.792453455143615315e+00
3.781086421117477712e-04,-1.688948115277787761e-03,-9.792207999044627798e+00
-1.962346472047322900e-03,-5.084275864247567254e-04,-9.811016226561855902e+00
1.252751999292535216e-02,-2.328100690701708116e-03,-9.800140559907809745e+00
1.240879424789156612e-03,-4.939432434272032942e-03,-9.794599361433080631e+00
-4.777165161894070082e-03,2.648235742696791305e-03,-9.786085761736007527e+00
1.332339653266803809e-03,-8.986193937700073797e-03,-9.785573021587707032e+00
-3.245164301412381200e-03,-2.870716316723508250e-03,-9.785893983027252219e+00
-6.138969330971365962e-03,-4.047526957880359308e-03,-9.803877176842210162e+00
9.186413665833725872e-03,2.668326178209092826e-03,-9.800173695272780705e+00
5.051424787076689736e-04,1.442213746624862762e-03,-9.788554808306210830e+00
4.577871488516085073e-03,-6.471244101647613198e-03,-9.796124744481167212e+00
-4.995897996820491667e-05,-1.052313564064769969e-03,-9.792281554901046903e+00
2.640556966950509746e-03,1.464129994208167480e-02,-9.799554329362772265e+00
9.520093508045130142e-04,-2.714913457976840267e-03,-9.790897313141799785e+00
-1.305193310045963794e-03,-1.258741369267724758e-03,-9.792134798693998832e+00
-4.327032858931164662e-03,-4.725872876558149735e-03,-9.800709023995079150e+00
-3.124746495818353465e-04,-4.807146150182700466e-03,-9.788589268105601704e+00
-4.828447400657344575e-03,-1.523871816289645896e-03,-9.773588874883431643e+00
8.221437532249620955e-03,-1.046348920677063346e-03,-9.797951998579740973e+00
2.474155123914243467e-03,-4.336607075738305520e-03,-9.797206897513383694e+00
-2.474083962761852631e-03,3.933367218471568207e-03,-9.794871389229378167e+00
1.260867616789563368e-03,8.945955739789911848e-03,-9.795656477935638762e+00
-5.881386022195470888e-03,2.169013192406334806e-03,-9.769413139035874494e+00
-5.608622914985583567e-03,-6.883046401400937098e-03,-9.795389836562357289e+00
-5.458867297933976161e-03,2.956696674975555893e-03,-9.776974062625004791e+00
2.019179304721732075e-03,1.165911035180267931e-03,-9.805563248616536498e+00
-3.891649791705749633e-03,5.511535708302558664e-04,-9.801416340359079271e+00
-2.973293246608270813e-03,8.136798930702486207e-03,-9.789875611039224879e+00
-1.587017173953526091e-03,-4.217208645835513608e-03,-9.803227952244020216e+00
3.254985311597185724e-03,9.347498249385544425e-03,-9.793606523983459766e+00
-7.302759614357236771e-03,4.811411983779927126e-03,-9.782188991909926301e+00
-2.539042050138333624e-03,4.390692680053770100e-03,-9.810157908251293080e+00
-2.788222763374413084e-03,1.346894450019479970e-03,-9.785331129244015713e+00
5.505559272007670008e-03,2.525063150836678134e-04,-9.769748018252931487e+00
-1.305281568761523488e-03,2.075647760081912683e-03,-9.805113050039839351e+00
-2.310916887053099042e-03,3.183816520332720824e-03,-9.778798153284398609e+00
7.052024569284361458e-03,1.059660113769016372e-02,-9.804232668101601433e+00
4.301803096950381627e-03,-8.677872880466633299e-03,-9.800425194697671927e+00
1.726806656675950163e-03,-8.804530436349099296e-04,-9.801460817753918420e+00
-4.266708858492469086e-03,-7.679633199191562495e-03,-9.788616585141006965e+00
-4.643394693262610962e-04,-2.839012365987310469e-03,-9.804036708349535445e+00
-1.183353705135314557e-03,6.703280943371929014e-03,-9.788016518562880464e+00
-4.625649830475549239e-04,-5.935399127878899367e-03,-9.798915548758737160e+00
5.453529490363599914e-03,6.603016057217035543e-04,-9.799201298396720716e+00
-2.965920726898111943e-03,6.750324221090786992e-04,-9.798161924270585743e+00
2.988366093961249484e-03,3.669841485860926653e-03,-9.815790452477360262e+00
-8.894426775235619170e-03,3.694514134291213437e-03,-9.815646290351939030e+00
-2.335746994298070617e-03,7.228711667840353843e-03,-9.796163307054523983e+00
-1.197248076411756195e-03,-5.227656526202878809e-03,-9.799681634017682441e+00
-1.477776282090999087e-03,1.388723807492657329e-02,-9.797321039735503945e+00
-5.096634577763465603e-03,3.615282754674751988e-03,-9.801246266688732334e+00
-5.839393403706380839e-03,3.589224797921452669e-03,-9.802711888590375011e+00
-4.592975381456393391e-03,7.200164058256590741e-03,-9.804103651952363663e+00
-1.270048638057577227e-03,2.134408339487856628e-03,-9.800482060521407135e+00
-2.560676696278357031e-03,8.401247877664368841e-03,-9.788711334840494160e+00
2.043168969319191040e-03,1.266307631296763390e-04,-9.792488316093281853e+00
8.296636705270803158e-03,-6.802446195433130803e-03,-9.801267519184211352e+00
1.647971058174487716e-04,-1.886310990814980175e-03,-9.805870143550055928e+00
-3.834013421279788988e-04,1.201182039480952870e-03,-9.788626860306505861e+00
2.210735969042250219e-03,-4.876375756894693147e-04,-9.800113941916528404e+00
-1.619391586683079532e-04,-1.527247627341372666e-04,-9.798207340519912378e+00
4.950160552212777565e-03,-4.390606754415339250e-03,-9.806586846944727043e+00
-1.346072469538828415e-03,3.842152881274910298e-04,-9.812208110870756173e+00
6.009961453549594011e-03,-7.207259440513177733e-03,-9.792675848155766971e+00
-5.142221760314038062e-03,-3.800807990846086400e-03,-9.796686093429546105e+00
4.996571583531683042e-03,-2.364204349246075486e-04,-9.806130301667607796e+00
1.235503462913236164e-03,-2.088296384225017590e-03,-9.799530305274569031e+00
-8.257862038203536183e-04,-7.496089941624388105e-04,-9.806679582748712320e+00
-6.668767120996107155e-03,7.210011452689550453e-03,-9.798887780436272621e+00
2.650340748810708479e-03,-6.479555665368218545e-03,-9.792439676032532958e+00
-6.747958294072269872e-04,1.496913821597344735e-03,-9.795355713675421683e+00
3.844535704157007929e-03,-2.229987546772334121e-03,-9.790497024088880451e+00
-3.114814403779512034e-03,4.432433098345014803e-03,-9.789471003296991825e+00
-4.055327217318642312e-03,-7.955868977838781789e-03,-9.807867337801312146e+00
1.195375713272306059e-03,8.123233091681952497e-03,-9.798684531059134173e+00
-6.934851523791475160e-03,-2.483922028703516513e-03,-9.794064238951460055e+00
-1.236970789662564718e-03,3.125131355038139472e-04,-9.776255137313299315e+00
-6.300960089546251905e-03,3.477967150553325660e-03,-9.786098627300455988e+00
2.119816717764348290e-04,-7.509978471310757402e-03,-9.798336314476108200e+00
-5.816038094357198207e-03,-1.659301130811002183e-03,-9.799569546180764590e+00
-4.778478399027360699e-03,1.665346180418408352e-03,-9.791855768727051768e+00
-4.238625188212969720e-03,-4.248185247175908022e-03,-9.774323252483037905e+00
-3.616829465577664320e-03,-4.394558344092743679e-03,-9.802306234748566993e+00
-2.389340084317968620e-03,8.544728333138270140e-03,-9.787380165686963451e+00
9.441704414657972220e-04,7.920573512287873777e-03,-9.802736829129091944e+00
3.434123155537429587e-03,-2.806057219350054435e-03,-9.802385112312981263e+00
6.342845627976928004e-03,-5.500833730288422728e-03,-9.792622015946733427e+00
-3.024187026403008915e-03,-1.697719592797424524e-03,-9.794887461743547519e+00
-6.267035033944419985e-03,5.853534835389717986e-03,-9.798183447997701023e+00
2.861513068644173994e-04,-5.698379157032665895e-04,-9.800072934444752804e+00
-8.911588201918941438e-03,2.035747413447802981e-03,-9.784208141865343933e+00
5.886079688629617529e-04,2.065465454426154094e-03,-9.799005386776476811e+00
2.921608282411740278e-03,-1.274693595981567402e-03,-9.788524015693457869e+00
-2.589786162872880610e-04,-1.618874837578521825e-02,-9.789362069953519097e+00
6.229706323337728772e-03,1.489374011030611443e-03,-9.802012811134776626e+00
-1.462221767155756115e-03,5.461267449057284964e-03,-9.789761908141150215e+00
3.329872099508334403e-05,4.001318622746624469e-03,-9.795725091242657001e+00
1.297822682011809078e-04,-6.173770688590220733e-03,-9.798068996912922657e+00
1.493419414002437889e-05,4.475299088985254352e-03,-9.813314070509235876e+00
-4.324622460140623709e-03,-5.708390878503086935e-03,-9.799289223638869117e+00
1.156656398420971826e-03,7.249072689768857984e-03,-9.797157141359182475e+00
-1.573993773552821067e-03,-5.200105270302624039e-03,-9.803869850013706255e+00
-3.802279495078283913e-03,-5.229419302471807925e-03,-9.790952149429369200e+00
-4.100736536411328341e-03,-5.999734764254881225e-03,-9.806774441241211449e+00
5.587176063270749005e-03,2.399413667428573326e-03,-9.794318940085235070e+00
-1.439810455809041427e-02,-5.893231113687414811e-04,-9.793633703435089544e+00
-1.066945531567597364e-03,5.985126469324007943e-03,-9.788557201412574571e+00
2.846868692246883525e-04,8.249393289997752204e-03,-9.799363804035648329e+00
7.882375142068555329e-03,1.388075336486413718e-03,-9.794229741825532187e+00
-5.479803781542662289e-03,4.300418614422806332e-03,-9.782894167130901764e+00
7.661205323852318368e-04,-4.961295162757805828e-04,-9.770199537114013566e+00
3.891823131020220265e-03,-4.669207271865371774e-04,-9.786651558834206455e+00
-4.662180399349145042e-03,2.313575883828786640e-03,-9.794620780617728784e+00
3.453743385476870913e-03,1.408330892285016445e-03,-9.780284873349533115e+00
-3.268828006728225497e-05,-8.215472418590368670e-03,-9.801392097424795224e+00
4.849448046319140490e-03,1.326224604073213739e-03,-9.809897876774531511e+00
-1.708570675161006497e-03,-2.788433834996233499e-03,-9.796658919538533183e+00
2.358358676236976207e-03,3.210178244233270056e-03,-9.797060161117260080e+00
-1.376433404948768785e-03,-9.494724173239732848e-03,-9.792075574431340357e+00
-5.704665453930212252e-03,3.529659708052435355e-03,-9.793578784813359306e+00
-6.773379574324621226e-03,-5.065405256658602178e-04,-9.793607102406770792e+00
7.997223519160082681e-04,-8.294871857830480796e-04,-9.780811092822593977e+00
7.575092227205893272e-03,4.937726888490251778e-03,-9.795881664019058022e+00
1.115866555413713712e-02,5.960301311347128081e-03,-9.789960006176865903e+00
1.805356910154515271e-03,1.941741695912349531e-03,-9.803414269058562169e+00
7.934585913196994661e-03,4.057033596501475638e-03,-9.800659451962166813e+00
3.995674060060711019e-03,-7.484684033877338563e-03,-9.775647822887748362e+00
-4.315340148240380883e-03,-3.288304071937183781e-03,-9.799647200570708705e+00
-1.297625579706632799e-06,-7.134750569545746102e-03,-9.806443294225667628e+00
3.496102368424708774e-03,2.034040955238191478e-03,-9.795042794637851102e+00
-6.271503774689579300e-03,-7.341478007822481618e-03,-9.784224151053033225e+00
-1.342830147009030101e-03,-3.030705350830725439e-03,-9.789838084543745822e+00
9.903424546695113739e-03,-8.694212283254355508e-03,-9.794147547015475297e+00
-2.312119415594469387e-04,2.203388950385172605e-03,-9.792772286152281680e+00
8.122118820883646867e-03,-8.173827209908396049e-03,-9.808814205306344292e+00
7.594835217941656343e-03,-4.409149952852789954e-03,-9.789827004014215461e+00
-1.524748148562828955e-03,2.654138765747866488e-03,-9.795442777536576884e+00
4.548140925690995207e-03,2.318665240703380107e-03,-9.779567873073917283e+00
4.338754872769960691e-03,5.901779120082464164e-03,-9.796602186978487836e+00
-2.529395304141557679e-03,6.703747865285755725e-03,-9.798319711832304435e+00
-4.610716551401092267e-04,2.572020645069151689e-03,-9.785653814044803056e+00
-4.858743815121558686e-04,9.293395555462598745e-04,-9.795999229954446719e+00
-6.095535672262048128e-03,1.005714655446452322e-03,-9.810852316689736341e+00
7.455795668922362250e-03,2.763102716576204543e-03,-9.796733331504867692e+00
3.525177556847820456e-03,7.536621314962913681e-03,-9.787132325824099865e+00
4.256545224681245647e-04,-1.171266364680774962e-02,-9.794269402356631460e+00
-5.837901307536048218e-03,-4.167795884801398128e-03,-9.796094973153985919e+00
-1.551630754696235867e-03,-3.555160346758149889e-03,-9.796738284149462572e+00
3.306218666858367228e-03,5.176210144210902434e-03,-9.802046893611850109e+00
-6.858277684954208015e-04,-4.943086988911491939e-03,-9.806017919374296454e+00
-6.617094963499488107e-03,-5.946815777071857642e-03,-9.800294077177918339e+00
-2.097338934600276317e-03,-9.981347503434221183e-03,-9.791554593038746646e+00
-1.764036932725281852e-03,1.561117226254001315e-03,-9.790637886418915414e+00
4.917628955481847565e-03,8.569294056427654519e-04,-9.800530700779129134e+00
2.940296951230217219e-03,-2.685767179452606349e-03,-9.796503019824266190e+00
4.855582482208420543e-03,-2.741229991876338850e-03,-9.787903038613722018e+00
-9.413621115299215325e-04,-5.106734583382102101e-03,-9.797442445589505056e+00
5.294221645157074461e-03,5.464120859173897220e-03,-9.801885625669983781e+00
-1.627591842719638277e-03,8.700153216060997619e-03,-9.793691023947474150e+00
3.024959553575037830e-04,-3.730470398787593712e-03,-9.799975203854319972e+00
1.663017572270429753e-03,-3.163221081158600154e-03,-9.800574044703388665e+00
2.906134440161894667e-03,6.231936752437329877e-03,-9.793634022309577247e+00
-5.459333412483474701e-03,-4.919197531782171402e-03,-9.794746652332557701e+00
-4.966755896264169433e-03,-1.277028342668285257e-02,-9.793436498869459328e+00
-2.821503836685185056e-03,-4.982967663292222835e-03,-9.793818665094612186e+00
-2.992559043134310030e-03,-2.426158240004071612e-03,-9.794220345377766535e+00
-4.325155232812800954e-03,4.708874089892805051e-03,-9.791225614281740874e+00
-5.996353038214462250e-03,-5.773559091824796187e-03,-9.807627535465870849e+00
-1.350883229263490255e-02,4.428636425759095198e-03,-9.788223744274265670e+00
9.440619551548084035e-03,4.088107256904381995e-03,-9.787790735403362419e+00
-8.907473755186348305e-03,-3.291005637368678185e-04,-9.790787304638786992e+00
8.684402306952844139e-03,-7.119461587514128165e-03,-9.797004325174629713e+00
5.666158141959827706e-03,-5.796813494153998589e-03,-9.787842613358517241e+00
2.042339443433516255e-03,-1.204262900152514157e-03,-9.797539763913134081e+00
-9.051565534673653574e-03,-2.040243592317153836e-03,-9.783899809222777577e+00
5.804833619941942094e-03,3.636085835016758159e-04,-9.804137620418742927e+00
-6.010726882240086631e-03,4.931797099634542721e-03,-9.782649814316915382e+00
8.182806020193521268e-03,-4.754577809368183000e-03,-9.813305902705852901e+00
2.025280236953343329e-05,7.947517085873346057e-03,-9.802881081972838473e+00
5.016443413176871827e-03,-2.907098313160166197e-04,-9.786932359521280489e+00
3.015497776904670600e-03,-3.250035532804645966e-03,-9.811572651331834649e+00
-8.833304614374312214e-04,2.951450212236111491e-03,-9.783364165268903179e+00
4.327183092513916737e-03,1.283971442209446649e-03,-9.785847169485535346e+00
1.443441998070967404e-03,-5.370579879627329634e-03,-9.790363253077227768e+00
-4.100421784729650979e-03,-1.169848677532301772e-03,-9.792940379915542337e+00
8.988857972501286368e-04,-1.269712830634006119e-03,-9.787322222056044296e+00
-5.732919659727379663e-04,-7.347274531565403286e-05,-9.799888996040470701e+00
-6.602214271399974022e-03,-6.736793845045862747e-03,-9.819200694818775332e+00
8.082713699790310818e-03,4.003149971974812385e-03,-9.794334176160857552e+00
1.023616596252500044e-03,-6.096117029459123364e-03,-9.792877115772881780e+00
3.370759777779775562e-03,1.353374443387620743e-03,-9.790644300963190716e+00
-2.862810940624424191e-03,7.008701669412410046e-03,-9.789136708545171928e+00
2.577913896614971324e-03,-1.359489939673250635e-03,-9.788023593409794998e+00
-3.606312893085802333e-03,6.660949034738218588e-03,-9.795999558815639219e+00
7.032310442127193313e-03,-6.283639203531674305e-04,-9.797119527392698757e+00
-6.562857196370854539e-03,-1.974201802400037987e-03,-9.807629180145751135e+00
-4.113584515786741433e-03,-2.572301414749238787e-03,-9.794263746802087667e+00
1.456713077367065810e-02,-1.228591185593544931e-02,-9.785604365422925000e+00
6.383932927253814678e-03,5.738965442691647397e-04,-9.792978303089737935e+00
-2.688926165239060185e-03,1.482244321092524280e-03,-9.795819227185466715e+00
1.555269869482322044e-03,1.218063329015807092e-02,-9.785383674973989088e+00
-9.752195534091661483e-03,3.402196398468288439e-03,-9.790196776786272537e+00
5.659014402302493807e-03,5.466057001079791498e-03,-9.787643619653970006e+00
4.677266910442326475e-04,2.677606170590917170e-03,-9.790616120083820206e+00
2.065190352546924547e-03,-5.068546337142235299e-03,-9.777806909395049928e+00
1.378189041287409189e-03,1.808224112899589403e-03,-9.813904014655177477e+00
-2.917893534580847691e-05,-1.391956055304077256e-03,-9.800809964368042415e+00
-6.265296800250521290e-03,1.440115152793095780e-04,-9.790291003090636934e+00
8.933554380589833754e-03,5.851682378437968006e-03,-9.790512177089530255e+00
3.795616419997761696e-06,-7.239616894293960866e-03,-9.792675523447671893e+00
3.723193879508429160e-04,-6.070784686814756186e-04,-9.796021358024894710e+00
5.825810753085458420e-04,2.651965982942520398e-03,-9.782630717452072133e+00
6.830450781530687451e-03,-5.093157083814509219e-04,-9.794009907647167168e+00
-6.263025645666302297e-05,2.638520659461740525e-03,-9.786259973737685414e+00
3.089091746110481096e-03,-8.595219771719900953e-03,-9.779451393840060902e+00
2.635190929331557384e-03,1.641731132758591453e-03,-9.775065934378281085e+00
-1.244437024455118633e-02,-4.269116643020846522e-03,-9.781457981677251112e+00
1.447135148117118138e-02,7.561773181419072405e-03,-9.785287128177813543e+00
-2.554025598672699220e-03,1.312291824390145363e-02,-9.798389038474509150e+00
-9.292499214978746898e-04,5.709107261520358478e-04,-9.797929062952642099e+00
8.047851831814760914e-04,-1.182453167321419934e-03,-9.792004708592822126e+00
-2.512967643574802023e-03,-1.074138585609969894e-02,-9.822504060831130701e+00
-1.066496033803758080e-03,-1.015955074023146146e-03,-9.791922154439999915e+00
2.522243045469207360e-03,4.308591746536971634e-03,-9.804730139573285541e+00
-4.533532242546331817e-03,6.895663152614413954e-03,-9.784463167844137388e+00
6.127039018636863026e-04,-4.623555659130769934e-04,-9.796582663581682837e+00
9.276980884577255837e-03,-3.763078436975301859e-03,-9.790053029174170973e+00
-6.133102281697551221e-03,-8.088803533109468341e-03,-9.793315033515758827e+00
-1.914351515762543685e-03,5.447716553696641505e-03,-9.781842529288175214e+00
6.016167754563892488e-03,2.930160052115049051e-03,-9.790384190180944302e+00
-1.060140449085665137e-03,2.597221437739657707e-03,-9.795486772854832935e+00
-1.964805878638338000e-04,1.164820271140476829e-03,-9.784955537081598820e+00
-6.385838488493896827e-03,-7.526033665312373451e-03,-9.802561137597601615e+00
-6.797751473768660901e-03,2.864728548410131522e-03,-9.795144232275831087e+00
4.975000661121991609e-03,7.869087031252485712e-04,-9.784343598008495846e+00
-1.152595849316474623e-02,-8.535951074629580249e-03,-9.791643629432089213e+00
1.942491848150814304e-03,-7.759175278588815962e-04,-9.777131209777568444e+00
-1.047278813826940137e-02,1.425969669881280676e-03,-9.785335899290545925e+00
-2.819466321294382719e-05,-1.348873790546010597e-03,-9.810727104444191937e+00
-1.468627822952148828e-03,-1.230960844122316444e-03,-9.794074910331005412e+00
-1.284972698725651494e-02,2.936968651060565139e-03,-9.809241247687262799e+00
2.095872114256033380e-03,4.035132520455072570e-03,-9.800309789484172640e+00
3.156280366328586846e-03,3.348761084283715436e-04,-9.805106465151899542e+00
-3.806466008270834641e-03,-3.660321512602242571e-03,-9.797881056903015917e+00
-2.942797473436934222e-03,-2.587900160406057977e-03,-9.801849415974496438e+00
-8.901188918887640873e-04,4.785846829613926018e-03,-9.801593554598357017e+00
-3.500750311656668310e-03,6.790070108676972849e-04,-9.790415851318655882e+00
-1.832525017974085107e-03,9.876462623039480165e-03,-9.787285736007996562e+00
1.717516342677464339e-05,2.548874937495362609e-03,-9.798596351955813688e+00
1.810924410549697968e-03,4.254759545611106961e-03,-9.795586887399613474e+00
-2.609372554059552680e-04,-3.456967970206460770e-03,-9.780015936569666835e+00
-3.955057617784890622e-03,-9.350187586994241663e-04,-9.800578216350626093e+00
-5.157826911915158741e-03,2.891457656081384588e-03,-9.793283575349756021e+00
-8.971969780006026560e-04,-6.606283951182912936e-04,-9.793196044286796464e+00
4.885880737857884598e-03,2.162997845202325933e-03,-9.788770806295513438e+00
8.551024573776493717e-04,3.572465351746617493e-06,-9.777076463610921309e+00
-3.694850404991231480e-03,1.103499833596004176e-02,-9.818693426736244234e+00
1.832919629427467306e-04,-5.491118905034974608e-05,-9.785035605207111686e+00
8.803139115686963237e-03,6.666172916831006670e-03,-9.797216707376559697e+00
-2.528885323407779103e-03,1.008717387321443702e-03,-9.783782217539036097e+00
-8.899185432679170699e-03,2.396677144431364707e-03,-9.798516434626499461e+00
5.660423312662699047e-03,5.846653797625500203e-04,-9.796743979871402885e+00
-2.817332424234990969e-03,-2.101549277912975050e-03,-9.799547095103211092e+00
-8.889095070942961210e-03,-1.772661154372433268e-03,-9.798567067881519321e+00
6.546063247031292526e-04,3.722888434925557960e-03,-9.800717253028924603e+00
4.047372078223321519e-03,4.384035266230939740e-03,-9.783192077264700970e+00
-7.897022807346569875e-03,-5.231588712843927673e-03,-9.805364504835186068e+00
1.031989304471457461e-03,-1.318048528659544359e-03,-9.796922016784611387e+00
6.819285622525829947e-03,-1.469133706874846922e-03,-9.798144977656296106e+00
-1.215862049693812799e-02,6.101581881093659857e-03,-9.796983289278731633e+00
-3.798865970623617732e-03,-5.448445162558744788e-03,-9.802720816617362942e+00
-8.028997433782124327e-03,2.839869503718686627e-03,-9.792031385235198115e+00
-1.341541391382018071e-03,-2.728993379743082336e-03,-9.791951753419533944e+00
7.192696410253210035e-03,-1.684298276845593413e-03,-9.790371123950654564e+00
2.296019036915466615e-03,-1.352575206445243454e-03,-9.804083577064062638e+00
2.423305320284155264e-03,7.604464127081025406e-03,-9.780496003286669904e+00
1.026975580640288738e-03,-3.143248985886753707e-03,-9.796409054959942964e+00
8.773696722041328735e-03,2.724583350263147952e-03,-9.798862193417068767e+00
-1.120853613854757387e-03,6.869550786217234854e-03,-9.795257781817118925e+00
3.802987432358491751e-03,8.643675113261072365e-03,-9.794356924584791457e+00
3.271962493556134118e-03,2.166132497128455021e-03,-9.790612437435516568e+00
1.321275935884023717e-03,9.476561102255130244e-04,-9.799225583508563986e+00
-3.146710467798876937e-03,8.315718872801851347e-03,-9.798780995546758632e+00
-4.584245034054092692e-03,-3.957282439689768436e-03,-9.800280544310551178e+00
6.914545697218434268e-03,-3.559639468647370769e-03,-9.795740129646462790e+00
3.183108159832198289e-03,1.651293767515719024e-03,-9.793564335569779900e+00
1.022112624428883967e-03,-7.818601756859973675e-03,-9.797527164237628483e+00
-2.631494553106589022e-03,-2.897566825317288760e-03,-9.800561590203278328e+00
9.537658620085924521e-03,-1.153178054258957716e-03,-9.787336975460315003e+00
-1.154979795423853421e-02,1.172303308441612589e-02,-9.801005609214291425e+00
-3.916631455731214330e-03,1.075699027610188064e-03,-9.774138403433692446e+00
2.131069659346249232e-03,4.477316463304339619e-03,-9.812780192463659290e+00
1.154189579778031917e-03,-8.640346237269074317e-03,-9.802291080551270852e+00
-4.414664267471610400e-03,-1.782259953269364067e-03,-9.799425226640824604e+00
3.081919211938321732e-03,-5.979654006396545665e-03,-9.796349767251674834e+00
-3.701660986461885114e-03,-2.650871096129830181e-03,-9.804733808992962096e+00
5.320084201639569722e-03,-4.290486675664979301e-03,-9.786068029803576707e+00
-7.732092696071236546e-03,-3.025508076234239077e-03,-9.803952235589875386e+00
7.441966091158011207e-03,-1.126267070041993062e-03,-9.803266753181240745e+00
3.857471434907834475e-03,4.086834248446526499e-03,-9.787466037219704873e+00
-3.286013394851543235e-04,2.780399223039468209e-03,-9.806651321442240388e+00
3.226432407456607514e-03,1.576566234379563937e-04,-9.787664849882533602e+00
-2.290541160646752082e-03,2.424304303050206846e-03,-9.784642076500972507e+00
3.150740613131051103e-03,-7.525388467729034365e-03,-9.812999677795421150e+00
-4.072370411749089321e-03,7.193573375011156658e-03,-9.783887910057080362e+00
1.161629242968991067e-02,8.216534411642256036e-03,-9.803778742694037263e+00
6.056267504109323456e-03,2.733085536473548859e-03,-9.784217644260481350e+00
-2.558066594824906243e-03,-3.732192988597129567e-03,-9.794131883301330888e+00
-8.252382369686075969e-03,2.117003818790031116e-03,-9.792662040717143412e+00
-6.890370290480726974e-03,-1.521799389361872445e-04,-9.816323366031241449e+00
1.075370253931514676e-03,-3.861118448806014677e-03,-9.792548189778932155e+00
3.487330359623042140e-03,5.141919372877728914e-04,-9.805379015699138279e+00
6.732536538109352986e-03,-4.719547538854501102e-03,-9.796793114599823937e+00
-8.960575705958017442e-04,1.912461234242565297e-03,-9.793322557698287412e+00
-5.618059712298668950e-04,-1.608082437120110985e-03,-9.802570960354438867e+00
-2.157036972573441250e-03,-5.903127617360805039e-03,-9.802219075437133000e+00
-9.743131233801292273e-04,3.825538984506402906e-03,-9.788264592115986318e+00
-2.841347051752866459e-03,-7.645361717429673652e-03,-9.787802057452077875e+00
1.208655585986080075e-03,-1.292876219573627604e-03,-9.794308216687722890e+00
8.602227815205048048e-03,1.747268600868260484e-03,-9.783034406161071672e+00
-1.106721959677976763e-02,5.302557589265608808e-03,-9.796841811534003241e+00
-4.577403735287858232e-03,2.277137151838646515e-03,-9.802683825830722952e+00
-3.643547294093055916e-03,-8.364223249535004262e-03,-9.791630531103868051e+00
1.819117281166973904e-03,-1.452405302709673489e-02,-9.818029282988323558e+00
-1.981895393520222929e-03,5.553762272543661532e-03,-9.795566777982569917e+00
2.547240184543823026e-03,-2.970058585708647194e-03,-9.801725959578991620e+00
5.790552966452426793e-03,-3.394370491474143787e-04,-9.797299713966967971e+00
6.409469038321167524e-03,6.849466485526415748e-04,-9.793043577976805025e+00
1.035674628567174321e-02,3.918370021718641655e-03,-9.785346332773851685e+00
-3.212975899874483381e-03,1.808745295045830273e-03,-9.794970083893401736e+00
-5.775803931066868929e-03,-4.643214061896641675e-04,-9.801503921048169587e+00
-5.889215926974308672e-03,3.202159705430051174e-03,-9.794233420361578624e+00
-1.486220980656273536e-03,7.488463728381198128e-03,-9.800008039936523474e+00
7.785245033493991967e-03,-8.830013665316297986e-03,-9.781010380365993129e+00
-1.508436310803413323e-03,4.421491929145514484e-03,-9.805031623546231145e+00
-1.048222838941185341e-04,2.385815628649358162e-03,-9.808060173060228593e+00
1.713610695269545672e-03,1.281722724669415734e-03,-9.795600859358849277e+00
3.364856613304660583e-04,-2.506964728873251232e-03,-9.794614700830599929e+00
-6.562327501543759392e-03,-7.434938783002924094e-03,-9.808884843500120354e+00
6.263586117686062958e-03,1.876519509068973060e-03,-9.788505598831029886e+00
9.484495668012815975e-03,-8.754405531067837969e-04,-9.802650143201345756e+00
2.207351850929242625e-03,4.725756466798638165e-03,-9.804722534472112727e+00
3.242773024789939208e-03,1.648221704375725776e-03,-9.786832347947573396e+00
-1.544022872960593498e-03,3.707538363284028100e-03,-9.798141990609240182e+00
1.250820030280972535e-03,3.555670259336536545e-03,-9.786711454864409632e+00
-3.832552701126845738e-03,3.955092261990823463e-03,-9.802054353642445150e+00
8.914642138209187550e-03,-2.196979590376152425e-03,-9.795253074932867676e+00
6.307424130770802450e-04,-1.995549394538254605e-03,-9.786672461582785587e+00
-4.544588761374990411e-03,1.610173495878327232e-03,-9.791117523391157818e+00
-7.597036382511940028e-04,1.178507358754903034e-02,-9.796170646596161546e+00
7.410749922766295562e-04,3.936555617575214115e-05,-9.799949176792962291e+00
-8.716961981992158229e-03,-3.592370527662455942e-03,-9.794738523153636578e+00
-7.819608755147111970e-03,6.576668294403610789e-03,-9.798922064443461366e+00
1.089716239746136911e-03,-2.452765434625942502e-05,-9.785768933749453780e+00
-5.916257310384142286e-03,8.000057633902509999e-03,-9.803306619729758253e+00
4.081634473579089789e-03,1.003518532176704559e-02,-9.785140918861959136e+00
5.536079695299070229e-03,1.150069010198617649e-03,-9.804340946507350552e+00
2.587849383347798956e-03,6.145366492541845397e-04,-9.797691214966970819e+00
-5.911619974714737644e-03,2.796576623167587247e-03,-9.790649515543881520e+00
-4.084541999851267445e-03,2.536885353065499154e-03,-9.811100116736326981e+00
3.308611050842137722e-03,8.573540506636027556e-03,-9.781711988024825999e+00
-5.643697529021322011e-03,3.920934685081843736e-03,-9.783795798921611109e+00
5.843422860249987590e-03,-1.137478828105432677e-03,-9.790768896327021409e+00
-6.858365296524770831e-03,5.111662147509549170e-03,-9.782736417985878674e+00
-2.065084251985829789e-03,-5.725269462189209492e-03,-9.790837308498939962e+00
-4.646191637912275990e-03,-1.139849681281819007e-03,-9.802726531165337320e+00
-2.802215933265620428e-03,1.021210209749112696e-02,-9.796958898903540103e+00
-2.484170195373974765e-03,-4.463182926660100650e-03,-9.800431921749389375e+00
6.734963422620433501e-03,1.852285294495942996e-03,-9.794705391918316906e+00
-4.278534918272443831e-03,1.454809168345639996e-03,-9.785418078610092607e+00
-5.984127078991490975e-03,3.159250239029422723e-03,-9.800335895642669826e+00
4.725071662624544602e-03,2.231476836177284997e-03,-9.786782303236464031e+00
8.210476529647356761e-03,2.443376446979121826e-03,-9.800724082277014304e+00
1.209053487808921246e-02,2.007339812092390208e-03,-9.786225109189652827e+00
-5.040671899927472860e-03,3.741672095701502419e-03,-9.791987670123241116e+00
-5.562122653729669429e-03,-2.276782170590721435e-03,-9.789119732322234313e+00
5.120013093092492563e-03,-3.489200651156240608e-04,-9.804710638291215474e+00
-8.422713238819554485e-03,1.419074593730967155e-03,-9.797546340996403202e+00
-8.108640518292581237e-04,-1.838540687905891699e-04,-9.797891109853306801e+00
3.763096251762474646e-03,-3.846288461692915026e-03,-9.807051099354374912e+00
3.049239704551358690e-04,-1.609702962762551070e-03,-9.797398363088101192e+00
6.061638149797841935e-03,-2.621901023103006319e-03,-9.796118872617428863e+00
4.698331336331445368e-03,-4.154488618467911884e-03,-9.795268769220017546e+00
-6.947378676398084825e-04,2.981288053890059422e-03,-9.798781957955521094e+00
-4.962730310307659798e-05,-9.527573993153739054e-03,-9.802527872323304692e+00
1.726467556984297635e-03,6.662608762923990895e-03,-9.788776618472622815e+00
2.321841943845738814e-03,3.157547895424010352e-04,-9.780292335884768207e+00
-2.826198363043013438e-03,-1.274688181469816771e-03,-9.781531151999059759e+00
7.828808725005792848e-04,-1.475192579779970037e-02,-9.804437430220207972e+00
-4.556163781051334079e-03,2.324748516821462867e-04,-9.792116150272505593e+00
-2.285537019623340091e-03,-2.276739657011314991e-03,-9.797862369497146062e+00
1.883684015270066514e-03,-8.166707067776677112e-03,-9.783208884905898017e+00
-6.355700346428344062e-04,7.931030901187526017e-04,-9.789137425673784421e+00
-5.529463146999863757e-03,-5.479369741128978276e-04,-9.794790356715944668e+00
-9.797935941515697675e-03,7.922861634803747555e-03,-9.793644823691293411e+00
-5.022966788712080258e-03,7.928032300656445708e-03,-9.801346385876925638e+00
-3.670267134362740179e-03,1.861281323368543968e-03,-9.789590593733926482e+00
1.475487453467333714e-03,-2.617922066994305894e-03,-9.791222089143746032e+00
-4.941213426808706288e-03,4.727285117840564904e-03,-9.786161126766749874e+00
3.554260017608782112e-03,-6.890047934142243431e-03,-9.799971806971235821e+00
3.966988026079898075e-03,9.464817304090161407e-03,-9.804743216355516822e+00
3.903811527408440358e-03,1.583956169265758390e-03,-9.799016756312601828e+00
3.393438536701413703e-03,6.776481028185123504e-03,-9.783738879059811211e+00
-3.335022640657700163e-04,-1.122923339478690882e-03,-9.801662672876943816e+00
2.421292059773431232e-03,-3.062204197673059139e-03,-9.803474455876278526e+00
-4.370866704856739976e-03,-1.183228107773611360e-03,-9.793671783621249460e+00
2.210448180405703671e-03,5.360837150858606230e-03,-9.799623569483758345e+00
-3.789374940192756416e-03,3.914905124140844080e-03,-9.788791389718134894e+00
-3.735878330381322329e-03,-7.443997422162220920e-03,-9.794488574447180795e+00
2.600353367853627676e-04,1.321923172228290028e-03,-9.790074396729179895e+00
1.054561908435713846e-02,6.986265612891076615e-03,-9.786660364581189597e+00
3.748222349535143289e-03,9.410066525866903975e-04,-9.782809217055206119e+00
3.841250077392152195e-03,-1.593787133140028237e-03,-9.800307717148866615e+00
4.723200967667113745e-04,-1.378093853944294123e-03,-9.787147522246328890e+00
1.169313644565390812e-03,-8.864687964755776570e-03,-9.790707575703088139e+00
-6.299551886178437511e-03,7.404138160557212486e-04,-9.792127727001370019e+00
8.302839926500374911e-04,3.990205594033959316e-03,-9.805021166568471003e+00
-8.111239051904910180e-03,4.295171947947528171e-03,-9.791582702261626636e+00
-5.420540722785175194e-03,2.816463445131537919e-03,-9.795400357251955015e+00
-4.913422458340517204e-03,-6.610099922902228087e-03,-9.789041837911355515e+00
-7.932305776374877347e-07,7.022480023783739082e-03,-9.809610423421178282e+00
-1.243162271438022579e-03,-1.102579151836378946e-02,-9.815736443355076446e+00
-8.203590078246560460e-03,5.269733109813261101e-04,-9.800384715962255910e+00
-1.739965001171309795e-03,2.103316304734573119e-03,-9.797284404762121923e+00
1.082721917485708748e-03,2.592936219949455788e-04,-9.795926425555997241e+00
9.598774601715918161e-05,-5.441152308712929667e-03,-9.802760107556496294e+00
-8.420456592675870612e-04,4.800556576746656604e-04,-9.769368622484529752e+00
3.539573848777564577e-03,8.767335250887920914e-03,-9.788498330144358661e+00
1.640159849785335715e-04,5.741327664615951312e-05,-9.781619413223474169e+00
-3.691335354156118076e-03,5.194261736790696526e-03,-9.792296822744347651e+00
7.880694965675933902e-03,-8.687881352998451379e-03,-9.782923242006145159e+00
5.407538531908134653e-03,-1.048483760951909351e-03,-9.785546829611723396e+00
-1.069055969534494360e-02,3.933692191685397507e-03,-9.797116981760000343e+00
-2.419856788367185079e-03,7.851986861615325997e-03,-9.810036759230998271e+00
8.707020251023688592e-04,3.452302641347969065e-03,-9.789810704351179282e+00
1.501724698846070277e-03,3.113498981474805642e-03,-9.799532296097714479e+00
-1.604312099746148289e-03,-3.931803805206210076e-03,-9.800589808192448515e+00
-5.927879794993403621e-04,-1.310382582652726106e-03,-9.787291563177184628e+00
-2.550910806279826307e-03,-1.678443140620886412e-03,-9.788414178826611689e+00
1.398208687960331891e-03,2.417017059722769735e-03,-9.803587143711585128e+00
8.937302829049715430e-03,3.309729834259399813e-03,-9.785476897576376842e+00
-1.302230345732129481e-03,-1.495626409037641982e-03,-9.801708331595101242e+00
-3.360536469805780555e-03,2.193045813879623655e-03,-9.800223070714299212e+00
2.319058313130473083e-03,-1.020802839784882166e-03,-9.798382488717521710e+00
-2.247233394087586901e-04,8.815224929190733014e-03,-9.784243444100482634e+00
5.587660714672824762e-03,2.486488583712879053e-03,-9.812925609144397043e+00
-8.836115887312846751e-03,5.051248386934375535e-03,-9.799028160533840293e+00
4.344387493597835249e-03,3.817271819933884037e-04,-9.798562962860659198e+00
2.033975771766210767e-03,8.838350834369275086e-03,-9.807855541300931179e+00
-2.072639360291264523e-03,-3.278707644123877562e-03,-9.789883513530341475e+00
-1.315113817374850011e-03,-2.083296038087009347e-03,-9.798737631464693010e+00
1.357920597909561058e-02,-6.822687749163990414e-04,-9.789665470587033624e+00
3.689460448643511106e-03,8.043750879758330974e-03,-9.789909975222764515e+00
-1.998402723481285115e-03,7.359315300132030294e-04,-9.781016441816802853e+00
4.552524567818366612e-03,2.779900677397445508e-03,-9.791812681738138124e+00
-2.982550266854483868e-03,-7.895328592956073416e-04,-9.791615617810487393e+00
5.530555322333215174e-03,7.210525206450940075e-04,-9.772726114639372241e+00
1.845662455356660448e-03,-7.729169823336223995e-03,-9.796191578266491007e+00
4.608560301040812331e-03,-4.561823139925502181e-03,-9.798717629630706583e+00
-5.065036616506393870e-03,-5.219729833637816105e-03,-9.793078186376616756e+00
6.797912668665822937e-03,1.660554249187165109e-03,-9.791274941570797807e+00
5.704509728760822490e-03,2.507539758463641754e-03,-9.797423179162644047e+00
-2.375788070715412464e-03,-6.016322010782162001e-04,-9.797433831657770043e+00
2.649244994415449542e-03,8.368262830347014030e-04,-9.788973908120620848e+00
1.582643435502248093e-03,-4.673115694003844665e-04,-9.790132544498636236e+00
-3.318637347469418405e-03,-4.259881228137173299e-03,-9.788510233220440782e+00
1.427470895657166399e-03,-4.883697827129267199e-03,-9.797019596915886197e+00
1.194450210855433833e-02,6.672503906251749627e-03,-9.795355322880903159e+00
6.377388267552290546e-04,-4.946755627591330196e-03,-9.786616153488463254e+00
1.356831193615734218e-02,3.528612966068257056e-03,-9.787152073918196749e+00
-5.140694785466594884e-03,2.599603710203829258e-04,-9.804099329515077343e+00
1.176950352803419683e-03,-7.383134979657472730e-03,-9.795600460704925183e+00
2.277967200296932351e-03,-5.088740920266467647e-03,-9.792701068247927410e+00
-4.262381655321703352e-04,-5.178801928235340392e-03,-9.792684440768667287e+00
-3.765118296984992612e-03,3.479589905431954618e-03,-9.800751843224873028e+00
5.255682091867636997e-03,4.722836752975085282e-03,-9.790148869976514234e+00
-2.969045102336727218e-03,2.155028593137151612e-03,-9.800984961763459680e+00
-4.738583062280640051e-03,-3.232817611636705502e-03,-9.788291430717764641e+00
-6.318515537202109428e-03,-3.722493831396683165e-03,-9.814758606563211529e+00
-6.177643053697965368e-03,-6.697311134688794902e-03,-9.789566438006396254e+00
-1.932160288233127294e-03,5.957230413221284437e-03,-9.796353768400631878e+00
-2.392470693599295893e-03,-6.066001272734930679e-04,-9.785505896878472498e+00
-1.840013122052993515e-03,4.485215053435005414e-03,-9.811802437819570955e+00
8.947869722111234311e-03,-1.644554483066140585e-03,-9.787498258979619337e+00
-2.924473461041727606e-04,-9.267194773009629696e-03,-9.797714011863364547e+00
-7.956787816780835562e-03,-1.083713113559132838e-03,-9.792935514358184435e+00
4.576393156862889645e-03,-3.859382028688403393e-03,-9.790014768419615265e+00
1.033404505829781247e-04,-7.945620978909427937e-03,-9.791827072553006772e+00
-3.764120377421315260e-03,4.767644073453855547e-03,-9.797940491729681511e+00
1.004425469386428620e-02,3.580258774254448540e-03,-9.792444398753472612e+00
1.035582661472940133e-02,8.771477894565886391e-03,-9.786944831825231006e+00
2.930000757190926158e-03,-4.095634322382606628e-03,-9.794854905030902614e+00
-4.370100595816021546e-03,2.216865395647026581e-03,-9.791824141753842525e+00
1.327748227034734451e-03,1.189022071276776013e-03,-9.798191532867747355e+00
-8.357939612446635066e-03,-6.373078466793203115e-05,-9.799405129756113553e+00
-9.700233464046343831e-03,4.119714228108992647e-03,-9.810844441409521721e+00
-1.201904785588702070e-02,-6.295440029091699773e-03,-9.795394884160472770e+00
6.070893993291505853e-04,-8.435695820752084134e-04,-9.803490483346504192e+00
7.672618135110674358e-03,5.449600740119735220e-03,-9.805640302042105461e+00
9.677831638727107250e-03,-3.386371028838641543e-03,-9.781904287210940296e+00
-1.032033989097822825e-02,6.449747833177240340e-04,-9.796040742988525452e+00
-2.761246804930928521e-03,9.319495498372224254e-03,-9.797481942990668102e+00
-4.963588417577520636e-04,2.814831312957654860e-03,-9.799899262283933155e+00
6.849472658110320258e-03,4.213334576261060574e-03,-9.798507483589403932e+00
1.853395681990945790e-03,-4.324984881241857732e-03,-9.797960388158081457e+00
3.206386649460325235e-04,3.549252544491266934e-05,-9.799352210743089486e+00
-3.405212337392589036e-03,-5.057797766630992356e-03,-9.799566065875387366e+00
-1.437005202871065258e-04,-1.596254839215925777e-03,-9.785636497588594551e+00
9.703645692296048939e-04,2.878001326622130315e-04,-9.789529090630274766e+00
5.639725424428290203e-03,-3.697922045062292627e-03,-9.790739801147664068e+00
-9.243255091032312465e-03,-1.150463167766141480e-03,-9.792124360297281171e+00
-1.582185238325720111e-03,1.190775364726665573e-03,-9.788693702183895340e+00
-1.660182111603507099e-03,2.691012358202457284e-03,-9.789698430534389928e+00
1.685567463786958285e-03,-4.479535405704503613e-03,-9.807742675666620613e+00
-7.573438470318064053e-03,-1.729646557218966546e-03,-9.788724447588695199e+00
-1.970124880430687737e-03,-5.674297719259330935e-03,-9.800275531811630358e+00
2.497990344103420950e-03,-2.387469235503243779e-03,-9.804098477202369821e+00
6.243296572297756669e-03,4.720938540408132350e-03,-9.787125169865557694e+00
3.892898458545478169e-03,-1.318809568083115702e-03,-9.815744110322997429e+00
1.870589639900418003e-03,7.470920334986368323e-03,-9.804685727392973504e+00
2.499124010629703851e-03,-2.601585348808825582e-03,-9.807970311205663094e+00
-9.660024268529849092e-03,2.975587030179166915e-03,-9.804000350050282364e+00
7.385141890251751889e-04,5.818533701997048030e-03,-9.802733286930219947e+00
-2.362040979610357822e-03,2.692291507301308902e-03,-9.812456520642697910e+00
7.329976528879678533e-04,6.239338555701494891e-03,-9.789605410347117953e+00
-4.930612096800477372e-03,-3.430657047429331013e-03,-9.797847784021886497e+00
3.569201446901888036e-03,1.107767009984723244e-02,-9.797979316000256844e+00
4.733025743914605343e-03,8.543356606312458787e-03,-9.809742822278623819e+00
-8.137591640404067891e-03,3.990201763112375018e-03,-9.796477712273011562e+00
6.924714144617503085e-03,2.806145290156011537e-03,-9.794544970636819059e+00
-5.736026727104621276e-03,3.888416045413933906e-03,-9.789790228178684828e+00
-1.186637549883137049e-02,4.950145314886611123e-03,-9.802653366328362594e+00
3.364533798939350288e-03,-2.209712728758885664e-03,-9.809749084316313983e+00
4.575959195616855852e-05,4.309561008708416747e-03,-9.792490609171299099e+00
-5.163991988018192154e-03,6.249734786746417858e-03,-9.800969823272902559e+00
-4.443879899479286598e-03,-2.318683134591630578e-03,-9.794944125141817892e+00
3.084222728475401708e-04,1.912652848190527725e-03,-9.802273748635201400e+00
9.428875181993806934e-03,6.212950362343482545e-03,-9.803226808135105941e+00
-1.494357696919462221e-03,-4.027284469651696772e-03,-9.798969045056306726e+00
7.873651510674775861e-04,-4.132129263807619098e-04,-9.801033755194969999e+00
7.116607726744412750e-04,-6.674797108982817237e-03,-9.802492061287590985e+00
3.106837686227556430e-03,-6.632121607606189691e-03,-9.799380316496554499e+00
-1.225619671498299297e-03,-3.496492628486377440e-03,-9.788161641115395994e+00
3.749166101881491048e-03,7.826186427971044621e-03,-9.795603940638814677e+00
-2.953543968507510616e-03,-2.801115819181894482e-03,-9.793594496378700498e+00
-4.307336048227081333e-03,-1.724745883874637294e-03,-9.803477267135814799e+00
-7.475355655810627525e-03,3.481705732033871323e-03,-9.800774443241966338e+00
3.857292202875170235e-03,-4.153027828257732147e-04,-9.798347726292137239e+00
-5.617862087168843565e-06,4.354200859504182147e-03,-9.795025174273085611e+00
-1.170268786323055456e-02,1.750188506647842347e-03,-9.797292604431151020e+00
1.950846316742710839e-03,5.243155973265540420e-03,-9.797768738567675939e+00
6.072248575807765759e-03,5.275455957291957584e-03,-9.802086123241585014e+00
-2.039192406891158246e-04,3.826452097286818510e-03,-9.789091631574819985e+00
-2.988845081255331413e-03,-8.118552752446104789e-03,-9.799719330672006734e+00
2.408005440964430723e-03,2.141672029777669326e-03,-9.786304178799973386e+00
1.135410295972457155e-03,-4.444171643519109760e-03,-9.804518671091720705e+00
-6.618081185337983292e-03,3.607542415891528938e-04,-9.775648954191982654e+00
4.613106147228995119e-03,6.820570580553815933e-04,-9.802487717260994771e+00
6.465265015341249092e-04,9.774295432084271693e-04,-9.808129305104438700e+00
6.073824876706780326e-03,3.069595735010332161e-04,-9.808548325970241066e+00
1.784530228606600330e-03,4.715229899257211699e-03,-9.787917764550623900e+00
2.764182224022726866e-05,-5.422286422350197903e-04,-9.798776044080090841e+00
-6.076351936224062486e-03,2.963346990684102952e-04,-9.797058707385131626e+00
4.751534756731894127e-03,-3.626645718217386236e-04,-9.792536386987720221e+00
5.360174878953862486e-03,-1.125838325392888731e-03,-9.784889522544677476e+00
7.138739070313870026e-03,-1.966756110864540264e-03,-9.787338035764880928e+00
-1.940598470953700926e-03,3.116108531355874043e-03,-9.802129364997973937e+00
3.857541059870078868e-03,-5.540149680095131542e-03,-9.794103174120012412e+00
1.513965937889982186e-03,1.571984752674800969e-03,-9.791294615953280100e+00
-2.654332881615806532e-03,-1.505136491717732304e-03,-9.798055017878695594e+00
-3.264865053239287586e-03,5.760991510009860761e-04,-9.808150262062113711e+00
-1.903293249773665096e-05,-4.364296149564170224e-03,-9.782343036288727589e+00
3.720672705479625628e-03,-4.154514408276979709e-03,-9.793853906316758895e+00
-5.149243369381589081e-03,-3.955185936964684609e-03,-9.799094522228976700e+00
-6.071773645541974837e-03,3.618741027579011962e-03,-9.783430541050258000e+00
1.081387488809504478e-02,-7.505637443637791333e-03,-9.793395318785934833e+00
-1.168213342610972339e-03,8.368931830940267141e-04,-9.784926727082263298e+00
-5.591731530906337948e-03,-5.201661354979262783e-03,-9.789831078121540742e+00
-6.446625051584287287e-03,-8.741121288163280698e-03,-9.800297954193396777e+00
-3.265299922598599667e-03,-3.476105348299615878e-03,-9.797282986890769152e+00
2.981593865380442916e-03,-1.347092025743228767e-03,-9.805179002434229574e+00
1.341662087241884483e-04,-3.455383676011374613e-04,-9.793293748490778938e+00
4.551250002906003303e-03,-6.104359105586729638e-03,-9.795112312592149095e+00
-2.473495359254412277e-03,1.242633449174913775e-03,-9.786952229966134453e+00
3.720578346798880838e-03,-9.808765213795696096e-04,-9.790811122995135563e+00
-4.287527588907967383e-05,-5.758228300786841398e-03,-9.793327266345881910e+00
-3.812611918140963035e-03,6.728569470070553012e-03,-9.797130330257353137e+00
-3.861639654996249882e-04,8.975036740156919083e-04,-9.790894069915712095e+00
-6.140118219764748031e-03,-8.428892458780144412e-03,-9.772743727611320708e+00
-1.095909398934720707e-03,-4.336682050341390360e-04,-9.796165225517007968e+00
-3.538680551279429435e-03,1.619812797787697004e-03,-9.804118984840497930e+00
9.372211005322421407e-03,4.100974845617247518e-03,-9.806486534371879671e+00
-2.332686869613632887e-03,6.420682476483926572e-04,-9.778421036748001782e+00
2.675408607829725567e-03,-5.402785611400331631e-03,-9.787501751521139326e+00
3.072226954447495814e-03,-3.387908383288926011e-03,-9.796040840751908618e+00
-1.937938795595011907e-03,3.688839748525100590e-03,-9.787289812751680529e+00
9.773304607587707596e-04,-7.024368665748848863e-03,-9.803076396003262971e+00
-2.787378965764900855e-03,-1.007021066751811501e-02,-9.797429626464641217e+00
5.487587470629080345e-03,3.252154315969368447e-03,-9.788326887853834535e+00
4.493721610945128689e-03,-6.771731129368444360e-03,-9.783499977276896686e+00
-6.301155382404734521e-04,-3.473435833202678270e-03,-9.790518322752481239e+00
2.998026213869841531e-03,-3.083168830630424531e-03,-9.793710729727029829e+00
6.944040198622916356e-04,-1.217447758009851735e-02,-9.800159452215206457e+00
-5.018571831848751656e-03,2.332693189312498670e-03,-9.787671179048720305e+00
6.884841729820855710e-03,-1.100571195755769291e-03,-9.793940178006705466e+00
6.538212190514352347e-05,5.754990668888607455e-03,-9.799850427683210796e+00
-2.979419865804145036e-03,-4.520226602428517246e-03,-9.795410889309989599e+00
3.408221843895781721e-03,-2.331525371167300544e-03,-9.791642960000258356e+00
1.954563042277900238e-03,-1.632449504560205258e-03,-9.794430406580730164e+00
1.512115298125969731e-03,-5.829832711315376028e-04,-9.784014816590058672e+00
-4.688777097215554059e-03,8.173585721133594384e-03,-9.776051257979773368e+00
5.187410188029989086e-03,2.788752880766358529e-03,-9.791304178133366065e+00
-1.271286271030430464e-03,-2.349667222765853018e-04,-9.806828679801332882e+00
3.933435638304307730e-03,1.601282422303606243e-03,-9.794147281647777703e+00
-1.965975306054498599e-03,3.145895504407472069e-03,-9.806822856056289339e+00
-1.765109317403157525e-03,-8.671983992719890094e-03,-9.782755589477380553e+00
1.046150614525118497e-02,-1.287197060925456102e-04,-9.783154213899205587e+00
-1.368612866341609082e-03,-9.113483918706489703e-04,-9.789405815617701734e+00
-4.345943533241381287e-03,-4.705633596865205562e-03,-9.790680678410607740e+00
-2.631273065788037289e-03,5.445697567672574090e-03,-9.792152337265672912e+00
1.476957271119051568e-03,-6.002964723316571308e-04,-9.801057485831799809e+00
9.200865400210513079e-03,2.777002133232044090e-03,-9.787418763002554201e+00
-8.507242451130713010e-04,6.852016645733175100e-03,-9.785335703343990943e+00
-9.262560009950737694e-03,1.193569847846480343e-04,-9.797866742308816157e+00
1.008512659885184466e-02,1.212488455006614915e-03,-9.789912889361858106e+00
2.240244652210753896e-04,-6.892743647426652440e-04,-9.802066702982394020e+00
5.499818984994239886e-03,-2.500701737434252257e-03,-9.800608754315041082e+00
2.874072528933419284e-03,4.097240322495595589e-03,-9.794916505214956715e+00
4.848604475550322493e-03,-1.202158634237848051e-03,-9.795294510719756431e+00
-9.880201093329687642e-03,5.954334380257788294e-03,-9.797156804506746752e+00
4.347002355346127507e-03,-7.151829311968412213e-03,-9.801195110853665682e+00
3.736653133800926872e-03,3.386764915881491152e-05,-9.804664914933868047e+00
2.348550488676264415e-03,7.395450263334979284e-03,-9.808243538964475761e+00
-5.629790643930336104e-03,1.173652764244864123e-02,-9.788744694981538430e+00
3.340021706519034341e-04,5.642683490827971727e-05,-9.804664343871914767e+00
5.225318698020976586e-03,-1.606181297242083089e-03,-9.786244999309435144e+00
-6.517067244210405889e-03,9.147419288194916231e-03,-9.792586078303434860e+00
-2.932933553058516066e-03,4.106198944197626257e-04,-9.806779534556396172e+00
6.994149192837252962e-04,-1.451107884538186277e-03,-9.783198537367278291e+00
1.004417864859738385e+00,-1.921693161682287709e-03,-9.799814809008822181e+00
9.937869002286526809e-01,-4.945069918491418193e-03,-9.799401531141901600e+00
9.943990438533449883e-01,-5.699571890468205747e-03,-9.780067143148778896e+00
9.932886090282924130e-01,-2.196247040407643941e-03,-9.807129886513322958e+00
9.993246042252803552e-01,4.621850676174278291e-03,-9.795722990837315791e+00
1.002765939407259888e+00,4.024685481344754054e-03,-9.777342652424655611e+00
9.955379984108951863e-01,-8.701832581186142238e-03,-9.799681568089628314e+00
9.964228524319620472e-01,-3.447213097765107828e-03,-9.796916310073976675e+00
9.925504592063694176e-01,-8.103172332113509069e-03,-9.802817481743257844e+00
9.993674319282656038e-01,1.005332476335116416e-02,-9.796619174869352520e+00
1.002736180296575741e+00,-3.518427069777833004e-03,-9.819325263365819012e+00
1.003732403461859768e+00,-3.288540286724330863e-03,-9.795467811196669317e+00
9.934384961652302781e-01,-2.549052770105352753e-03,-9.804458538522277777e+00
9.973766705151688727e-01,5.560029122580288988e-03,-9.780264810671281950e+00
1.002059024895231021e+00,2.909939516919839674e-03,-9.783371560091246977e+00
9.984942581995047695e-01,-2.597245145840660924e-03,-9.782208662954847256e+00
9.981960311906099559e-01,-8.822366460467462659e-03,-9.795688840922210261e+00
9.953895047895130466e-01,-9.019414374485395722e-03,-9.794863906088050243e+00
9.927301875131170350e-01,-4.507038646130800442e-03,-9.797347627713008933e+00
9.990958173225101824e-01,1.450949996881654037e-03,-9.783288037356429712e+00
1.010808535559742927e+00,-2.756127117579797170e-03,-9.815674031835671443e+00
1.001052471798547616e+00,-9.930250407470123455e-04,-9.790527163407915623e+00
9.977431996861472197e-01,4.000656065773159492e-03,-9.795931402715156722e+00
1.002010015580496516e+00,2.103342731057940924e-04,-9.804838187947320094e+00
9.957641510267654095e-01,-4.716987919351768935e-03,-9.798005368305631180e+00
9.989038893626859261e-01,-2.500183083372571873e-03,-9.813052391410225894e+00
9.935372828714361670e-01,8.725422551575453970e-04,-9.782343392140614213e+00
1.009632063085831977e+00,1.866521015780571186e-03,-9.799407845695196073e+00
9.965821962261831590e-01,-4.290656545263130117e-03,-9.791993505346512805e+00
1.004972347495990403e+00,5.829348436416681260e-03,-9.784735642393064481e+00
9.905356909612075267e-01,-3.007943194795274430e-03,-9.793932950036575491e+00
9.999103005605866068e-01,1.223299404104805609e-02,-9.798130191361297037e+00
1.011557718458290012e+00,-4.448035111833840288e-03,-9.803584856594607544e+00
1.006351682133795666e+00,-6.666386063145369849e-03,-9.800122619138248226e+00
9.999063802614800434e-01,9.864982844239160193e-06,-9.805991195447873565e+00
9.998283981660353037e-01,-3.557612475512780988e-03,-9.794059830161929270e+00
1.006523728951338681e+00,2.134130210367642718e-03,-9.809309288250149805e+00
9.923284299488767113e-01,-4.497714423850963754e-03,-9.810174689393880598e+00
9.998714394449814691e-01,-1.870438704207280688e-03,-9.797070977623397070e+00
9.914987994365651591e-01,-4.731953668018102320e-03,-9.789386233289107508e+00
1.002313403068273212e+00,-1.645620148250045739e-04,-9.794160968780424525e+00
1.000464730567427907e+00,5.401758980382857789e-03,-9.806612418970230394e+00
9.929406548946105859e-01,-4.677806624553656686e-03,-9.796987518037159504e+00
9.976404234426562434e-01,1.462959704222830878e-03,-9.783942038520899942e+00
1.009343832318696732e+00,-4.046725974503126563e-04,-9.784610701380644926e+00
9.877726224951586254e-01,-3.652992957491950181e-03,-9.805214196340321209e+00
9.909148726439436228e-01,-2.088363429484088683e-03,-9.809077534552063327e+00
9.996326444853321780e-01,-4.611915464060748447e-03,-9.783555464975888682e+00
1.002512159394555624e+00,1.192239586180679186e-03,-9.792045084763763896e+00
1.007794355811091780e+00,-7.507658940328702226e-04,-9.806655213868017640e+00
9.998955943221697895e-01,5.833729636672157007e-03,-9.791625462828635662e+00
9.986848577215079459e-01,-2.712593732710287097e-03,-9.793358261291746913e+00
1.001713780961738909e+00,-5.865169695421073096e-03,-9.815974057437433231e+00
1.009870226261496917e+00,6.501142438808607191e-03,-9.794998012584484215e+00
1.005173615423638589e+00,7.281180236226037807e-03,-9.793953946068294059e+00
9.945332422131304417e-01,7.375164623060998653e-03,-9.790580989168692128e+00
9.976462054051603578e-01,7.716203160146095641e-03,-9.784653445463060706e+00
9.991438829305525626e-01,-5.012633186274065462e-03,-9.783614103886723257e+00
1.003730442254479938e+00,4.213818021648595494e-03,-9.793368994558152352e+00
1.002282063579055249e+00,-7.339371856562655790e-03,-9.792242965203250549e+00
1.004336258505454493e+00,5.172896907336526837e-03,-9.803449108544430857e+00
9.969210786614873809e-01,-4.635105638597915474e-03,-9.809898993957784086e+00
1.002222146283499482e+00,-1.320699438612588789e-03,-9.797627718157825072e+00
9.907264443565628742e-01,-3.234513660715843640e-03,-9.787406428433296668e+00
9.954149391251498891e-01,-7.883421232744460688e-03,-9.804442290122519665e+00
9.964621256095342883e-01,6.498327515679861582e-05,-9.803237353163165579e+00
1.001581761799018366e+00,1.952644255841738544e-03,-9.810806362294151484e+00
9.944493466551360683e-01,-2.939384389073982414e-03,-9.790058071506672732e+00
9.991559767369500022e-01,1.382468943477263915e-02,-9.793110637904309357e+00
9.990530215875930153e-01,1.538683653092629347e-03,-9.786141557389457901e+00
1.000593470809872265e+00,5.574846764010904510e-03,-9.799847940123207479e+00
1.003146456222589800e+00,-1.219849934046880226e-02,-9.787853549536514208e+00
1.011092155924827818e+00,-1.061741317137468573e-03,-9.791329718440815455e+00
9.970982156095365978e-01,2.786931075770981807e-03,-9.801026729851651353e+00
9.961861403553788907e-01,9.889143365369881897e-04,-9.795190353397080330e+00
1.003147521216501747e+00,-8.156631437995597164e-04,-9.790160922576763625e+00
9.972897896540721119e-01,5.677159966990750692e-03,-9.783677078039056951e+00
9.900566809692989967e-01,4.148430482077232993e-03,-9.782404179124460697e+00
9.932833632030005910e-01,6.336465881043458134e-03,-9.790695357405382993e+00
9.979751514236440135e-01,2.821526053808749105e-03,-9.794436125394630821e+00
9.939687644270523981e-01,-4.993868843714894222e-03,-9.802883707011991632e+00
9.948830545540681136e-01,-4.550867993177836195e-04,-9.796360519206226414e+00
1.004641999863804536e+00,8.069232123156909117e-03,-9.788748743224365612e+00
9.974987654182572161e-01,4.057366467604893792e-03,-9.793757578818556908e+00
9.931044543240998834e-01,-7.310095581776612957e-03,-9.806181231241506424e+00
9.954933835148414012e-01,4.158438975059380004e-03,-9.792180678043740372e+00
9.971509373899323236e-01,5.936311540277022444e-03,-9.792107592490802759e+00
1.009518191221037142e+00,-6.139660794254693174e-03,-9.803203861949606690e+00
1.005893100165000664e+00,3.852650346680895795e-03,-9.788609741674500597e+00
9.935612952958635669e-01,-4.251324708337276187e-05,-9.780996225805960620e+00
1.008603948210903711e+00,-1.499580844239517844e-03,-9.788079289413721185e+00
1.006861793307531006e+00,6.016598777700784585e-03,-9.798757672298364696e+00
9.953582928716759870e-01,2.794945821952002623e-03,-9.791983205338103957e+00
9.997681670170803780e-01,-9.022503171279463562e-04,-9.810176599186023694e+00
1.001533174170992302e+00,6.829058934429355771e-03,-9.791186929472242895e+00
1.001228077185420506e+00,5.590060822062098943e-03,-9.792149225315215588e+00
1.007970245282555410e+00,1.284377139641785723e-03,-9.794585760895348159e+00
9.943996524753964117e-01,9.619410769876563872e-04,-9.788166870636406003e+00
9.983542190346561540e-01,-2.035705010067951747e-03,-9.792847072974478095e+00
1.009035943279973591e+00,5.472036805874378948e-03,-9.802250393490288261e+00
9.941054074961828135e-01,-9.436362307533628993e-03,-9.797758280729750524e+00
1.002004863307108584e+00,-2.840187075698015224e-03,-9.791999000822240617e+00
1.001917053854008977e+00,2.425274708666172886e-03,-9.777583335865301706e+00
1.000814927278332211e+00,-3.218842086762234520e-03,-9.811473118728688547e+00
9.999735126572319999e-01,-3.874359583036114576e-03,-9.796982530217013263e+00
1.000296629361595802e+00,-3.652190574554721979e-04,-9.786896150276273687e+00
9.944620467109601680e-01,2.089634831560444137e-03,-9.795752369323990294e+00
9.949180265410035862e-01,2.065948494421469221e-03,-9.786214094655663942e+00
1.006918012249990113e+00,-6.845575425170457445e-04,-9.796643062822372627e+00
1.002554221328255224e+00,-1.876292330848281821e-03,-9.803972666127050317e+00
1.002477904986436519e+00,-1.383743708628185423e-03,-9.778440995725615537e+00
9.946204612409688117e-01,1.528219287461073756e-03,-9.783651099501584625e+00
1.006410209622936591e+00,6.291691436802896234e-03,-9.799013216542052263e+00
1.002538143257406533e+00,-5.595359520679399172e-03,-9.789213939351954608e+00
1.000418587246724833e+00,4.276062046123816317e-03,-9.805681623920925460e+00
1.005363737814212621e+00,6.549694004731048021e-03,-9.791350179518765628e+00
1.004253259341286508e+00,1.439865305482555563e-04,-9.788381571141810511e+00
9.981569578006063148e-01,-4.562376251388099505e-03,-9.799699553799788632e+00
1.004741109869846438e+00,4.852381822613677058e-03,-9.789137965078220205e+00
1.001901801024351002e+00,-5.706540829980489248e-03,-9.799863833521206047e+00
1.012873165053263191e+00,4.506229327787564069e-03,-9.802321288661822507e+00
1.003593369630910503e+00,-5.295324363158058004e-03,-9.799215724132206873e+00
1.001169327461837844e+00,-4.127612680207427397e-04,-9.795752413338268738e+00
9.952965097352377555e-01,6.909143113824071231e-03,-9.796398206331657477e+00
1.002183524164178774e+00,-1.904969808767982336e-03,-9.800862044737199241e+00
9.970521020381780675e-01,-1.437323303501384947e-03,-9.792884405683340177e+00
9.969485044035200083e-01,5.908292935843555745e-04,-9.798990371992127635e+00
1.001511643846661137e+00,-3.286763790299120688e-03,-9.796886912840568229e+00
1.004787449782683195e+00,2.387513840109678725e-04,-9.789167291367638413e+00
9.865402835996226472e-01,3.963442827364289239e-03,-9.800961445048262277e+00
1.000000206013713422e+00,4.452099849620878695e-04,-9.784063438690397518e+00
9.999768196338003623e-01,3.453308831891906908e-03,-9.796547507398175370e+00
1.003181027043214435e+00,-7.080703795793352371e-08,-9.792094038088496433e+00
1.008400576730767773e+00,-2.251976427192806075e-04,-9.787351767516302203e+00
9.966987048047797337e-01,2.902729033449642521e-03,-9.790233369272302255e+00
1.000019166418766980e+00,-2.048132249179929979e-03,-9.790936807507740980e+00
1.004790453717310905e+00,-6.850190009613533202e-04,-9.799650038920271200e+00
1.001661399650606299e+00,-2.449242720885893426e-03,-9.795218763296832165e+00
9.981761880340178639e-01,7.508933561901586212e-04,-9.803516549616780651e+00
1.000316305347013435e+00,-1.243806549769713990e-03,-9.783502281929527200e+00
9.984859859154641137e-01,7.732022815295161097e-03,-9.804566601385118929e+00
1.005498209029723755e+00,3.038825182829217250e-03,-9.785255859052133687e+00
1.008601393622619913e+00,9.631119311531776556e-03,-9.795048936043556864e+00
9.964570082779643512e-01,-1.214008346504903474e-03,-9.791995327101790991e+00
9.978925211308381504e-01,1.267916732016619724e-02,-9.800983202660530580e+00
1.001249916435072329e+00,3.788173215994564830e-03,-9.793500048022089288e+00
9.962338798667977890e-01,1.743360019497106408e-03,-9.787325456459889494e+00
1.001453951966275291e+00,4.521801593705714571e-03,-9.786844417960404385e+00
1.007101377798180764e+00,-6.844911395138038139e-03,-9.789950743175969805e+00
9.968705107680571054e-01,-3.273265803407886796e-04,-9.789268342822007085e+00
9.974157681855500002e-01,-5.190889377279111778e-04,-9.791287380935052909e+00
1.000702325668495929e+00,-3.954020155428307308e-03,-9.813289230742620717e+00
9.952601200737679621e-01,3.383837079814316830e-03,-9.793492559718545820e+00
1.000610458543878645e+00,1.393879576606394527e-02,-9.794830540102001493e+00
9.992594666169228868e-01,-2.269875218611685803e-03,-9.790710681212354771e+00
1.003168414768656147e+00,-1.775830167926695279e-03,-9.792851470438204586e+00
9.955599889473527586e-01,-2.200202791651028646e-03,-9.799448705623671430e+00
9.943555947247370019e-01,7.407139725045068339e-03,-9.798085667094101225e+00
9.999987467772478711e-01,9.998970153425499122e-03,-9.791883859886457486e+00
1.000894403549466016e+00,-2.235326674591663933e-03,-9.792544956449768634e+00
9.987708041297033157e-01,2.906903466882997285e-04,-9.780422574244296285e+00
9.982785052500749989e-01,-7.794843860847779646e-04,-9.800016782574543228e+00
9.881757255090072301e-01,6.679645158176531448e-03,-9.787933404157220352e+00
9.982286555635929703e-01,-7.802579316507615714e-03,-9.791376982497666859e+00
9.964561710183917898e-01,-7.760341729580623590e-04,-9.782170837515119288e+00
9.975428357632901699e-01,-5.029321055947503800e-04,-9.788750127435870141e+00
9.974552197497108530e-01,-5.774377223400426438e-03,-9.805748451673409249e+00
1.002953394541559629e+00,-7.880595155220233156e-03,-9.798826699827920095e+00
1.000136591617460491e+00,-5.342427812508294439e-03,-9.792974812686928487e+00
9.979166203434211013e-01,-3.005130433393932661e-05,-9.783416989011813669e+00
1.000843887693290801e+00,9.866273980945778222e-04,-9.806626919320120095e+00
1.005489058533586944e+00,-1.607833664533377680e-03,-9.798212546084844377e+00
1.005938355898616798e+00,3.150362499647380737e-04,-9.802444819223675054e+00
9.924843889765295746e-01,-4.394648004960411769e-04,-9.807236213624438648e+00
1.006372243704231506e+00,-1.276018140915181941e-03,-9.800935676913713479e+00
9.932448639408479885e-01,-3.560089953618494289e-03,-9.786144981966522494e+00
1.008379327211350818e+00,4.744806070719087446e-04,-9.793137385704886455e+00
9.905096574469721693e-01,1.306219060778589063e-02,-9.784590968661118993e+00
1.001238957651396033e+00,-7.717493740098679573e-04,-9.790352749758941542e+00
1.001201127825320114e+00,-2.013943041528902089e-03,-9.807908410933176668e+00
9.970202746037771790e-01,8.238733818295491951e-03,-9.796318887161140410e+00
9.988657624976304827e-01,9.368195593229477428e-04,-9.797189438726944033e+00
9.968637021818101962e-01,7.994412588128274166e-04,-9.779916980267893578e+00
9.970379308142650610e-01,4.622863241296529258e-03,-9.810123573682201226e+00
9.985545316182221631e-01,-2.282867752359472955e-03,-9.800562607531409398e+00
1.007257086459540707e+00,2.969438654150595262e-03,-9.806342138919148965e+00
1.004408896960847120e+00,-1.024567924795167844e-03,-9.799638154602940077e+00
1.000095585399355169e+00,2.493097734601045900e-03,-9.795843987378370699e+00
9.931508624913254479e-01,7.182575908235786996e-03,-9.794344485118225307e+00
1.005147202368247283e+00,5.173221449192588056e-03,-9.798961243635345042e+00
9.991907077748083399e-01,2.575551144981406607e-05,-9.785156690940503665e+00
1.008064732580524758e+00,-1.790033958537618104e-03,-9.798065451489094357e+00
1.006156295580890037e+00,-8.820335769369327256e-03,-9.790417832670552656e+00
9.942238860412978552e-01,2.269196827742827097e-04,-9.802190438695269847e+00
1.004888676724091212e+00,-3.937376434304107326e-05,-9.793103915907529711e+00
1.004949997822390362e+00,-2.806849440317258498e-04,-9.804800851832842667e+00
9.988043667951592708e-01,-1.101715891013301354e-04,-9.783731869904865874e+00
9.981136925339275656e-01,-2.910997040678714107e-03,-9.797235542029071098e+00
1.001555187435693606e+00,-5.097287608939662408e-03,-9.799576592389245278e+00
1.001839946610683096e+00,-2.748820807725652765e-03,-9.795832445661101673e+00
1.014038748964754433e+00,-4.539945823258006996e-03,-9.791769230044671701e+00
9.909531586027220396e-01,1.417618162468328984e-03,-9.788826194583462481e+00
9.952981543940103704e-01,2.152413631694136825e-03,-9.776137993550598537e+00
9.964636553635232152e-01,-6.032860550995598238e-03,-9.791590006494461207e+00
1.003002783356644168e+00,-1.092201699224800999e-03,-9.803566650911134772e+00
1.001760547880810703e+00,1.004427037647963143e-02,-9.809514958710249033e+00
9.996738516634452454e-01,1.319673254590750244e-02,-9.817234645885710265e+00
9.949452915514810369e-01,2.988995732163145149e-03,-9.788248137974010277e+00
9.897287079281379407e-01,-4.280438241792154999e-03,-9.799190636335444182e+00
1.003252118493664247e+00,-5.993905406686939226e-03,-9.807319601112920893e+00
1.006572375025374555e+00,-1.162414168269982218e-03,-9.787234982356890711e+00
9.951300648767985590e-01,-3.323215275851547140e-04,-9.804168723674008490e+00
9.931299504519267574e-01,1.647725534616305574e-05,-9.798095846277609766e+00
9.949095379493644309e-01,1.016471332733755693e-02,-9.799699196121997247e+00
9.963255768275725011e-01,1.740245363692263011e-03,-9.795158874580963015e+00
1.001338066653416403e+00,-4.877534261598650937e-03,-9.791979305225964936e+00
9.949062935257869666e-01,-5.356379880412559568e-04,-9.807571201519763804e+00
1.003691027265870783e+00,-2.207934776650697251e-03,-9.797145507039410006e+00
9.993810427947721342e-01,-1.872957403177812551e-04,-9.793087705076194638e+00
1.003773776699435238e+00,-5.584488113736780709e-03,-9.793137672610642497e+00
9.986763007466618047e-01,-3.282260884167456649e-03,-9.808690047903303011e+00
9.931366642973551428e-01,9.267569971732310743e-03,-9.800135880216085837e+00
1.008070327534933863e+00,5.758884399266567429e-03,-9.786225820471308623e+00
1.005642629476420913e+00,-1.928602482464657382e-03,-9.784290910253483631e+00
1.004740946009343050e+00,-6.223381720428879799e-03,-9.787883869009277760e+00
1.001744085853024213e+00,4.149693979085872578e-03,-9.782006809540064296e+00
9.952300015765797037e-01,-3.899589331987325831e-03,-9.798115954716353215e+00
9.944148883394220428e-01,-3.334830711063032239e-03,-9.808911248719949683e+00
9.931333720693348299e-01,5.987072259892087418e-03,-9.795311490452533576e+00
1.002552405719878914e+00,-3.469998317166277362e-03,-9.788249855679625355e+00
1.001343878384406416e+00,4.444013703368604809e-03,-9.791058537087575786e+00
1.000568360198636819e+00,3.155883980739561129e-03,-9.791864261259560109e+00
9.996407975045623617e-01,-3.816315250977409240e-03,-9.790940701674758273e+00
9.948216070764245300e-01,3.065763974738389824e-03,-9.798834668813020343e+00
9.972226808405045828e-01,-8.544937192501775650e-03,-9.787001451810864339e+00
1.001103286458473685e+00,-9.810942809517391935e-03,-9.807082739332962262e+00
9.999077028314011795e-01,-3.674990436758197149e-04,-9.799576416546937452e+00
9.939389197544956644e-01,-1.605936601293427024e-03,-9.796564818430020694e+00
1.005348744335947231e+00,-4.904347584656517083e-04,-9.786932247729074774e+00
9.973921729387584811e-01,-7.036708894898222391e-03,-9.786593786412261409e+00
9.998420307662371220e-01,-4.433802286354213487e-03,-9.785822882555983426e+00
9.994637481780714872e-01,4.025321566087858988e-03,-9.806194628804039581e+00
1.007651728558278226e+00,-6.005214644264342434e-03,-9.802545563027857511e+00
1.001758098432391275e+00,9.464253170034067283e-03,-9.789324762789105350e+00
1.006810996449113649e+00,-9.225428170731261521e-03,-9.800387343950445640e+00
1.010608641454187495e+00,6.740096770172889981e-03,-9.777971498540022566e+00
1.001454028349579861e+00,-2.587871454174064077e-03,-9.799839991203084466e+00
9.992834285638211300e-01,-8.674513252429897530e-04,-9.796620349860999610e+00
9.936362319900543527e-01,-1.734668684295065247e-03,-9.794925003393622376e+00
1.003985834319085946e+00,-5.004063524701690517e-03,-9.808202035951069320e+00
9.884531814621416723e-01,-4.983989753193591131e-03,-9.798723749963256680e+00
9.998789874624928187e-01,1.232294910910134962e-03,-9.784255772191151834e+00
9.989287518404312838e-01,3.532636173857809357e-04,-9.782767587824698907e+00
1.002550332920417508e+00,5.171536348546296874e-03,-9.793893394456212320e+00
1.005253648962212143e+00,6.142663042530618379e-03,-9.806218374405611726e+00
1.000679174980689146e+00,-2.033418932089405603e-03,-9.808587176012533604e+00
1.008202022772689999e+00,-4.326220147230844248e-03,-9.798155123477547690e+00
9.991666306034296952e-01,1.657558506693444745e-03,-9.779662637432194217e+00
1.008919907115148007e+00,1.597885853355907482e-03,-9.799029167964626197e+00
9.943737094780220609e-01,-9.437505750853178790e-03,-9.798314208727445518e+00
9.995957861947695200e-01,2.242090079674733359e-03,-9.784629458170090999e+00
1.003577988780024022e+00,1.137613723193956210e-04,-9.792138078810658897e+00
1.011983308038528317e+00,3.826633526524452367e-03,-9.792602031011936603e+00
9.963374737896608657e-01,-5.405495345894418754e-03,-9.798370015980804482e+00
9.998423152652858859e-01,-4.449249126630496626e-03,-9.786955018893525704e+00
9.987219701577041420e-01,-3.797541373455941283e-03,-9.792335882116224965e+00
1.003188775127765942e+00,5.306651325750374494e-03,-9.790749911982672415e+00
1.008298438461692870e+00,1.978646118733234319e-03,-9.796880740094541906e+00
1.004785647781077262e+00,6.519118446146466954e-03,-9.783799461804271402e+00
1.006025121496977759e+00,9.125942391269783668e-03,-9.797873381652648206e+00
1.010027974723681332e+00,-1.829790834448013267e-03,-9.797881323100826378e+00
1.000851727492393373e+00,4.962024884953000411e-03,-9.811757524892163573e+00
1.000438996777326173e+00,-1.079795951437262543e-02,-9.798893044513743433e+00
1.000898288616426157e+00,-3.450640665489067543e-03,-9.809884665184334551e+00
1.005939537299217479e+00,-9.474318123067869066e-03,-9.799173631099234782e+00
9.974200598841725940e-01,3.164441265821396621e-03,-9.784225929252118092e+00
9.974592377923222619e-01,-1.988224718228752755e-03,-9.788032438582042971e+00
1.007466349721438004e+00,7.233313209591238357e-03,-9.803266186788917480e+00
9.962370467449036537e-01,-8.640460246548331211e-03,-9.773057268422892463e+00
1.003846269928938773e+00,2.118013236783580777e-03,-9.795307974844751797e+00
1.003357571662259584e+00,3.814363414875806754e-03,-9.789859799755383563e+00
1.000010504351666052e+00,8.259076203466910598e-03,-9.798824057773096285e+00
9.964368676560211302e-01,6.045987958946255148e-04,-9.786458563539634170e+00
9.903254362954596601e-01,2.872665859356424937e-03,-9.780161534053139150e+00
9.983848109739434928e-01,-9.864549410693619971e-03,-9.784633206313340992e+00
1.005993669821298786e+00,-2.182297475643572848e-03,-9.798013724217316422e+00
1.000779323377612107e+00,-1.117201422748971724e-02,-9.785801768002572842e+00
1.003648873464196845e+00,4.836953835823149146e-03,-9.798400136538456096e+00
1.006688411449295550e+00,-3.643239903148738461e-03,-9.787590502431541495e+00
9.973104085751749448e-01,-1.380207793922382095e-03,-9.796531618166897104e+00
9.980070933460089000e-01,-6.942793255810902030e-03,-9.803408824849698888e+00
9.851927865052662048e-01,-4.426379036757289304e-03,-9.793772127330971244e+00
9.983479002450015294e-01,-1.557307983134110108e-03,-9.804464365737180387e+00
9.963975002091581823e-01,-5.603807648715846594e-05,-9.795366084500329862e+00
1.001078589762860682e+00,3.394607934356724214e-05,-9.788086295290611361e+00
9.860494156349320916e-01,-4.058256880872205142e-04,-9.794538009673511070e+00
9.937976015741701863e-01,2.330682821962210688e-03,-9.809442991282363522e+00
9.965388801016663578e-01,1.398127535286094623e-03,-9.794345633989495425e+00
9.909551617103821153e-01,5.815085539752457927e-05,-9.777919649937368618e+00
1.000941265491520182e+00,-1.420912721510509845e-03,-9.801626338326029142e+00
9.973123463042600223e-01,-4.724925982653213619e-03,-9.796931393984236180e+00
9.956368739586058947e-01,1.508238182459046639e-03,-9.792633225597457525e+00
1.008910715146398740e+00,-4.706203894841472571e-03,-9.801440019030021489e+00
9.994099919523397046e-01,-8.884242622198952610e-03,-9.788883134519203111e+00
9.981152977315779218e-01,1.815672917419639768e-03,-9.790842000349300633e+00
9.939174786837022824e-01,8.569321091019954997e-03,-9.793688319207326742e+00
1.010465578365098871e+00,-6.488332429192078012e-03,-9.787515855515835028e+00
9.975760524686172470e-01,7.691759565857556828e-04,-9.799890737918484973e+00
9.966267440398124400e-01,3.204727728266618982e-03,-9.796244209243253565e+00
9.989227971752252522e-01,5.328421235234398652e-03,-9.795912872192872101e+00
1.006062804506753450e+00,-4.046868042168639580e-03,-9.782062158058698387e+00
9.964562115513825313e-01,6.138497743299924786e-03,-9.789126793497795020e+00
9.985888518692593863e-01,-3.046262568208207150e-03,-9.782605996473197507e+00
9.934286831950961405e-01,1.681016738442919030e-03,-9.782054203420539551e+00
9.994678712116410457e-01,-5.748039887435513673e-04,-9.797551542955835302e+00
1.002192459929317270e+00,1.324041450549306390e-03,-9.785022231604852294e+00
9.941470325492175464e-01,-4.366650365019110664e-04,-9.788606612606546520e+00
9.988321905201389406e-01,1.941321384224016077e-03,-9.798803472004783188e+00
1.005598586002548478e+00,4.345804570083877660e-03,-9.798979600237217369e+00
1.000312226709757280e+00,2.155047702430184977e-03,-9.788182129260686537e+00
1.006238908817326916e+00,5.824737249765877872e-04,-9.788172618186742113e+00
1.000097805148306485e+00,-1.899353714620537984e-03,-9.799753603554231418e+00
1.005657244652262472e+00,-8.796091027495268888e-03,-9.794380860591312299e+00
9.957823999529967773e-01,-7.971825952484710770e-04,-9.787661824601583405e+00
9.949400349073098671e-01,1.961843246003524416e-03,-9.796784414721791734e+00
9.998407026141170606e-01,-1.060435462250317647e-03,-9.793457201720553229e+00
1.005522161417929494e+00,2.020556451529854046e-03,-9.794010136114637888e+00
9.975449179847831749e-01,-1.525493001904125673e-03,-9.791516768300931872e+00
1.006869258870020767e+00,2.710903950594504338e-03,-9.783512338321397550e+00
9.976325117588493718e-01,4.411870507994113924e-04,-9.787681914186450172e+00
1.003173093788891856e+00,-1.621602868234429647e-03,-9.820986741240659512e+00
9.947124622045164788e-01,-5.534790012300322588e-03,-9.795134390814043357e+00
1.002914360915216907e+00,-5.164694103072049215e-03,-9.807354308398922527e+00
9.924491630568513800e-01,-3.330718215487552588e-03,-9.774800866221568185e+00
9.990029662290650370e-01,4.932182636602244243e-04,-9.793490815369935376e+00
1.003571536278272669e+00,-3.543918193242670631e-03,-9.786077402735866571e+00
1.000351390826127451e+00,4.753861129895991383e-03,-9.792154479647411591e+00
1.002734140670813900e+00,7.146802853160048527e-03,-9.792359091475502098e+00
9.969161203334380161e-01,-4.250891082226226393e-03,-9.794718244572887755e+00
9.986201338121396542e-01,-1.777634214300810979e-03,-9.806204624303658690e+00
9.998031124000729131e-01,-5.288684564924275855e-03,-9.801659484172740022e+00
9.956568954833712182e-01,-1.306595092890809433e-03,-9.796860450487528738e+00
1.001001183029208708e+00,3.205951705733978488e-03,-9.802177784350099898e+00
1.004110913215811030e+00,-3.992840246411132055e-03,-9.786586762040411003e+00
1.000032715773276237e+00,2.599802065690160358e-03,-9.809350403418783060e+00
1.001345845577776172e+00,4.500934129471372697e-03,-9.784400451836335222e+00
1.003153931234982199e+00,-1.073820298709848853e-02,-9.800544973854028896e+00
9.947127531526172017e-01,-2.874353211816027456e-03,-9.790668986796196904e+00
9.997533614306095551e-01,4.587592263227931351e-03,-9.802643281968149935e+00
9.981466193834617195e-01,2.781360627099406339e-03,-9.790736655626968599e+00
9.949128575325199009e-01,-3.588226446930659497e-03,-9.777269505477418576e+00
1.001675794262834929e+00,4.236467216100148030e-03,-9.791479682756847325e+00
9.981939988946652020e-01,-2.740972904256192867e-03,-9.808097864379687891e+00
9.938092550835256889e-01,-6.469953684446028142e-03,-9.787385422950439562e+00
1.002259332696893823e+00,-2.574510841215754079e-03,-9.809666706337562658e+00
1.002725152040684797e+00,2.702010386896927172e-03,-9.812260483696981339e+00
1.000381998463098165e+00,-2.153818750829356640e-03,-9.793132273066024851e+00
1.002260648577842694e+00,1.405423032818554126e-03,-9.787694230605444190e+00
1.007481531225602911e+00,-1.005989118658831040e-02,-9.799993232987421976e+00
1.001981809377573640e+00,4.938839850706711661e-04,-9.790619684392684263e+00
9.945129560462446783e-01,1.050765633823634582e-03,-9.814361915954313176e+00
1.000360512626254028e+00,1.303001244355162652e-02,-9.795091557141814675e+00
1.009460967040819446e+00,1.004661424526981286e-03,-9.792768660638570211e+00
9.946750018150409822e-01,-2.118638294067591403e-03,-9.813243588374870541e+00
9.959005007428440859e-01,1.174600642902009606e-04,-9.797978048377281368e+00
9.954614981981488864e-01,6.990123947115421460e-04,-9.798335773211661603e+00
9.950060991754927642e-01,-5.549409267042985537e-04,-9.795303859345935393e+00
1.003726989614483367e+00,-4.818780731307006210e-03,-9.798127266564208071e+00
9.982952945194516481e-01,-3.047721078201712230e-03,-9.803170212150664753e+00
9.928071469039473351e-01,5.456966452541542160e-03,-9.806423394009739170e+00
9.979302716287163921e-01,3.624141518999786284e-03,-9.793783182267226550e+00
9.980872806644919271e-01,3.523804949248884096e-03,-9.799864073861767721e+00
9.999108952592252741e-01,2.440934067109254858e-03,-9.783549933020202261e+00
9.994575967544986339e-01,-3.504903677501478390e-04,-9.786358529942258855e+00
1.000983523667169584e+00,5.318222125477944928e-03,-9.798171588848010316e+00
1.005859894026914558e+00,-4.632342503050666457e-03,-9.790951863475584105e+00
1.000155372105965279e+00,3.750706252593783482e-03,-9.808239350107193388e+00
9.922840008195246142e-01,-3.516818653582077896e-03,-9.794115955090710202e+00
9.978145493799146504e-01,-8.530095248052458473e-03,-9.795685266648806788e+00
1.006604627469731339e+00,-2.106722302684599715e-03,-9.801172621243951610e+00
1.008693283622835946e+00,8.327620744024504754e-04,-9.792567804451291380e+00
1.006691909337229962e+00,-4.912768494337449963e-03,-9.796937567178826356e+00
1.001552950947025344e+00,-6.208372063504119694e-03,-9.791658945420428140e+00
9.951358566842662956e-01,6.229716324562083532e-03,-9.777878932987738025e+00
9.965034149530123120e-01,2.378376012529620758e-03,-9.800963349977639183e+00
1.003045234434134514e+00,-1.193002330074188246e-02,-9.797364111308079160e+00
9.953561472960529288e-01,-9.703612779450528775e-03,-9.804083030616736139e+00
1.006548818879934082e+00,-7.605713654530438369e-04,-9.804742567435866363e+00
1.001157050813763938e+00,-6.949281568628484871e-04,-9.799375863319429669e+00
1.000019788508261787e+00,-4.605004243952580574e-03,-9.791928539680139210e+00
9.991422245247366662e-01,7.660055518855660509e-03,-9.798177681425052299e+00
1.000961754882912391e+00,-1.819521827600654182e-03,-9.807766062073916657e+00
1.004870263694416010e+00,-1.124888637607602670e-03,-9.798770498152927999e+00
9.995716839926290787e-01,2.322879126380806777e-03,-9.797786801917492738e+00
1.002175480705198574e+00,6.084163785693696806e-03,-9.797216890356697405e+00
9.991233174688003427e-01,7.641389033931789837e-03,-9.803131474180309723e+00
1.000436432930260411e+00,2.405220624763949790e-03,-9.803813540560632589e+00
9.915425130331503301e-01,-6.055919138927215103e-03,-9.784206277297059273e+00
9.974706890275539806e-01,5.348940348939680914e-03,-9.781499737237444592e+00
1.000802966712523778e+00,-7.148005407527158531e-04,-9.791477457573574128e+00
1.001028860548669464e+00,-2.286209821819309637e-03,-9.805561574540275771e+00
9.941045183049864731e-01,6.529250286734372688e-03,-9.786973090457518509e+00
9.980102347177610689e-01,1.471234541078904421e-03,-9.799691247446105535e+00
1.009402571801114590e+00,-3.285936334038458829e-04,-9.796543151908450042e+00
1.006917884816320718e+00,1.397651734636716839e-02,-9.801856147227985261e+00
9.964049290291308036e-01,2.777215580768581209e-03,-9.814101420301078349e+00
1.003229493834152830e+00,-1.380902284659415329e-04,-9.787852725206173332e+00
9.884839483088300183e-01,-2.589085046923303868e-03,-9.792566898701554834e+00
9.945068902864476756e-01,-1.427028749187185183e-02,-9.798446863732067413e+00
1.008508444893324363e+00,3.883078709037236353e-03,-9.788362443898650511e+00
1.010460022573883343e+00,-6.109936817482693357e-03,-9.806595544325006131e+00
9.940841707146566009e-01,-7.939069990263751195e-03,-9.808902069224799902e+00
1.002188859487574302e+00,-3.895699599872804071e-03,-9.791075490723590846e+00
1.008409947377261418e+00,1.763480551304212997e-03,-9.783119448417281205e+00
9.925470815153474291e-01,-6.664820481377483133e-03,-9.801989099218983981e+00
9.942626743426349334e-01,-2.885511737993831302e-03,-9.784773830787228732e+00
1.005640400563338810e+00,5.272229045568298939e-03,-9.808482740889880702e+00
9.955236630960293542e-01,1.041496127679319636e-03,-9.781624165230988766e+00
1.001320725921695409e+00,-8.495982770749742688e-03,-9.795738208890343302e+00
1.000349349547534850e+00,3.249331392263488019e-03,-9.802361307199408458e+00
1.010899661942604055e+00,8.391164465359042535e-03,-9.802611776808042521e+00
9.978008246472238607e-01,3.935010546255325765e-03,-9.802073165129087329e+00
9.961826190287489391e-01,-4.576851984037517106e-03,-9.799956926826304482e+00
9.847264135143093400e-01,3.803286619329262260e-03,-9.789050283710571065e+00
1.001998115848353521e+00,-2.874282842880935326e-03,-9.797075654685700741e+00
9.964683029948114834e-01,-4.360611600590608844e-03,-9.768302670073380156e+00
9.998634808111832584e-01,1.756279172072003261e-03,-9.796142042554540907e+00
9.920243499671613785e-01,-2.336111447050316561e-03,-9.793077177551746004e+00
9.986348799125018827e-01,3.996242554308801660e-03,-9.818430296577336236e+00
1.000700384732549297e+00,2.315404988634607846e-03,-9.803374017817661823e+00
9.954399935976898650e-01,4.750463908245917619e-03,-9.799949745073648799e+00
9.946528393663160994e-01,-1.643446812845978690e-03,-9.788315072007160111e+00
9.914803871515116551e-01,2.812650922171612382e-03,-9.779319905091753640e+00
9.926036523902308506e-01,3.625319853787330117e-04,-9.800591152617643687e+00
1.005035971571626163e+00,8.067117889756142413e-03,-9.796273209081894251e+00
1.000069467579823179e+00,6.380095875108842719e-04,-9.799824687054041306e+00
9.976272543439024254e-01,8.233677890048943845e-04,-9.781849871375563055e+00
9.979286779124887374e-01,-1.200166010610741738e-04,-9.780382330906000732e+00
1.000984519726058064e+00,4.958395016543646651e-03,-9.780057865740213074e+00
9.940236391909792468e-01,-3.612527583699287614e-03,-9.783379844689127580e+00
1.003143248012145383e+00,4.704951470684295978e-03,-9.792493970203134168e+00
9.961382180600936165e-01,-5.125558485724638139e-03,-9.785674617078505833e+00
1.003145392273076864e+00,2.802349890640580370e-03,-9.793341112277666127e+00
9.997215418354724603e-01,3.423393827719715520e-04,-9.805174908404820755e+00
9.962806946274828102e-01,1.558868904958902665e-03,-9.795394357290188481e+00
9.977480047215590009e-01,3.566169359857767609e-04,-9.798767087680928967e+00
9.925892681614092439e-01,2.598422399341574103e-03,-9.801567545006205862e+00
9.982195653056266105e-01,5.581365405792584888e-03,-9.781282882429904291e+00
9.977367363593185878e-01,-8.120898380320091267e-04,-9.804545782133436305e+00
1.007091290990711929e+00,-1.146185700810848675e-03,-9.801860083178931760e+00
9.933931435773558638e-01,1.915265255832072303e-03,-9.784730989309045057e+00
9.995505372449854375e-01,1.254656354750100650e-03,-9.798865785020943520e+00
9.908024132890782543e-01,-1.087636227100260804e-03,-9.803978251529352761e+00
9.981476760772044488e-01,-4.719505072997004849e-03,-9.805958513591551906e+00
9.943034355899618149e-01,3.289556552020401949e-03,-9.776552283655213671e+00
1.012978112794395091e+00,-8.150669813362572749e-03,-9.799853561427948279e+00
9.990538344096265844e-01,3.725593261145397107e-03,-9.798566496427790540e+00
1.000597604193628865e+00,3.437550751219702484e-03,-9.797716366757461159e+00
1.000998959672432465e+00,1.289251297070931378e-03,-9.792537934463251048e+00
1.001944633257226602e+00,-5.793971521354998426e-03,-9.796875804359904905e+00
9.956907974123596627e-01,5.437501507481055409e-03,-9.816360447254490751e+00
1.009403120795540953e+00,-2.642297450420233711e-03,-9.794370030447115738e+00
1.001600184309236141e+00,1.288144033963094931e-02,-9.803407034555929656e+00
1.000042027207874940e+00,2.699619620961819181e-03,-9.793873510198469745e+00
1.008022827442643043e+00,-1.107715419542668923e-02,-9.785332763009401802e+00
1.002069983988870039e+00,2.768932016654388362e-03,-9.777037348389072235e+00
9.952107812154437072e-01,2.963511083382882466e-03,-9.805788290008912611e+00
9.914253980695216795e-01,5.735508256021190632e-03,-9.790270056919851527e+00
1.000300019875949076e+00,1.374340507250187320e-03,-9.790975098087217887e+00
1.001777157555827191e+00,-2.225256334054291824e-04,-9.812448569987141767e+00
9.939624150712931261e-01,-4.033686037521648851e-03,-9.798994100120596684e+00
1.006571110378122968e+00,3.957764819788657865e-03,-9.794810879644252566e+00
1.006371144461175371e+00,2.196669745734976427e-03,-9.801430925356632073e+00
9.907442121900805754e-01,-1.167053951062044410e-02,-9.792497173078368533e+00
1.003179996934603579e+00,3.541348158812934743e-03,-9.801688171318138743e+00
9.952696953475588248e-01,3.156096693649442734e-03,-9.802134818543891015e+00
9.981826960425379536e-01,-7.627093278433667986e-04,-9.791171685739724850e+00
1.003259592063899364e+00,7.124052330145145238e-03,-9.801884249853298314e+00
9.996644661400004850e-01,2.026779192261662574e-03,-9.793658162034279968e+00
9.955046691154623151e-01,6.467861609594699468e-03,-9.804646610261761097e+00
1.006294074176654396e+00,-6.930182182887494220e-03,-9.800791015463035549e+00
1.001911331298525942e+00,-2.640894740485671879e-03,-9.798589244632589512e+00
9.948093287617454372e-01,6.303226591886389174e-03,-9.792989649572080069e+00
9.973236567422214538e-01,7.813473919822420954e-03,-9.802240396465249361e+00
1.007289514240729433e+00,1.050470539749196255e-03,-9.795143563431699008e+00
9.961424870562974876e-01,9.719069942424200846e-04,-9.796417515079198779e+00
9.954845254616914163e-01,-5.171696411825968658e-04,-9.801818256713369593e+00
1.008851275124216684e+00,3.204691550177301250e-03,-9.802232690371269541e+00
9.973139938454105291e-01,-3.073829642113588573e-03,-9.800482101870898077e+00
9.930286225485956964e-01,-7.126463621218682813e-03,-9.800235406648193148e+00
1.001753052418897116e+00,-3.379786336795340389e-03,-9.788941427803639073e+00
1.001236892278403179e+00,1.768915902140464789e-03,-9.791063929564051804e+00
9.996234547138066473e-01,-9.165168689340806238e-03,-9.802810646688300267e+00
9.986265088141156321e-01,3.176901411102129539e-03,-9.794876304102551501e+00
1.003663937950154406e+00,-4.448658733574639701e-03,-9.783756093484223371e+00
9.961071529459872842e-01,5.524131201681816046e-03,-9.797003638819655080e+00
9.970376521011869997e-01,-2.837857442937295077e-04,-9.787519589030772238e+00
1.004187894839213779e+00,-8.504487499717550136e-03,-9.785518848828967720e+00
9.998768687306871517e-01,1.743458972062428627e-03,-9.786766239871417028e+00
1.001851444831791671e+00,9.919940949696171885e-04,-9.793958761688365655e+00
1.005356707749693879e+00,-4.425221581107694098e-03,-9.781265564123104994e+00
9.974819995639570003e-01,9.413971994967629264e-04,-9.790121297688230584e+00
9.955056386995214668e-01,-9.676936000612418667e-03,-9.789783629879863724e+00
9.925036427592686117e-01,-4.961392890443529040e-03,-9.801533489691980350e+00
9.985667144221718194e-01,1.374076752672653834e-02,-9.802795862189929821e+00
9.979367422794145348e-01,3.429661765819843819e-03,-9.810661629593147026e+00
9.995039994203079869e-01,2.013209081265014862e-03,-9.790480518033547241e+00
1.001545306715047046e+00,1.264769950307211531e-02,-9.798845351187775776e+00
1.003723531493508681e+00,2.351492098668558298e-03,-9.796721155959001948e+00
1.006006681766906441e+00,1.912523193771672276e-03,-9.774211232891701684e+00
9.979851277160898260e-01,4.848348069177658114e-03,-9.785398973046619986e+00
9.960247556310186656e-01,2.038267767964283602e-03,-9.791605675362907490e+00
9.892363015760841094e-01,-4.314319198174871098e-03,-9.791062959588016312e+00
9.986116912884928087e-01,-3.366235614777642179e-04,-9.805323653325471511e+00
1.001707111676998441e+00,4.655524519985563582e-03,-9.800889546588269496e+00
9.988335833042125689e-01,2.547365455800841300e-03,-9.797812597984700389e+00
9.891214820844138611e-01,2.595534734776429407e-03,-9.792934557736989731e+00
1.002549571789118632e+00,-6.360095098341890692e-03,-9.815738038969309187e+00
9.973106294695114338e-01,2.992618009409939248e-03,-9.797444403138147351e+00
9.961178434271396043e-01,-1.324860234423962287e-02,-9.797734392197522624e+00
1.006276960277636245e+00,2.649839344893899218e-03,-9.795582442419410896e+00
1.009088282777188095e+00,-2.221070566830899828e-03,-9.802598872224017157e+00
1.004788195216723912e+00,2.429504941762136456e-03,-9.781426829836410874e+00
1.001467624075483176e+00,-1.837219479932795507e-03,-9.797317976233360426e+00
9.977146731747249531e-01,-2.103267885862857706e-03,-9.791457463397854610e+00
9.966886717509850779e-01,-2.001660254887037849e-03,-9.799130779876971786e+00
1.001832494265899154e+00,1.984173315329125324e-03,-9.811630301201402560e+00
9.886875690565392061e-01,-5.469014784560207343e-05,-9.791252997804612335e+00
9.920692493666432021e-01,5.674464069262657832e-03,-9.790411352278736601e+00
9.984598027816978805e-01,3.093645083364200427e-03,-9.798960785360209869e+00
9.942797348848003702e-01,1.941931196938710387e-03,-9.809706445762305549e+00
1.003544467120302208e+00,-1.185113148600773622e-03,-9.803262588129600275e+00
1.003619551150088274e+00,-7.053684666135824621e-03,-9.794323672577313289e+00
1.000271328976538365e+00,-6.445740285591815104e-03,-9.800229208958459282e+00
9.950347664702530182e-01,5.915037789049522061e-04,-9.795456622141218261e+00
1.005387939196671798e+00,-4.165040671502451795e-03,-9.804739197453899990e+00
1.009510978778559442e+00,-9.674891109030137482e-04,-9.806223682111919970e+00
1.005272459417480446e+00,-1.029660632163736933e-02,-9.788926324605155216e+00
9.961459414982526406e-01,3.266839297686342379e-04,-9.799653918576403555e+00
1.001444068493413608e+00,-4.246115847181684139e-03,-9.793135496496558901e+00
1.009531199987739436e+00,-5.658139117697169899e-04,-9.780618915390236978e+00
1.002288827020759054e+00,-5.174812442389335222e-04,-9.790570927887918273e+00
1.001769586449888783e+00,-9.479268626456432631e-04,-9.797275001591877697e+00
9.945502261371794717e-01,-6.359575609119816342e-03,-9.791357784354284277e+00
1.003885765703708577e+00,-4.168828186066337975e-03,-9.786190763811209337e+00
9.939674981695256761e-01,8.938361328497209171e-03,-9.797972342443962646e+00
9.950142508100954242e-01,2.753124916469613763e-03,-9.800428626800608001e+00
1.005055914586195920e+00,-1.299730673294200757e-02,-9.799440637318674874e+00
9.948425430975977868e-01,-5.880071168499065998e-03,-9.798760127428408850e+00
1.005166967062920858e+00,-4.129747549031835205e-03,-9.797684006644081123e+00
9.919015433247232449e-01,4.146648800368022032e-03,-9.798765925191043280e+00
1.001051555746843569e+00,-4.071523713217734507e-03,-9.793340443674631857e+00
9.958880678697720201e-01,3.996098852189970511e-03,-9.797138940879728253e+00
9.998007312969863225e-01,-6.965495984627404283e-03,-9.786629076706132579e+00
9.945425815505367639e-01,-4.635456050475081184e-03,-9.787884401609280971e+00
1.007612240404644144e+00,-6.697035093623837469e-03,-9.802491419898712977e+00
9.930892692106134678e-01,-1.564099345544735405e-03,-9.793214937644750151e+00
9.936474988205717951e-01,-1.283561740788335265e-02,-9.800128322312234630e+00
9.926599758989333999e-01,1.853331921505817778e-03,-9.787516177630159575e+00
1.001124007295079776e+00,6.729788202507532013e-03,-9.785233255520868312e+00
1.005117616741636688e+00,1.137348334646817467e-03,-9.781679656663804678e+00
