gyro_x (deg/s),gyro_y (deg/s),gyro_z (deg/s)
-2.159354942374791531e-02,-1.331149317201730554e-02,1.697900153935499781e-03
-3.299312865435287401e-02,-4.031434828910877149e-02,2.784486023635090925e-03
-2.692766483830771190e-02,-5.918518798761222832e-02,-1.884139740129076035e-02
-1.494741563233309249e-02,-4.822770433684411828e-02,-4.114406313570231899e-02
-5.641722200190821962e-02,-5.512182725616173590e-02,2.457326252626537005e-02
-6.549831175323098109e-02,-1.076468950817631269e-02,-5.785220617109293473e-02
-3.324207174338945914e-02,-1.094874876845114559e-01,7.499067109566623021e-03
-7.807274077120890388e-02,-7.342904997879507248e-03,-5.057483770042128790e-02
2.737084799458567447e-02,7.833578193068657658e-02,-4.658389697725399264e-02
-1.797709645671176359e-02,4.533202253547503890e-02,-2.060140148100660443e-02
1.080723886618315394e-01,2.606050034334305918e-02,4.764513227801138798e-03
-8.112550094197763795e-03,7.799414455802974877e-02,2.830050349146179603e-02
-4.923443123174222474e-02,1.464711856759894765e-02,2.503866655963260870e-02
-4.514002199177489204e-03,3.408112152993574007e-02,-2.714493308704900992e-02
-1.307408997349450777e-02,5.683292182765268402e-02,-1.771941635784653538e-02
-2.525800674005240429e-03,1.672299152159149524e-02,3.938781517277591820e-02
-1.141132806102338739e-03,1.617279536020950481e-02,-1.520212663529288757e-02
4.554371969605910953e-02,-3.955957231961373249e-02,-3.891461391458968244e-02
1.525623841657744104e-02,-6.322461880282934099e-02,3.666352275515372128e-02
1.214231560810581367e-01,1.768008863624901793e-03,7.417424831958025627e-03
-1.125921364632924693e-01,-5.574271368541580673e-02,6.207559748875908501e-02
1.155397369604086247e-02,-1.351020701682991224e-02,8.086686801914530487e-02
4.077783364411041028e-02,-6.593104210032274537e-02,-1.147928207931197056e-02
2.104724300988353516e-02,-7.573387973962485142e-02,8.625956247595331335e-04
1.435663010852959720e-02,6.840150341380180988e-04,5.514544862310788442e-03
-5.520035855398254358e-03,-9.997148977067044431e-03,-1.952862616778075835e-02
3.467892956010339145e-02,9.535431598393411673e-03,-2.895732928676612861e-02
-4.998683974379492662e-02,2.281116096238317362e-02,8.432839910596835742e-02
5.677413534066731715e-02,-8.550360986880681247e-03,6.094019569730862312e-02
-2.872594381244015713e-02,-1.775533672790007358e-02,-3.057075483292705231e-02
5.755749630034195929e-03,-8.252049417252528551e-03,4.760549627317074706e-02
1.802311257109133133e-02,-5.182113259212115658e-02,-6.160086557657040024e-02
6.806296467791781747e-03,-3.891845190882248229e-02,7.254737250143059729e-03
2.667934399092347295e-02,2.531727501815672892e-03,3.085931935788680316e-02
5.405209583877234464e-02,5.842497800097313371e-03,-4.470476423702273577e-02
-3.104094694514719123e-03,4.927193385270926818e-02,3.620958167417679535e-02
7.600291692097742302e-02,-5.749305506863781889e-02,4.460492670418680916e-02
-9.624997058693086568e-03,1.013933241381770045e-01,5.319182120216414678e-02
-6.533071888154562412e-02,-9.484001163217188612e-03,-3.604627394948397429e-02
-6.696904829554797822e-02,1.146388269125390470e-02,5.502061613738565976e-03
-2.078720831191622001e-02,-9.222244651027998105e-03,1.377775674744861900e-02
-2.633380171009343240e-02,1.200627355208658785e-02,5.033354914484395454e-02
-8.398852999991335277e-02,2.726728694831302008e-02,-6.174182964578830285e-03
2.513828117850993790e-03,1.084593175070195786e-01,8.776552136364976567e-03
6.806450766141955433e-02,-2.451149074574148976e-02,3.985578986945557955e-02
-5.882096833141591680e-02,-6.755094593959981575e-02,-1.279689246346931049e-02
1.540871605335348248e-02,-8.580691460537193116e-03,1.988541352573336418e-02
1.760387826311493598e-02,3.779793849830875851e-02,5.794036939695870747e-02
-6.273170127764580994e-02,-4.375552191480581825e-03,-2.850519489723483263e-02
1.793870474354009037e-02,2.623177602357689223e-02,5.309783463438854344e-03
4.148053790821625703e-02,9.414078177124503635e-03,-7.964525698649255496e-04
5.624037653201018061e-02,-2.904788156703237006e-02,6.749582108320804907e-02
-1.743533111666384274e-03,4.009632100074390915e-02,8.578822250371104241e-02
-4.864380125975933250e-02,-4.817628355748743846e-02,-3.363071090681687275e-02
3.555059019916630841e-02,9.915594494649342117e-03,3.561381477315658795e-02
5.619300231526695028e-02,2.229347827829796305e-02,1.084248770209849354e-02
-1.030076737773296704e-02,-1.257649759751914599e-02,6.498558938042559192e-03
-7.103159802222216990e-02,2.648814156874961662e-02,-2.827707311807932736e-02
-1.445031539217060852e-02,2.975076935356856314e-02,3.087846871325249445e-02
6.917176635855362687e-02,-8.100311230871141965e-02,-3.644018225764291546e-02
6.278690295582399494e-02,2.957783674629231585e-02,-5.344858994240896805e-02
-3.990669942128247799e-02,-4.573730815648455184e-02,-3.663818892847123254e-02
-5.440068524836062791e-02,4.815460128656771227e-02,1.152798662844571609e-02
1.676937788743777108e-02,3.120832380660179192e-02,4.666116138166341576e-02
-2.064777312436424234e-02,8.803951536972587366e-02,-9.665313542386597123e-02
3.339060791237728060e-02,-4.199242461804871852e-03,-5.518966465254531231e-03
3.886320483919705054e-02,-1.299182800789236078e-02,3.129196355783028100e-02
-6.089230901519601322e-03,4.438655371838617913e-02,2.670525436142180513e-03
-5.025362467836490266e-03,-3.255200099293097810e-02,-6.948861877770514013e-03
1.523327990526469021e-02,1.359011959958431916e-02,5.955629249010501065e-03
8.958178300991707921e-02,4.073331249729843923e-02,-2.925007767469595121e-02
5.398722798404290146e-02,-1.061262203678735826e-02,-1.549245587812185694e-02
2.637381305038172252e-02,6.458442961572797084e-04,-3.884316977690787515e-02
-6.011199609255910709e-02,9.989816406633643744e-03,-5.824991896457469565e-02
-4.640331501524261326e-02,-5.430681996550034557e-02,-1.124052025987782623e-03
1.063776682307870924e-02,1.058793873462344215e-01,-6.320815324258076406e-02
-1.827519883617707841e-02,4.300478772698711921e-04,2.874685512241970803e-02
5.588934330943642545e-03,-2.761888298275064560e-02,2.521483431932852043e-02
-5.063534578763891070e-02,3.440852897105049074e-02,-4.724232374600695165e-03
-1.526061503830507954e-02,-1.256385610177016866e-02,-5.164197350863186306e-03
-2.983052163440139820e-02,6.927788983901868010e-04,-7.443240690250446656e-02
-2.381202155421428823e-02,1.400581931416098116e-02,-6.709757173176818246e-02
5.130055939651520514e-02,-1.592530746023980426e-02,-3.164898638585585816e-02
4.845026278225254140e-02,3.596564035279190691e-02,1.248357801843518258e-02
3.115377486171800464e-02,-3.840618621443440267e-02,4.232892647193188529e-02
3.477469389571023056e-02,-4.493449056642566386e-02,-1.975949014124538626e-03
9.972279827691486655e-04,5.374008360959892788e-02,-5.937358731156536576e-03
7.792362608522519773e-02,-1.787726644784293781e-03,-8.279279005261375168e-02
-3.457935074018253507e-02,-8.233929160278621873e-02,5.420979297211621362e-02
-4.030406648506828365e-02,1.282479551800957442e-02,5.219730260687219757e-03
-2.849629948072865404e-02,-1.254039711857589563e-02,-2.482186902091133851e-02
-6.301841237881444791e-02,-8.898965811123632497e-02,-1.904252875052038843e-02
1.884653229223611989e-02,-5.113534994231225435e-03,7.475897331321365753e-03
2.823868505681293578e-02,-1.377193583785805142e-01,-7.213491076901623611e-02
-1.981199801647089836e-02,-7.077338825238735712e-03,2.122049091067761475e-02
-8.372338984682160812e-02,8.343835337823581055e-02,2.597861219217277237e-02
-5.822019107156321122e-02,1.369290311278525962e-02,-2.687421528777095194e-03
1.988964086239611989e-02,3.856071703461610989e-02,-1.535452295491709397e-02
-2.418626652317713843e-02,6.127050949141809623e-03,2.653531360081303261e-02
3.437617994667905783e-03,-7.533541906972761326e-02,-5.111575182810191437e-02
-1.190266092583967296e-02,3.794558437130413076e-02,-3.335575353278368016e-02
-6.200642547488622452e-02,-1.103549096652160777e-02,-9.575511932465546883e-02
-3.582961936358390522e-03,4.557211519530171562e-02,-1.919190074462709047e-02
-4.594289706555775704e-02,-3.698268151889866351e-02,5.054583659704617316e-02
-1.990764172489078478e-03,-4.110860978616832223e-02,-1.105041781422489225e-02
6.299026203346744235e-02,-1.292366147996516779e-02,5.625293102971642284e-02
-9.034867481362805763e-02,3.974327595561641391e-03,3.263761977825441196e-02
2.166439527928918155e-02,6.825315075511745322e-02,7.605346709235519254e-02
2.996932947578428638e-02,4.520759547557124704e-03,-2.174655981810247329e-02
-4.060953922340211630e-02,-1.930757072839516669e-02,-3.532392699912653006e-02
-5.901819128897337063e-02,-2.350281797845236650e-02,5.002781689135810811e-02
-2.116474467530295167e-02,1.699537443053909802e-02,6.502499012753204521e-02
7.142540004056657788e-02,-7.378228281048158921e-02,-2.273092267629777535e-02
7.029212302278295410e-02,-6.304682384258138150e-02,-2.900099789003173292e-02
-2.129802744713029175e-02,-5.105593767793830534e-02,8.116887867244794441e-02
2.858937867272027741e-02,2.543647146370159318e-02,9.489704000683992641e-03
-5.935574500590504697e-03,7.362931002813684345e-02,4.329456030777097120e-02
-4.332515081453452294e-02,-2.915743282525071201e-02,-4.054146678436916507e-02
-3.579836679665381743e-02,4.800748048984154748e-02,-2.950688115051126534e-02
-1.173661417430649397e-03,1.008551382006251827e-03,4.091184412903730444e-02
3.350546812454401752e-02,-7.717795670537477490e-03,7.670028844777398991e-02
8.007079494963034380e-03,2.505231616156618560e-02,-3.995761571985886884e-02
-3.248556396483936320e-02,-1.892549469872178286e-02,-2.247095238834739481e-02
3.474092133668194027e-02,-2.385073565941173146e-02,-6.507275190570964429e-02
4.074794315092231806e-02,-6.661898583964636928e-04,-1.578031162434048729e-02
-7.014791051507085484e-02,-8.676927953238679214e-02,1.085395940166616717e-02
7.632974186403955474e-02,-2.472828873398283389e-02,8.507004085226611834e-02
-5.829743952462525247e-02,2.868832793870533526e-02,-9.188564035531780402e-03
2.607314958806064217e-02,-2.630358018233330125e-02,-6.139941863938144784e-02
-3.872849073412589632e-02,7.514880084172691210e-02,-4.026024443531359825e-02
-3.403550691150156182e-02,9.484743440006221035e-03,1.556378152004191280e-02
2.579790585122030203e-02,-5.418378051685009307e-03,-2.331682695573027500e-02
1.807972951597001943e-02,1.408592864579158270e-02,8.092942738378560222e-03
1.905377951856812233e-02,4.200683352675752685e-02,-1.574753252430864323e-03
1.718354051975398700e-02,5.257740629541174729e-03,-1.116588960432357037e-02
-1.327902994877207775e-02,4.462587402558226835e-02,1.228644534282111699e-03
2.513787533455111994e-02,-1.292750708586965468e-02,-4.579422093343373662e-02
9.349637976093710251e-03,4.468926796676510153e-03,7.815841512201074370e-02
-5.041299789463923875e-03,3.033069000303768165e-02,-5.169040051614091219e-02
-1.311082086505938743e-02,-6.417194649922772220e-02,-7.417891234040453752e-02
-4.186888039781896942e-02,3.462331698014652070e-02,-1.970886777705091117e-02
-4.795664501071279784e-02,-4.598107455098278395e-02,-2.377839224401750648e-02
7.567970217135672195e-02,-1.407518723242131946e-02,2.886852341719714152e-02
-1.149241955462447506e-02,6.697505691451770271e-02,2.208580655753435845e-02
-5.097819166642639233e-02,-7.572861423654548250e-03,-1.707149161102701094e-03
5.529625005267321987e-03,3.438029672450394758e-02,-7.572753756421776727e-02
2.423397571911046697e-02,-2.330648062257197756e-02,-2.281348736401237962e-02
4.358035583720503044e-03,-3.668668236059408928e-03,5.211267164048538625e-02
-4.574226883295536006e-02,9.694617051677453107e-03,4.031216582596927611e-02
2.328925724913358253e-02,-9.409651662095369629e-03,4.273446868702111129e-02
-5.643532438084605807e-02,3.007693425823356262e-02,2.261406205848436480e-03
-3.959779671936682066e-02,4.147532674906909134e-02,8.157807811714042762e-03
3.299588370768676004e-02,-2.081908063569041026e-02,-8.583548240348054525e-02
-1.628372451773494461e-02,-5.682420144290822178e-02,4.510113183209989163e-02
-1.680358006804126211e-02,2.329464589235737820e-02,-6.996284124382384784e-02
1.986273325485534563e-02,-5.432382380563080537e-02,1.822388332633094812e-02
-8.239148443317916015e-02,-1.236272859913751382e-02,6.049811078898154927e-03
3.953648940187054484e-02,2.902740952270528065e-03,4.621610271283527194e-02
6.849597646223865022e-02,-7.617097486584185895e-02,5.354333918468693471e-02
-6.318521880683140857e-02,-6.550979640713742655e-03,-2.175471915312117768e-02
-1.352530998841000760e-02,-1.608355688955040268e-03,1.640372055658299855e-02
-1.993286367284368560e-02,7.123786194306611086e-02,-3.667836636533320510e-02
-8.619031674849269437e-03,-2.525140086345118232e-02,7.274631978622771514e-03
2.361899420208347922e-02,-6.106768370122434009e-02,-2.295069539397341304e-02
-3.766256783957189908e-02,3.867090434585438927e-03,-6.568114364391293425e-02
3.835522129093250909e-02,-4.149474580762288478e-02,-2.112279389929564571e-02
-6.052235335038944931e-03,-2.288336790869547818e-02,2.697498249893637984e-02
-5.634830490678307408e-02,-1.238137875251150988e-02,-3.524904953662525570e-02
-1.027359040416649799e-02,-5.630437842973542171e-04,2.774066596967437320e-02
-4.680167098359800520e-02,-1.131556020341352789e-02,-8.722115078194033616e-03
-1.356761344624317182e-02,-3.074037044676469765e-02,5.186606812606121830e-02
-3.564331855600798987e-02,2.142730755667583351e-02,5.657938349565234254e-02
-2.592133645145552542e-02,3.577194105537168101e-02,-4.155996150083609945e-03
-4.612912930069960893e-02,-3.140008790442458397e-02,1.162054589782323816e-01
2.184992014355963130e-02,2.507841295239349871e-02,5.963870949947619460e-02
-2.230918837801780519e-02,2.926766771857836763e-02,3.119943330686108726e-02
-1.565424191338537011e-02,-4.280805066840540074e-02,-1.219699785688256079e-02
-1.118243310137556623e-01,9.703712860006889762e-02,-2.341171918399942778e-02
-3.873367622247805148e-02,-2.312485360516114766e-02,2.042371705149914965e-02
5.412774366383116958e-03,1.339561458256440657e-02,-2.871986885097852979e-02
1.432519158610755933e-02,2.130985861614522262e-02,5.844204627185414086e-02
1.464452876561915702e-02,4.291924856177796455e-02,-4.487575709043260114e-02
-3.376754279109504125e-02,1.972963126779000639e-02,-7.286181190007812170e-02
-1.526568078783679429e-02,-3.240655305407777464e-02,-3.541219299856168939e-03
-1.756835752567017378e-02,-5.487408636709543985e-02,2.840703253145187776e-02
-1.129250291751615343e-01,2.612775901138942453e-03,9.052787378462026635e-02
4.374983172795963299e-02,-4.967148378512682705e-02,5.745269192149059928e-02
2.292353840903296400e-02,-8.800534070044938040e-02,-7.204577292240499364e-04
2.428331222829678560e-02,-4.347838449286851870e-02,1.409473931249124318e-02
1.473582774057162481e-02,-2.509687669565141208e-03,-2.211363179781761570e-02
6.125810561287874795e-02,-3.560586456287033463e-02,-1.129006244133454184e-01
-2.524778124220486072e-02,-1.419443237056965297e-02,-5.179473167037021430e-02
1.633044890181418671e-02,9.286076036685425583e-02,-1.637112439292546812e-03
-4.021167388611202737e-02,-2.600687460030214754e-02,4.213292871866244210e-02
-8.593955873465861095e-02,3.960179349411369933e-03,-2.489886866296516996e-02
1.275222644879912305e-02,-2.254986678923985577e-02,-2.429232364203943659e-02
5.287796933763467405e-02,-2.118509299565817655e-03,-2.991339652183206289e-03
-3.188603927079049910e-02,1.829985774611916222e-02,-2.079123181166190465e-02
-3.084461906858279590e-02,-2.651588017464182392e-02,-2.557520561066547321e-02
-1.883354024298294210e-02,2.390780365154175982e-02,4.774278597597538670e-02
2.875422411170034092e-03,-5.719369022636502237e-03,1.667729043983545018e-02
1.072347238587064745e-02,5.007575845967900119e-02,8.104297246964781848e-03
3.617158175899462536e-02,-3.034468221142639591e-03,-3.860757220322152267e-02
-3.317992523845681579e-02,6.182045002666552991e-02,-2.868927086180306230e-02
5.585265511122976690e-04,4.364395801074748976e-02,1.446979954501535770e-02
5.843331231584213137e-02,1.721677277766534703e-02,2.314242829868537812e-02
2.983265482855305614e-02,-1.338576829452698758e-03,4.737377190641175323e-02
2.158303401586809944e-02,-5.027218969691387568e-02,1.040965179683785895e-03
-3.710587026786043869e-03,-2.513668733089277369e-03,-6.354748212741458124e-02
4.343490090770067702e-02,-8.349378886529355837e-02,5.932627117062216210e-02
-7.894504224899220879e-02,-5.341150937686878208e-02,-5.983666331739295220e-03
-5.224698732957480662e-02,-1.125682779955827495e-01,-1.947718691885158213e-02
1.782588178336279305e-02,1.125415718003268048e-02,-1.837021204945632480e-02
-7.919716601408773038e-02,1.217903982109188633e-02,-2.910965708625142326e-02
-7.426679766145691253e-02,6.465306006509401182e-02,-2.376692891358592533e-02
-1.762339049766882548e-02,2.655766926634771461e-03,1.804518886667827449e-02
4.548367366441955634e-02,4.219158646154529124e-02,-3.135127131772041248e-02
-3.995501690705045156e-02,7.921219698358736294e-02,-1.068581561393106873e-02
-8.419567099965315216e-02,-1.891228188881076064e-02,9.743717794627765327e-02
8.154346008684512995e-03,-2.623370693330507805e-02,-7.321871530424951813e-02
5.174801064135340495e-02,6.271005081420337121e-03,5.593817152357005024e-02
-2.841367215132528309e-02,-8.535569300652479097e-02,-1.746306226672893550e-02
-3.544519908945063108e-02,1.505437575190745171e-03,8.462826097817369164e-02
-5.781404203981922035e-02,-1.851232302949407105e-02,8.416477791480261872e-02
8.100844963464209902e-02,-7.343354659775612470e-02,-2.328163601218665585e-02
-4.030024620800112811e-02,-1.664927918798145973e-02,6.103948120426945512e-02
2.326567815857721530e-02,-2.704475755711855528e-02,2.704543195644826259e-02
-1.719775979914850428e-02,2.835692411571591378e-03,7.745122407306453440e-03
-5.449710554911055965e-02,-2.108866790281235110e-02,2.675468019824116250e-02
-3.274918294906239286e-02,-3.985676071557298084e-02,-3.318971741466632958e-02
-1.966378323107017059e-02,-1.082599559234710684e-02,3.691232210412973089e-03
-3.818526974703274901e-02,-2.072919080718600704e-02,1.957855664041725438e-02
-1.809614089470040418e-02,1.889441457901250287e-02,-9.164801693543795508e-03
-5.199911018244545574e-02,-2.738486836944713232e-02,8.413793659197395594e-03
2.514861630341758136e-02,-5.239053820873634804e-02,2.454466142934473918e-03
3.979888162845896665e-02,5.492942685455837887e-02,5.094001785413904138e-02
3.435294617889211866e-02,-1.575937738526591095e-02,-5.097787797216598443e-02
1.693099802115898000e-02,5.163171938868916372e-02,-1.772234205253271633e-02
-7.472895825310296031e-03,1.271640128003186099e-02,5.620801465180240604e-03
6.787039420359790298e-02,-4.497713420057369849e-02,-5.582503415754300202e-02
-4.068457499443456360e-02,-1.413437549610550500e-02,1.263858439334792153e-02
6.853592834160314451e-02,3.706770307808639198e-02,5.472296361475973564e-02
-6.605716739943456872e-02,-3.917068292322469641e-02,7.852457231679424443e-02
-1.267404958893370535e-02,3.417680530481653073e-02,-1.198380323219534749e-02
1.701326590660107163e-02,4.527870560774971409e-02,-7.938806076514115517e-02
-7.040841764633837263e-02,7.398639780887529549e-02,8.263325255850158257e-02
-5.158324223506863260e-02,-2.114990196873518802e-02,7.443122664199794056e-03
-5.708367220040237722e-02,9.671673361630614765e-03,9.633108748602344645e-03
-7.854713316049394267e-02,3.306886676582178330e-02,-1.008481051617912162e-02
-6.265438703017915667e-02,4.121955995132723510e-02,-1.227431266518485067e-02
7.921267671539822253e-02,-5.880824181488899377e-02,-1.658041889835336347e-02
-9.016181563490792070e-03,5.208392975777458023e-02,1.185552463165351518e-02
-3.898724970940782575e-02,-4.887241366727130415e-02,-5.051802417387543653e-02
-2.371309591783095014e-02,-7.169738150262547349e-02,3.192786703035004753e-02
5.759201385193609898e-03,7.922348941407088632e-03,2.714056115240516889e-02
-3.068232045019535226e-02,-5.682859662897780939e-02,-6.318601867393294769e-02
-5.671297297650868680e-02,-3.587327930087987754e-02,6.366113956847239963e-02
-1.508709810513081222e-02,3.278644365115998549e-02,6.309944583888632552e-02
-1.211849482216166216e-02,-3.369801462822080707e-02,-5.565474267650208362e-02
5.099986286721047875e-03,3.031880220621240712e-02,9.609779589080781267e-03
-1.378973797891488648e-02,-2.031216399789937191e-02,5.739455786062897663e-02
2.156668397604928622e-02,5.714289539245040982e-03,8.587009390367631931e-03
-4.119617494845757844e-02,8.329580846429960467e-03,3.154148588811030857e-02
9.542188784570202267e-03,2.406301550408312950e-02,1.943455544260642640e-02
4.644680012482011594e-02,5.987369744149877160e-02,-5.902949351685975871e-02
2.815606958986818439e-02,6.426784939168417310e-02,6.080670972278383324e-02
-3.877077319564474489e-02,3.583249408795448343e-02,8.880659159514482301e-03
4.165230570728412768e-02,-5.630975411673350833e-02,-4.741614586107407298e-03
5.721268031095019801e-02,3.326901609641749746e-02,-7.767187461814653582e-02
-1.036139838289183365e-02,2.180054599964133602e-02,-6.962913255191230388e-02
2.506881823957665678e-02,2.275983814034088920e-02,-6.406106450901392912e-02
-5.907666993134237654e-02,-1.434263371831550476e-02,2.048062337816241446e-02
9.757174356225315273e-03,-8.267647804662775143e-03,2.602513160555781913e-02
-2.582641887496276659e-03,3.445543728215961360e-02,-7.243679485061671475e-02
1.407112035311807938e-02,3.043743433960732162e-03,-1.836983551795080480e-02
-6.424420061235475155e-02,-1.375647446327482766e-02,-2.623804706691425931e-02
-6.249629292320170448e-02,-8.932221766276314534e-02,2.719052486035343497e-02
2.014284787658869244e-02,-2.898889857648941863e-03,6.132325397927486377e-02
4.432623488109677101e-02,2.601054655247610550e-02,5.252277849409089233e-02
4.197564658043492769e-02,2.650413133163407806e-02,-1.523262962013030748e-02
3.958611609253981367e-02,-1.147453760605263769e-03,3.086599720271864487e-03
1.500280045744264469e-02,5.652102227562456199e-02,9.681431602614556930e-02
3.792518766605973424e-02,-7.860482622322207888e-03,-4.961684857688556521e-02
-7.604147831285518189e-02,5.965940965458210732e-02,-2.496124554916972355e-02
6.023169506693325931e-02,1.074949488282265012e-02,5.082934232331887819e-02
-1.880583906301355399e-02,-4.084725481857063027e-04,3.499760982854850655e-02
1.127532573205503458e-01,-4.043309798555247414e-02,-3.041813630655639238e-03
-2.295351952892001404e-02,4.580411368782214693e-02,-1.119994465405581285e-02
-4.438972258221992456e-02,-6.314951343270280848e-02,4.832720023516222374e-02
1.173553070576202964e-02,-1.254243663595896174e-01,3.318604466465488456e-02
-7.659727852600894255e-03,-9.035120249193386022e-02,3.323017911782114725e-02
-2.782925841904640776e-02,-8.958060474373980009e-02,4.899823549164442071e-02
-5.143233179070540867e-02,-9.286847481750836256e-03,7.162609705832502505e-02
2.130488726891043710e-02,-1.413880879981196069e-02,2.779031502417083493e-02
1.395047667627163576e-02,2.377435673715452575e-03,5.171885222138547511e-02
-2.886271406291709279e-02,-5.307099861715592996e-03,7.413551544390036517e-03
-6.234845387673438460e-02,-6.205353862302011303e-02,3.983932656293103641e-02
3.832675445994266489e-02,1.124319957525478884e-02,1.091518301288169415e-02
6.952577199457642132e-02,-4.923178661324956185e-02,1.037020368436436003e-02
-2.627501454866219138e-02,-4.988758366647780967e-03,-2.780870805238432400e-02
-2.813643955817316661e-02,3.473138176944849664e-02,3.900617093839811589e-02
-1.098254499151457737e-02,-2.292495223389461739e-02,-5.059862736276406897e-02
-8.772125357642919508e-02,-1.261994008966912419e-02,-3.419156275042062321e-02
-2.832826977668692625e-02,6.575782640683125457e-02,-3.966719025894065859e-02
4.918403800320295116e-02,-4.259994816724485545e-02,-1.198190173429217013e-02
5.490507508157625033e-02,-5.023845333927470097e-02,-3.128586726034808529e-02
1.068492096605578277e-02,5.152272909956671920e-02,6.338682591605150629e-02
-2.808942291476564448e-02,6.624895116907467130e-02,4.355982510298910676e-02
1.192120683832857859e-02,-2.902840177187862580e-02,1.180306146204586869e-02
-4.133044987302863377e-02,1.997385250651996166e-02,5.422251428222028477e-03
3.187267813535189093e-02,-2.146179205834600895e-02,2.555584214717379274e-02
5.573928809706669985e-02,3.727543480456994331e-03,4.191064215888361949e-02
-7.939973887412773990e-02,4.154372195650320176e-02,-5.174413945834154677e-02
2.948050404073573535e-02,4.902398561279048411e-02,-5.923399316885663742e-03
-1.381660973115158599e-02,-6.612120889842388119e-03,1.639857705419256809e-02
-3.527444422145190051e-02,-5.004696722293774241e-02,6.363939572598580063e-02
6.336209338543869786e-03,-1.062980650638649521e-01,7.349726035221322562e-02
3.392347537496867571e-02,2.660608689648484917e-02,1.877622074923481627e-02
-9.351563919634325525e-03,-6.441543481900279325e-03,2.364800860497739618e-02
-4.525714561308768341e-02,3.040648503943514311e-02,2.632127737857748243e-02
-2.756771823574721836e-02,-2.670871075075011754e-03,-5.384766305607092615e-03
8.392046277806534949e-03,2.040628547680860619e-02,2.605932316293105983e-02
-5.007205637813650495e-02,7.770795758110185351e-03,5.168581728555277088e-02
1.070714149768427041e-02,-1.465327543988452150e-03,-4.116023272760725021e-02
-1.989272861769507059e-02,2.461679315718371536e-02,5.890158586979937771e-02
7.272750031324423658e-02,3.685251901452752527e-02,2.911381554363553364e-02
3.609896469566901273e-02,1.058518979721139591e-01,-5.290901539867744197e-02
-4.123900055082518196e-02,-1.741415056273441092e-02,-2.056516340180738339e-02
-8.388044571431300597e-03,4.569883606305901597e-02,-7.919148079085173986e-02
6.694055281777498700e-02,-6.192753013278249653e-03,3.904100730730016011e-02
-1.702650860059904542e-02,-4.701550843023746817e-02,9.628274538611515665e-03
-3.061008612042513330e-02,-5.153935518179617384e-03,-4.737093483604740141e-02
1.084402364326881446e-02,3.356005321881901787e-02,-2.466180427708088152e-02
2.401695986712765879e-02,-6.341173741439488920e-02,2.399029624757175599e-02
-1.420383169307337830e-02,-1.296928898209905208e-02,1.531750502399928382e-02
2.215646560086122208e-02,-6.207476146166254066e-02,-3.430450355062163517e-03
4.240287926006475888e-02,-3.941453130108391739e-02,-2.721870432164647316e-02
-7.670101618312140379e-02,-5.668968920103582658e-03,-2.647553213929580360e-02
-6.411175310284099316e-02,-1.879413938679366444e-02,6.608845291889496598e-02
3.452763640497885644e-02,-4.592331076271765657e-03,4.908321528745122203e-02
9.316158238393620547e-03,1.216188925572747048e-01,7.053181459536556064e-02
-2.007142312714307181e-02,8.845634755901046753e-02,-6.012632477071114950e-02
1.807958622365450976e-02,-1.351113085797637885e-02,-5.405027923525135281e-02
-8.566653249708910262e-03,1.144601401763000424e-02,-3.169403133479811036e-02
-2.555616421064939563e-03,-2.008736511125718341e-02,5.217530446713416863e-03
-3.464713941548160786e-02,-2.856944201211940315e-02,4.395416127146721530e-02
-4.374508072706178446e-02,-5.778958109468898541e-02,-4.089639113196576192e-02
2.160189013945133102e-02,-3.068358291176860597e-02,-6.349411955831676946e-02
-2.399020000679250031e-02,1.433087012984431488e-02,9.969974053144446680e-03
-4.202758463218500551e-02,-4.376795540121673073e-02,2.147244291425375994e-03
-3.984785098206056198e-02,2.575773643525333233e-03,-6.235478216831947390e-02
3.589183761643864601e-02,-3.240495335091966855e-02,3.167315351843474902e-02
3.756935654987739182e-02,-3.065465542676050828e-02,7.996769485049490950e-03
2.241139567970999724e-02,7.293212455163337882e-02,-4.200034814552115053e-02
2.658273512500471461e-02,-2.714620255968775916e-02,-2.011919924522262773e-02
-2.779418254738224084e-02,2.365601986043518873e-02,-5.814180690902149423e-02
4.404599565552284879e-02,1.408654034864594180e-02,5.932084762584930587e-02
1.388280496722663938e-02,1.040648380908611691e-02,5.821541882953206598e-02
2.321623327550411189e-02,2.795512124936950366e-02,7.021999237021311902e-02
-5.824988874378585202e-02,-3.838021624083262119e-03,1.685839267892578000e-02
-5.858325545072960022e-03,-4.697107706315047093e-02,1.421201787408906368e-02
-1.557131824904864174e-02,-5.037155671545712199e-02,-6.386274904036055855e-02
6.136460241105032992e-02,4.086661136311526415e-02,5.820901824704878547e-02
-8.257930094111624875e-02,-3.729541099714320240e-02,-8.448670454646558386e-03
-4.239905490930062637e-03,2.606344751748393765e-02,3.687154590940214510e-03
1.364378519237163453e-02,2.790200406438615027e-02,-7.767592733890800807e-03
2.128258795635987535e-02,3.448044288496871640e-02,1.255385067787809922e-02
8.192357960858763499e-02,-4.603090460034782450e-02,-2.070073182043539670e-02
2.793023535271266927e-02,5.366780883550127668e-02,4.651662246283345958e-02
1.578103283264210453e-03,3.544134969807492819e-02,-7.079471488216458087e-03
4.206589013042953684e-02,2.724464992707957296e-03,6.393647094663508501e-02
-1.047444303702237643e-02,-2.527363270154309432e-03,3.834597979591145012e-02
3.025542822171829044e-02,1.716016080218936424e-02,6.637144862057872685e-02
9.879169536085892489e-02,1.724043453077461763e-02,-3.783379374785312416e-02
-1.967458879587328721e-02,3.699772883009767865e-02,-3.970885323777167270e-02
-1.428633033503497705e-02,-9.300633556578103908e-03,1.582759687259074509e-03
-9.219525387624159796e-02,1.776545814255473628e-03,-4.481663916973799983e-02
-5.464744107431796644e-02,4.532471350513635894e-02,-1.525359679293640004e-02
-5.982802256626208737e-02,-3.741680333924588681e-02,-1.304790899175572831e-02
-1.622750183013682568e-02,-1.380389702615086173e-02,1.289045584118215723e-02
8.179073274442805533e-03,-3.919012475590504668e-02,-8.715871100717162423e-02
5.145124654395944602e-02,-6.949294683492665547e-02,-2.310436477717041359e-02
-1.626629780345438536e-02,-1.105868453177104305e-02,-8.801542869907497471e-03
1.937627945868359430e-02,-2.019029155504178594e-02,2.955492337308099696e-02
1.034636606888546945e-02,3.229569710523404191e-02,5.809810696720829355e-04
-6.253339821630261863e-02,2.962398207071703302e-02,4.960883624334638115e-02
-2.957772259932138492e-02,1.094988696196310708e-02,2.250110269552599903e-03
2.889244615095531987e-02,-5.991493705155900851e-02,3.606958767576832342e-02
4.560587133063434030e-03,-2.855533107495577400e-02,7.041768915382632006e-03
-3.343070883918317082e-03,3.064847522408763875e-02,-2.813040443681187955e-02
6.430744920281243962e-03,2.665347696955031043e-02,-8.629246431311876978e-03
-5.420694711574083717e-03,-3.033101031560849620e-02,-2.027765708596918764e-02
1.993064627276522338e-02,-9.636967967455721193e-03,5.462134384650261382e-02
-7.484926623733869494e-04,-2.650232951111308397e-02,-7.585799081335850569e-02
-5.013314311769365150e-02,2.830939502572511063e-02,-7.102250656512561211e-02
2.274737798176438425e-02,-8.183821439691442087e-03,-6.154303315612104017e-03
-4.884914437974648138e-02,9.218500993876678137e-03,7.613286318636988681e-02
7.537412329775915187e-02,1.454206099841436062e-01,-6.126314870525633588e-02
4.667092980923582407e-02,-5.142059427128235077e-02,-3.219325130432972720e-02
1.751287352832291144e-02,-5.261690818333915332e-02,5.373513117570836647e-03
-4.353156255149247603e-03,-9.257928166387470112e-03,-4.373663653925251998e-02
-1.388077875466676298e-02,1.658388742457615750e-02,-3.396722638063420785e-02
1.736989230549556770e-02,2.328596212887964253e-03,2.118829526383713205e-02
5.303152769484869265e-03,-5.157584480155969625e-02,5.700712921056842741e-02
1.080549130184420975e-02,3.933744407181116731e-02,6.512836817724721415e-03
9.260003200091270967e-03,-4.099155824315861563e-02,-1.305000484875869053e-02
3.212232466146746485e-02,6.760948625645962252e-03,-5.693804281859236177e-02
2.213437516482131412e-02,2.042642614675104287e-02,9.690741474789932308e-03
-1.236050490890580784e-02,1.227126038334467040e-01,1.788800633090002062e-02
-1.522512664121108972e-02,-2.202583459937805521e-02,1.146100369904230337e-01
2.489829064589011223e-02,-1.305947736271267923e-01,-3.173412303177539778e-02
-3.644532870182939921e-02,-3.166411460948040379e-02,4.742914837153785340e-02
2.644461778513379491e-03,9.501765461551270331e-02,5.411026685484136151e-02
1.969426804691469871e-02,2.913136884462900686e-02,-1.226033192267583609e-02
1.147401028158366587e-02,-3.302782570228499082e-02,9.809978222554609217e-02
-2.880597749808765096e-02,-5.649345618052455803e-02,1.031496288565264541e-02
-5.347165875497398441e-02,-7.157180784999113421e-03,3.911148421986058304e-02
-4.531043156372730960e-03,-3.955542522496658525e-02,-6.381102915004178977e-02
-3.944699606080467186e-02,2.386149160201326332e-03,-7.272400372348558628e-02
-4.534852749635464447e-02,-2.849971908001317986e-02,6.617957539559495006e-03
-4.795477871470696374e-02,-4.979765371786794986e-02,7.567636186231530004e-02
1.892810407742655590e-02,9.147680300191935593e-03,5.720892614334065381e-03
1.442090733487132181e-02,2.149719089455557827e-02,2.106894365410358003e-02
-1.971440135254787489e-03,8.147103131996116798e-02,-6.510538059690186563e-03
7.322089310156370580e-03,1.366035913597760847e-03,3.978305171995200756e-02
-4.153909554279193450e-02,-1.712474825185155911e-02,-7.865489709264712748e-02
-2.683391112989741423e-02,1.465251799314305379e-03,-2.515002366037368941e-03
1.250108279730733317e-02,-4.365497809005707344e-03,3.391365308329859218e-02
5.228632397599946441e-02,-3.133434186889429152e-02,1.530863404354434673e-02
3.910022001679990672e-02,-2.102793859039411156e-02,3.420710081549079712e-02
2.598828054362824561e-02,1.505793289193476693e-02,5.914216210209801566e-02
-7.209335433965606554e-02,-2.492465383554980790e-02,-4.179721306833171501e-02
3.920897296860986064e-02,5.630816359640012508e-02,-3.701197491727992173e-02
-1.387188210578027200e-02,3.004920039231279497e-02,-6.942318751555887069e-02
-6.944909568013649115e-02,-5.707285474258123187e-02,3.917831657132150869e-02
4.281335760505082348e-03,-5.596872082989259693e-03,-3.008710174894483128e-02
-3.706518162230381525e-02,-6.320400180880911267e-02,-7.646337806846612017e-02
6.079465046375625431e-02,-5.030695940994179410e-02,4.424570400962157118e-02
-4.838273284032840182e-02,-2.374766330619980034e-02,1.987962887870342588e-02
-1.219362646716929191e-02,4.566394320415593372e-02,-9.671758765344029563e-02
5.273985411377744154e-02,-7.876250515008872966e-02,-6.311364245853977317e-02
-1.630063393696482704e-02,2.374460997824691041e-02,-6.958149756021167476e-02
7.670730792025749409e-03,6.929767164009609237e-02,2.258594867245726848e-02
-6.223276329446635752e-02,4.957758740041980430e-03,-6.395973027953455632e-03
9.988361356275761438e-02,-2.468043599508695351e-03,-1.846752378023411951e-03
-3.009005851158287007e-03,-9.054094912758926805e-02,-1.649292132089898166e-02
-4.103441728801430349e-02,-2.673668689141746324e-02,3.371068465612675480e-02
-3.472169370642140540e-02,-5.891511509356960573e-03,-1.070023928260221795e-02
6.185432999046393959e-02,-3.910114338073800155e-02,3.765575989576387672e-02
1.270732917257963793e-02,7.238495744646904857e-04,1.606797233611266529e-02
6.474686363411723267e-02,-2.525158814457527379e-02,-2.729249080671108355e-04
1.722716712747930298e-02,3.030024245694205084e-03,1.458598669043341227e-02
1.803892972975230935e-02,-1.678056912442841414e-02,-6.164669402634628120e-03
-5.330517683684201508e-02,3.124984845498062977e-02,4.815187322983011109e-02
-6.312812227741577964e-02,5.250442654396766939e-02,3.284263338835625295e-02
-6.330400860711924392e-03,7.930757095654520847e-03,-1.910509818923165556e-02
-1.990429751106388701e-02,1.281912400990931240e-02,5.627772468491012113e-03
-1.782351608303889279e-02,-6.557432462790289962e-02,-6.092783981135389826e-02
2.643461731842526932e-02,-3.179394678959940324e-02,1.506478339471491006e-02
5.594440624259555683e-02,5.130780230613032206e-02,-4.114663116849442276e-02
-8.666666413071431180e-03,-7.995888891361909237e-03,-9.024200553884186363e-03
3.720643804056760623e-02,-3.462808982980516807e-03,3.113629248681861264e-02
3.360016918058812696e-02,-3.776269491663864636e-02,-1.203651873521667526e-02
1.651292414598365746e-02,-1.248211954196112514e-02,2.768447016381712922e-02
3.651093690270088704e-03,-4.756889040117746881e-02,-1.027255212503461711e-02
6.464320352023490701e-02,1.019122061061482690e-02,-7.334342866188169052e-02
-6.167238587763013147e-02,3.659167300798742140e-02,4.728462761361072048e-02
4.677095481080861816e-02,6.742630484145840930e-02,-3.858012417727231524e-02
-6.308249276208850731e-02,1.001767433152920134e-01,-4.520151186445178770e-02
1.110318053607422910e-02,-3.827991262889197596e-03,-7.626087854340497796e-02
3.266804402849429485e-03,1.060909955070836810e-02,2.562604518588110225e-02
-1.327701116899404274e-02,-4.054050124461235777e-02,-6.736685658285324063e-02
-3.232622174659206121e-02,-6.661234965775125749e-02,1.458066929694079236e-02
-4.145447319224598165e-02,1.642730981859279529e-02,3.296014143505178462e-02
4.440997727259028693e-02,1.795240465910498753e-02,2.968677777280784194e-04
1.778321979900072958e-02,1.385358304151904779e-02,-3.574487917889065947e-02
-3.114015962146822469e-02,-9.039975128777741342e-02,-1.292636770557271941e-02
1.137837773008881781e-02,-1.897459498750086321e-02,1.778361612454659388e-02
3.497999440592125531e-02,3.433977165511149093e-02,1.895468730127544341e-02
4.323983106629396278e-02,-1.450007865928362770e-03,-1.495986930774012742e-02
4.491411277080519654e-02,2.671176728419228860e-02,3.632450368460252155e-02
9.134260183754301654e-03,-9.882850879639611119e-02,1.479568169834469954e-03
8.404458068871931142e-02,3.571623074117781516e-02,-3.532257028572966667e-02
2.621202899563645008e-02,-1.416369358187460382e-02,1.607580535843087730e-02
2.349086284800644062e-02,-7.410740148035202014e-03,1.638418807114937897e-02
1.148272961731605472e-02,-9.276605143353927607e-02,-4.788069036331755318e-02
-3.309551095057608472e-02,5.775329426540323774e-02,-3.174866230566510822e-02
-1.042647642429687938e-01,2.551159646038388823e-02,-2.903255979849257706e-02
-5.811321696080963550e-02,4.088700565552451371e-02,1.572483298002786897e-02
-3.845296244598941232e-02,1.961871000831628964e-02,1.417050875699901562e-02
-5.913596768207290966e-02,5.430005481583728526e-03,-4.078546661852609778e-02
-5.461355985434354632e-02,6.347901307965299333e-02,-5.161176218797598053e-02
1.593322068351427784e-02,-2.406969961853306500e-02,-6.189488984979289038e-02
-3.435698548096861871e-02,-4.460058712064977893e-02,-7.888408026238419302e-02
-4.807669641549550121e-02,1.620524203089991622e-02,-7.385117400620312689e-02
-9.614530870405540650e-03,-1.884266210154316237e-02,-7.708795098926884970e-03
-4.860792059718622993e-02,-8.405836780550127174e-02,-1.706405623514599575e-03
1.340273399793191593e-02,-3.574715790487194983e-02,1.640569988686119487e-02
1.992366869616769148e-02,8.066621480422505328e-04,2.616717040562022145e-02
4.652022347205091168e-02,3.542456339592752607e-02,1.347982104680110586e-02
-3.143412073754598551e-02,6.026551640691523055e-03,1.167442001790196075e-02
-4.947325978859689298e-03,-1.137698675238545771e-03,6.027159989800036886e-03
-4.005237417242565878e-02,2.552594936502947109e-02,8.484889329141794348e-03
-4.232484092200805570e-02,5.734906689807670044e-02,-1.055709411727450420e-01
-6.139892878439105403e-03,1.590177734602407286e-02,3.694140995159453378e-02
-1.696686741688306459e-03,2.165507261066831543e-02,1.876193753259962696e-02
1.021689228534118782e-01,-1.087861369367361906e-02,4.832437741309253409e-02
2.742106102398848543e-05,1.128129938188558168e-01,2.622344325251130606e-02
2.400698636143376585e-02,7.846866594625309665e-02,1.292357526776001866e-02
8.748818214528792520e-03,4.570038755245460146e-03,-4.146539217637247934e-03
4.710523309981278633e-02,-1.812220088193242790e-02,-2.598060439452170786e-02
8.844723389252254209e-03,-4.514176317155151920e-03,2.754282576550465961e-02
2.001189279776629734e-02,6.645616075243647447e-02,1.568944528087266865e-02
-1.939693831554728173e-02,3.444709301499384452e-02,1.541438574292850264e-02
-2.559802995886312910e-02,-3.593079097335143135e-02,-1.446735502824923400e-02
-2.833607177233328500e-02,6.582418651279563215e-02,1.264277191066143780e-01
4.482040590999632895e-02,8.888593921952382682e-02,3.991488360988475204e-02
-3.955858896386410528e-02,-5.419138246518905022e-02,1.063256773489557050e-01
1.422434146622701678e-02,1.348783015822276055e-02,-4.241003925518636170e-02
3.585496290610721420e-02,-5.800988735029437987e-02,-4.630116872725385802e-02
1.239193125851189951e-02,2.153693636407937387e-02,-6.508088835698574992e-03
2.892490036254317248e-02,7.406995140097724639e-03,6.612764009445563397e-04
3.040620292936644081e-03,-4.557015210354681961e-02,4.918308919698551052e-02
-6.308348536127155771e-03,1.043879283557707510e-02,2.401361195191933917e-02
1.947302954793537350e-02,8.611599056439009012e-03,2.960099003481005478e-02
3.155502752443153924e-02,5.205620266341469404e-02,-2.004520455482308380e-02
2.472104273973008831e-02,9.906108598887303218e-02,4.342928524146483921e-02
-1.253525761462022034e-02,8.649152438741163421e-03,-2.011251286907669161e-02
2.475554602290142014e-02,-1.589123141313866436e-02,-4.417132527456751195e-02
3.087120661409140446e-02,-1.890867422820391235e-04,-8.753429474429310145e-03
-3.601978321747077716e-02,-8.721626343616492583e-02,3.496358052677589479e-02
-5.557196312136034391e-03,-3.670779082985053954e-02,4.717045002701227702e-02
-4.732117453343985536e-02,-2.579349213106288743e-02,2.950760181131359405e-02
-2.577353011239386787e-02,9.629393535514218019e-03,1.872332384935219973e-02
-3.678920648351516332e-02,-1.223081661828390870e-02,8.259602801959546950e-03
1.422149104338472914e-02,5.164393710183656783e-02,3.049014423688752723e-02
-1.744742217854572744e-02,-4.596396770315887455e-03,2.370261865444570765e-02
-6.979662453614053630e-02,-2.864481841119834865e-02,2.382308958034702606e-02
7.473757716446424726e-02,2.858506720905818962e-02,-8.453205778002667592e-03
5.121841832178845172e-02,3.419366767720016798e-02,2.848540232001844225e-02
-6.224012136776495285e-02,-3.368834385280841670e-02,4.082458825480710335e-04
-5.138691189129936804e-02,8.658052919465681826e-03,2.110714036416927800e-02
1.843984722107683966e-02,6.079420126641269656e-02,-2.180299253685949457e-02
1.993640771351201657e-02,-1.105934833616499437e-03,-9.712175170936419508e-03
-1.427201739346359473e-02,-3.591867336743296418e-02,2.893133580102007565e-02
4.317630852807772396e-02,-2.182538370037189965e-02,1.493901742107101374e-02
-8.882602380125718955e-03,-1.650991324829464979e-02,6.766133443809506376e-02
4.490610113105652362e-02,-8.586155720101911956e-03,-3.774978292793938067e-02
5.009933556076347563e-03,-1.900830190121478164e-02,-2.414457954584665715e-03
2.188813669429690023e-02,1.740929487179677937e-02,-4.303793833066341806e-02
1.025105711314728968e-01,9.422326429710406459e-02,5.707092666699964748e-03
1.878838649001644172e-03,5.167587199333227837e-04,3.962088124530196293e-02
7.747328716945769619e-03,-4.423505477161487204e-02,3.487033749169669156e-02
4.868809049683723439e-02,3.852932838470227161e-02,-5.780577701248368686e-03
-2.164070416690676638e-02,-4.521607138720928898e-02,-5.800283925000190161e-02
-1.030540603127400728e-02,1.910329185923979184e-02,-2.689791680952642594e-02
2.111983052380237563e-02,-1.747776321273888586e-02,3.567953187098682477e-02
-5.756362025817086253e-02,6.178715585747474731e-02,4.689764571611839544e-02
-2.774736228101626345e-02,-5.509997358392135225e-02,-3.333457642422511802e-02
1.290873879994006504e-02,1.480885573298887890e-02,-8.937953723382439236e-03
1.792669534936616738e-02,-6.768050059290695031e-02,-6.099886803931427182e-02
-6.243754287352728388e-02,2.482056810158595958e-02,-2.656992210320220649e-02
-4.616909345397570558e-02,-3.040243622457794101e-02,2.068355963265649123e-03
4.360480953587885650e-02,3.944652241088984768e-02,-6.521940621642040303e-02
5.700310135191809929e-02,6.473696486209158359e-04,-7.090621383859536941e-02
2.824416814670474909e-02,-5.135477118173300409e-03,2.323136769649538150e-02
-5.061667309578216783e-02,1.361694093727696710e-02,9.719236747086227104e-04
5.963734602495067427e-02,7.933540409464080734e-02,-4.902108530427952415e-02
5.066135830474960411e-02,-4.351249158886918295e-02,1.871226574039898741e-02
6.467033628869983284e-04,-2.623992466415640129e-02,-1.034637061304321259e-01
2.804457412507244465e-02,9.827761347434108355e-03,-5.375679042071220687e-02
-1.009988510803359746e-01,-4.764378514227491507e-02,1.873753720598140063e-02
1.140375129117139757e-01,2.965453796249714266e-02,-9.009186212152642259e-02
-7.184494675557073426e-03,-9.156662263765632040e-03,1.230856702176960291e-02
-1.160685481935726411e-02,-6.183910142734237031e-02,3.519472464706529385e-02
2.769329690303036495e-02,-2.962550007915709313e-03,2.358071513253548468e-02
9.642309685513814066e-03,-5.209301369000775284e-02,-3.466009906870983620e-02
6.872545072366455232e-02,1.270066244586571212e-02,2.314261586867628201e-02
5.837831614634124422e-02,-1.309056433387079978e-02,2.987650873148327973e-02
-5.515083335820144400e-02,2.433945040672648788e-02,-1.882124356924349401e-02
4.532396773646801130e-02,-2.084451808899209432e-02,-5.825862149450290045e-02
7.289265592960185447e-02,2.367948605306641544e-02,4.587155117402259841e-02
7.501401359328721714e-03,1.646174588848859158e-02,4.237198953830353249e-02
-2.016955884846224900e-02,4.693424542177422609e-02,1.395400723498131136e-02
3.510070367178075995e-02,1.147406833207323257e-01,1.089831287307515238e-02
-6.248974485687942143e-03,-8.204271501537708025e-03,-1.280268720270079028e-02
-3.395449548921355282e-02,1.455697204495470971e-02,-3.252357679052864797e-02
-7.295700935289003985e-02,-1.737016116137321195e-02,4.038115408612202861e-02
3.102123723539476630e-02,-4.467070728508520244e-02,2.564724715990064283e-02
-3.863134423736985096e-02,5.525813332905793462e-02,2.742777890069445987e-02
-3.767752069102441037e-02,-2.219836571290705746e-02,-4.478419279284830828e-02
-6.054483446202535424e-02,3.138060359750969447e-02,5.002810513813162052e-02
5.107850944294273915e-02,-4.344202861344043098e-02,3.059833214240324784e-02
2.215514985723835567e-02,3.682887175013119241e-02,2.713184239877682383e-02
1.101825945369032216e-02,1.234347407228330966e-02,-5.368676496888423813e-03
-5.033032701423463540e-02,1.273641193214002272e-02,-9.372354750245943944e-02
1.828472157099178888e-02,-4.381848048645420324e-02,-1.312796701042356212e-02
3.427650260118866171e-02,-1.282012023045059476e-03,-1.071598759080756059e-02
-1.153230079072378299e-03,2.841263087945564147e-02,1.177258590581426942e-02
-3.310003900249227542e-04,-9.863128644706458878e-03,-1.196762989384868477e-02
-2.891023943882520264e-02,-4.563095787218173112e-03,7.017379204951595430e-03
-8.129195338932544701e-02,3.530774607749753019e-02,9.898465346496063133e-02
3.310713336262107592e-02,1.440595562320871707e-02,-7.834116425131255890e-02
2.599003808550373607e-02,-2.170469487723859434e-02,-3.679488876465712016e-02
-4.786351022550807029e-03,3.867091142615348975e-02,5.733946033565547745e-02
-4.926076144045207772e-03,-1.588296039346883196e-02,-2.391876213020253245e-02
1.390518708668689596e-01,1.363779901993348587e-01,-6.173410777520216448e-03
-7.295316946776181366e-02,1.446867886747265318e-02,-2.584710156296883901e-02
-3.559065704027266491e-02,-1.371528489574046737e-02,2.385121823055830204e-02
2.096950864780344065e-02,-5.188469671217711687e-02,-6.597575934233756989e-02
1.572822884344046018e-02,1.202748473468508682e-02,-1.116180950757938647e-02
3.696529650469122796e-02,-6.810764119566600772e-02,-2.039638732283781744e-02
-7.521235243508817003e-02,-2.343116058112563668e-02,-4.299815063150279337e-02
2.435609109177105241e-02,-6.138983634574744774e-02,-2.556971502049290926e-02
8.595717372381125876e-02,2.173960988808866859e-02,1.662503543203303416e-02
-2.257545749343568831e-02,4.747968602788996129e-02,-2.085992160215887833e-02
1.288163776623248158e-02,3.290368035949230857e-02,-3.458594114826858690e-02
-6.436105159161064661e-03,-2.283753062149903451e-02,2.525329206607421564e-02
-3.008406086126841350e-02,-7.729303955030242257e-02,-3.027169741198973418e-02
5.526681814052671754e-02,-1.487192413092362775e-02,6.894363279533899380e-02
-8.869446915213612115e-02,3.029672247828408757e-02,1.786935187359482355e-02
4.752398732899550636e-03,1.977771940396509318e-02,-3.456336467954713998e-02
1.717674894349972489e-02,7.097354455860924692e-03,9.504757990470820775e-03
-6.531325502854171128e-02,-4.387096191614946877e-02,6.535282636820352598e-02
1.137814598782639283e-02,6.102376231509651361e-02,-1.435610695513251300e-03
-2.363026339152410338e-02,-2.572569260948012748e-02,-6.597315647079150976e-03
-5.554517791229210411e-02,1.230186390095455023e-02,-2.677256826751603022e-02
1.018935958223768090e-01,3.950120507850318112e-04,3.496846469849031191e-02
4.450785472036210971e-03,-3.863956275989771649e-02,-6.204742522918955949e-02
-5.209126520863055498e-02,3.539591897683698994e-04,-1.786860983902874636e-02
-4.698921196785546539e-02,3.443352216153174744e-02,-7.682363823574010764e-02
-1.586331307760852072e-02,2.371128811418264995e-02,-1.505155975007529089e-02
-2.453169479599203937e-03,3.022520272556035101e-02,2.697207897965402459e-02
-3.308944544306189478e-02,8.564324295241453056e-02,1.210448139923704820e-02
1.564376048452984988e-02,-5.963401815821184337e-02,-7.281341977046979982e-03
-5.977611736605197706e-02,-2.148725401622261430e-02,4.568713780970540955e-02
-1.783102052282338826e-02,4.055618477395701860e-02,1.295052770645231666e-02
-2.613823057467551739e-02,3.278528442715587105e-02,4.988569914800982524e-02
-2.946779653451603656e-02,-5.548724832936684573e-03,5.446354847879178451e-02
-8.314393669306413895e-03,-3.357328802733535594e-02,7.116481773049589121e-02
-3.098991770926052408e-02,5.733929591075979243e-02,-5.207101606777092551e-02
-4.396433337273645409e-02,1.154845097243368743e-02,-2.739308603572827502e-02
-3.853294016480568462e-02,2.726526077674107026e-02,-3.214906109118424726e-02
1.381951014603612360e-01,7.246853410930097217e-02,-3.858443402300650027e-02
-4.741902839825863636e-02,-4.326249935931216969e-03,-6.884202509694896388e-03
1.368666605740699246e-02,6.221154290946200732e-03,1.437717290264382310e-02
-3.580208208720100319e-03,1.162082617117112318e-02,6.444923885329825047e-03
4.259503992010770651e-02,2.869131424877120057e-02,1.392428995746129890e-03
-4.279369594079865391e-02,-4.873479804297511236e-02,-1.118536688947478590e-02
-6.754571108812472413e-02,2.881653032041491501e-03,6.232952299908772059e-02
-1.339365299001811158e-02,1.108353256612252917e-02,-1.040385608291389818e-01
-3.625217257912425467e-02,2.262704005277604846e-02,-3.569284018291837834e-02
2.649152991337160035e-02,8.468678915373131777e-02,-3.979457269915422091e-03
-4.651781383718402857e-02,-7.975718204390887592e-03,-9.219385461708284532e-03
-4.862050079423564652e-02,-4.522918544200905250e-02,-6.051334566900999634e-02
8.048241106325598748e-02,2.204203632558506681e-02,-1.597179246984782586e-02
-1.207994987360078674e-02,-3.841084413497998507e-02,-1.423392408817727647e-02
-1.103952358484297167e-02,5.224171054614434873e-02,-3.458427332577197755e-02
-5.185070232281398066e-03,-7.402902274941415388e-03,3.583622667292186981e-02
2.711102902558261418e-02,2.353677360998794599e-02,-5.696142073257315364e-02
4.100621798842318507e-04,2.469552940878922895e-02,3.207079979868066033e-02
-3.511874717634674153e-02,-4.735262332195989965e-02,-5.379486690360160001e-02
-3.555304566601094618e-02,4.608086866658831458e-03,4.864039329107560511e-02
-1.675108696255117255e-02,2.898285233335504835e-02,2.248674236948443317e-02
6.708428544980629682e-02,3.076778715910247208e-02,1.047065054437890108e-02
6.033694302491972306e-02,2.544601915694720551e-02,-6.389528339491230835e-02
-2.126119266880857617e-02,2.948871351370285776e-02,-1.216119023876753025e-01
4.659914830593676199e-02,-6.292708194148184664e-02,2.027853022869163455e-02
5.371177308097263570e-02,3.774922527195637839e-02,2.677599482802317521e-02
-4.720410689682587313e-02,-1.007895076453329099e-03,-3.112228042451573376e-02
4.035514287629111962e-02,2.195891741171808811e-02,4.072178308273376873e-02
-2.533159100388539947e-02,-7.406271273827626234e-02,1.271975341870177148e-02
-2.293968693768285577e-02,-1.886430172378533721e-02,-1.297040111684612251e-02
-5.849450210920062627e-03,-8.793824895349338505e-03,5.532669335625142043e-02
2.889363385712975102e-02,2.800353009872671647e-02,8.157138608474284389e-03
-2.020082024414642310e-02,-1.506854370514076197e-02,1.112723842671221874e-02
2.823794900526880626e-03,2.077731391186398574e-02,1.365013300838992770e-02
-1.637889726018310066e-02,-4.173625878710670450e-02,-4.934205477816623608e-02
-3.666262511135347235e-02,4.906134128526232208e-02,4.229938082321148089e-03
1.096988147378951013e-02,-4.076763200058249048e-02,-3.833943866171680287e-02
-1.283027372593477725e-03,-9.504575492636190004e-03,5.248849560278743415e-02
-1.251728632566026685e-02,6.076562024188539995e-02,6.608439371534671758e-02
7.418236042809640829e-02,2.960473375819634712e-02,8.901063287929609699e-03
1.722818514845441198e-02,6.285919360033598302e-02,9.143032635970464728e-02
4.527402677895165511e-02,5.564820902900099314e-02,-4.453348650248173390e-02
4.958827762213834783e-02,-3.672798950592037065e-02,2.684509601443158325e-02
2.446775130893337827e-02,1.350985990880480304e-02,8.341636581044112320e-02
-1.545577238222397946e-02,-1.825303187646751257e-02,-5.561051031464147448e-02
2.454582288086501474e-02,2.767001653173114389e-02,9.877553830710043836e-02
3.136457550102955683e-02,9.017721527658027758e-02,1.147560289262215989e-02
-5.117591395526183834e-02,-9.925920365206442747e-03,6.937806747039287902e-02
1.253289083043099793e-02,-1.020004423825761732e-03,4.650639954272706850e-02
-6.686762777915271350e-02,-1.228838893319968498e-02,-1.233095903330055747e-02
5.786063561606189648e-02,6.024144738989348907e-02,-2.725268959127134794e-02
7.957557925196190318e-02,-2.370667771946457364e-02,4.713668875371458677e-02
2.278211827197118913e-02,7.729253912386493952e-02,-4.415004357372645516e-03
-1.184483933303519775e-02,3.396207582935441976e-02,4.380659541577973382e-02
4.740852412141097205e-02,1.739759875586973856e-02,-4.463133920915075305e-03
3.386438524316724014e-02,1.097309501358452455e-02,-5.608323034308351773e-02
6.005795982388892340e-02,1.160961862850752639e-04,-4.455558142525770093e-02
-6.296080517382716957e-02,2.746320390240138132e-02,1.883941834674752666e-02
5.901830415512118906e-03,3.322274541120818353e-03,-2.641787478365741418e-02
-2.516266388533848486e-02,6.693802181346811264e-02,1.232477997445364723e-02
3.019217864189489495e-02,7.018637011955673743e-02,3.411118945158209126e-02
-3.546359271627935739e-02,-5.946992281362779333e-03,-6.279975219342714965e-02
-5.447579285416759287e-02,-2.686116350900349947e-02,-5.419408033499422545e-02
-3.527450960378955298e-03,-2.196387111635499448e-02,-2.887526787874454201e-02
-3.759968192250235514e-02,-1.310647858249901730e-02,-7.800176379284772671e-03
-3.531570701991969957e-02,-4.001631406601343505e-02,9.232507128555802328e-03
-1.549704819783622768e-02,7.571536659695545825e-03,-2.425554328392325043e-02
-5.845472884248663348e-02,2.015164182433908449e-02,6.978021037289984518e-02
-4.467307312817674764e-02,-9.487054411098969076e-02,4.282567995602380023e-02
-1.012601937223869299e-02,-3.800471224138469994e-02,-2.462577183123353108e-02
-3.192386601052481232e-02,-4.090780297756579226e-02,-1.731520294569976678e-02
7.082673846580769816e-02,2.060662419127276546e-02,5.960334811630004642e-02
-9.934403184834468548e-03,-2.456263453134383684e-02,-5.512744894802350248e-02
1.933983015437572284e-02,1.580024177783975053e-02,-2.738044072959849515e-02
2.280736349752098685e-02,8.602890607436523840e-02,-5.897558599805458740e-02
6.280333926084999407e-02,1.113637500029177330e-01,4.417699187442102396e-03
-3.937621342429522414e-02,2.869421750258873902e-02,1.528601464247792644e-03
2.297633606006329807e-02,1.300775397961530765e-02,6.892756701002483374e-04
1.945705540593218458e-02,-5.808755475391504802e-02,7.866406960966003392e-02
5.772149702892976492e-02,4.665357418877291024e-02,2.730834559810451159e-02
-6.775340897750919966e-02,2.068763122551818458e-03,3.464932055239801356e-02
-5.465508403293658363e-02,-2.569915836817803639e-02,5.179027063757116883e-02
-2.347722503409721551e-02,3.350046011126756040e-02,-1.111590607053892718e-02
-1.752055742857186980e-03,4.348214786952461948e-03,2.200515008797239089e-03
-2.212838024201929654e-02,2.678604941946851475e-02,-3.701857347357882799e-02
-1.496667040447366599e-02,-7.440840327725097708e-03,1.646856836859582340e-02
-2.113697030147755271e-02,-3.584416447810080675e-02,1.469072354114478451e-02
2.277773814482857151e-02,-2.164822469865499907e-02,1.487187515047465021e-03
5.977519372146092302e-02,-4.106251880267165061e-02,-1.571574817372548005e-02
-4.368888139239383156e-02,2.848665235344831348e-02,-2.508002713737597297e-02
9.758306383522437344e-02,4.658822022256590284e-02,6.732508235699091736e-02
1.221347617665146865e-02,-4.260072333609197376e-02,-7.118652071622653954e-02
2.040385149770598122e-02,-8.164950131650192122e-02,-1.907175349032016326e-02
2.843174479923106512e-02,-9.914032086002973199e-02,1.349839132173008462e-03
5.945857391225037314e-02,1.993351119131333768e-02,-6.719962607262728281e-03
4.814415945277369935e-02,3.318808208664891790e-02,-3.509413160968552492e-02
6.326966065083929058e-02,5.082172333694090494e-02,-4.413467186771343614e-02
3.615256138042417799e-02,1.470576494900018710e-02,1.990693240616531884e-03
2.059917884675081107e-02,2.187642686593334676e-02,-2.461795550990494245e-03
-1.878734513241484211e-03,9.694081778877337852e-02,2.003712771506670903e-02
-3.211694364333109175e-02,4.104754989417299521e-02,7.917605847977073064e-02
-1.466915740560851417e-03,-7.337515090040583332e-02,-6.531683424171604024e-02
5.453420216425318434e-02,-4.110845285749954205e-03,6.236070805286162561e-02
-2.698200363012621256e-02,-1.827170190214783690e-02,-3.770897500944641462e-02
8.750981083361850099e-02,-2.776493654130442884e-02,-6.947038941768907128e-02
-3.243726657005051306e-02,-2.194312023655826602e-02,9.514662706839524531e-03
-1.653302234822304553e-03,9.412503650607433828e-04,-3.069027872187056472e-02
-2.457863938903062651e-02,-2.888510772984599281e-02,8.725349922834541722e-03
1.280403228183460895e-03,-6.112673501966618336e-03,-3.380169143121579400e-02
-4.113409185215426492e-03,4.391495859354509895e-02,9.692949143302596882e-02
5.878107696514843494e-02,2.196345084255642635e-02,4.183915000011381724e-02
-7.224339922207773448e-03,1.836057841554931958e-02,-5.806843357655851190e-02
3.060265017857335956e-02,9.392257710271636854e-04,-9.379740727749744100e-02
-1.645767478596745371e-03,-8.622644597528596536e-03,3.476247785516574373e-02
3.680076400777921274e-03,4.631306333888840499e-02,-5.341601364796172077e-03
3.067097411297728046e-02,2.329512767661625142e-02,-2.035974957192094800e-02
-1.517273715785734216e-02,4.309224244605992793e-02,4.375828593255781662e-02
-6.397948389988032669e-02,3.406281808479470698e-04,-1.189394873812502605e-02
-4.458225915921968513e-02,-2.316553335515843595e-02,5.089226213720036279e-02
6.684554120095960450e-02,-1.837778385359610175e-02,-3.120243581107936051e-02
5.049163012162145164e-03,-4.450755190123373284e-02,1.111693046194663775e-01
5.248823918821923090e-02,-9.463196307397240582e-04,-2.315857998170764084e-02
-9.178413197220287867e-02,6.214267241274504944e-02,-1.066226681731797079e-03
-1.145905026362826346e-02,7.242335074068070866e-02,-2.005469555062500825e-02
9.278768895362245889e-03,4.708147141623159754e-02,-3.612025175537952881e-02
-1.390097027151690826e-02,3.270260420702923027e-02,-1.814099948812646079e-02
2.629004805935412567e-02,3.482608798684714169e-03,2.837049844636213569e-02
-4.691377270274370292e-02,-7.601031215257380777e-03,-3.928796972281424493e-02
-3.262627441203259232e-02,3.723578681514920496e-02,4.660790689384670255e-02
3.347272521320483057e-02,3.226025606473661295e-02,-1.160366520877316593e-01
-8.051526885112371412e-02,1.254533593658172658e-02,-8.261858806287299475e-03
-2.930203752015656058e-03,-4.917453506854002360e-04,-1.862454108507091482e-03
-4.028681645531159705e-02,1.320596729966670062e-03,-1.209398525343945629e-03
1.888407471736842924e-02,-6.158407478122170098e-02,4.975418191569629806e-02
-2.579094063638502979e-02,-2.868831684513376348e-02,-1.998866478518640522e-02
5.680406163933454655e-02,-4.469561053605665413e-02,-4.921476483513183633e-03
-2.423173359279615427e-02,8.043486772664638906e-02,-1.103414594035410749e-02
3.150690397340069528e-03,1.403192683599765664e-02,-2.211087421898297670e-02
1.512031386707086544e-03,4.632715742199569955e-03,-2.399397553075535358e-02
-8.398080762203534444e-02,1.094111542112059660e-01,-6.797492108508630497e-03
-4.638391728282426074e-02,9.735735141924306210e-03,4.427925812422876806e-02
-6.044032695422837942e-02,-9.271710748680220271e-02,-5.348056416172149163e-02
2.975127178001757064e-02,2.422507656884448010e-02,-3.123017596820791553e-02
2.130097720255697338e-02,-1.772996554963554225e-02,6.597209847943627525e-02
-2.118006286026192717e-02,-3.734023060991209508e-02,9.437285984709474496e-02
2.869108963892883987e-02,-2.300179345378204274e-02,-4.625812746454992935e-02
-5.950316054221427980e-02,-1.366906629911703551e-02,6.204817391882411996e-04
-4.384300068523278894e-03,-2.726697241081733891e-02,1.887399298157995189e-02
8.441269036202664333e-02,-1.441395881847012950e-02,-2.613417864481635752e-02
3.431409127104820961e-02,1.156020260664510427e-02,-5.816601127540238503e-02
-1.825568185105119409e-02,2.627823113148081667e-03,-1.271675360712995646e-02
6.011517295252172613e-03,-1.961049505844683627e-02,4.980122203975700067e-03
-6.755859179369304475e-03,8.437294889411008081e-02,-1.521905719648471329e-02
8.386007565361094929e-02,3.257488512436380879e-02,3.629140563932943542e-02
-1.039172625968994013e-02,-2.000804729070686239e-02,-4.827682269526787501e-02
1.662035157478400360e-02,-5.147243243424590164e-02,5.217132603541016836e-03
-2.704448361321142025e-02,3.844730401527000213e-02,-3.977327098388132309e-02
-3.957968488914377810e-03,-1.867100111903256809e-02,6.001448063553447426e-02
1.455563315568651067e-02,-4.502369230845508496e-02,3.613618836111811422e-02
-6.673103922944631505e-02,6.601115129067991472e-02,2.360451898152844674e-02
1.506462706899639251e-02,-2.025811108025753031e-03,5.842564866234033899e-02
2.680361760004621591e-02,1.551032407570685986e-02,-5.644095074003478013e-02
4.564460718722715415e-02,3.309245362617477260e-02,-4.286570418694659462e-02
-2.630529450733001123e-02,-5.199364643676871595e-02,3.242519193183043043e-03
-7.373455556883125317e-02,8.208616857725684057e-02,3.242086881738527604e-02
5.005714180108393127e-03,5.932987917713229697e-02,4.983623199314065472e-02
1.287345387083124043e-02,-3.050830907455247265e-02,8.477217823881337544e-02
1.805416631413587006e-02,6.722903505827822895e-03,-2.447064412523175525e-02
4.105632061990895088e-02,4.288294645099017394e-03,-2.879795339799277876e-02
5.452242471413166341e-02,4.662064761620791226e-03,-1.216858920764188681e-02
3.641007855629135176e-03,4.010724184104603324e-02,-7.942217226618437931e-02
3.318661560420142764e-02,-3.017316494763418525e-02,-3.752034894061795356e-02
-2.281547329382484571e-02,-4.606873957308846301e-02,-1.705811221409208808e-02
-1.117256757165033254e-02,-1.879134868900079677e-02,-5.780007463937204826e-02
-2.142413805345971464e-02,1.162885321135297134e-02,-7.117643187037614450e-02
4.221404785589020353e-02,2.116548119366486527e-02,3.435739573572745009e-02
8.348125076699960956e-02,-4.448980898380530680e-02,-1.946713248170223870e-02
-1.562570630670710031e-02,3.410647748157245949e-03,6.668803999358474677e-02
-6.608475571365649177e-03,-2.974906668836878668e-02,3.857062242037088973e-02
1.961139050180596768e-02,-5.983434024900390752e-02,-7.890947659622896126e-02
-7.175325666947955650e-02,8.723929558078647589e-03,-7.822565043043860911e-02
4.808617594769632603e-02,-4.329863597030445682e-03,2.180998784187070452e-02
-5.413036720712206817e-02,-1.451235373734204893e-02,3.668699172708643486e-03
4.381382893829531555e-02,6.203090513503129594e-02,2.841025882296788208e-03
8.816413734841770100e-02,-7.409373272780324371e-02,6.015141922700483618e-02
-4.736461610227712254e-02,1.184741921577562793e-02,-5.382065063539061972e-02
1.768122572622021771e-02,-2.200269072338780288e-02,1.513025021848248865e-02
-1.806004516132223015e-02,2.662578843163865630e-03,2.328405414387742928e-02
-2.588936458636429891e-02,-1.166052327583565473e-01,-1.084080702302276690e-02
1.693772555576474048e-02,2.734327554291465789e-02,1.183554751004583898e-02
-7.564095336856724305e-02,-3.096386339614282113e-02,4.390815946611337228e-02
-1.047331491514810710e-03,4.045692859405866648e-02,-1.108772349994778389e-01
-1.677710254533427633e-02,8.150254006996751621e-02,-4.155695075312466208e-02
-3.958123248966366643e-03,-9.827947847661944181e-03,-2.731507126101494036e-03
1.160872827361473791e-01,-3.122372877553327569e-02,-1.505296210040080532e-02
2.636508978456285346e-02,3.966176328670396878e-02,5.946564330365074896e-02
1.896395268778103965e-02,-8.093209935732058324e-02,-2.272807347537559100e-02
-2.208641687604088327e-02,-3.416915828220311313e-02,-2.048955356449455936e-02
-2.635011978455803483e-02,5.536641629707290957e-02,2.915372989891857475e-02
-3.480815777581860310e-02,-5.888044075107010111e-02,1.106719975961274922e-02
9.782502848382387123e-03,-6.927540294673247001e-03,1.589937301173951004e-02
1.439157876111645806e-01,1.571342194723977098e-02,2.877453831748337520e-02
7.127710561347344598e-02,7.192126331518701454e-02,4.739506722422887758e-02
-8.150509401261071818e-02,-4.302845780366317679e-02,3.676474848822266356e-02
4.826825374059762891e-02,4.980453620526491265e-02,3.398909112865472048e-03
7.293240124638420557e-03,3.304726411548052079e-02,-1.185985049176946533e-02
5.366935534283383789e-03,-7.559383784792393646e-02,6.094017036945961058e-02
-3.821012768318410996e-02,-7.940746058065397805e-04,-8.738307941603665543e-03
-4.205581176958196610e-02,6.957352256977664129e-02,3.301803247376795120e-02
-4.528703598236503113e-03,8.566003947655125364e-03,-1.909979743058318885e-02
7.056984697715053267e-02,1.536130573828210994e-03,6.964046114279118238e-02
-1.190238721852300216e-02,4.405288623955871952e-02,8.037949121009925132e-03
-5.163410681999143145e-03,-2.399463334830347072e-02,-4.393186221899601437e-03
2.385276328002848209e-02,-2.164682154153395321e-02,1.121719489425162565e-02
-3.854368686451319775e-02,-2.786348757713128302e-02,4.572314832903719151e-03
6.625184233071704232e-02,9.643644815920639907e-03,5.773451894126931799e-02
-5.724766501699523474e-02,-6.343403589657273245e-02,5.034819021997578858e-02
-2.214178620050172991e-02,5.890885633675987942e-02,-2.922125133473485806e-02
1.988549959166164074e-02,6.899924507525137356e-03,2.116342799676370484e-02
-4.723187835528980943e-02,-5.361489481341059210e-02,2.064232680711308981e-03
9.227389092220648556e-03,-6.401256717143219421e-02,-2.979524889830796261e-02
3.595424530535864388e-02,9.998508890087328196e-03,-1.173795239075373477e-03
3.831629632997797519e-02,1.168388337775125990e-02,4.029667509353648119e-02
-6.121342387930649859e-02,-6.358438646715786069e-03,9.416704278788655402e-02
2.105418857837027327e-02,-6.255636377324197417e-02,4.121659814185860832e-02
8.286282913447294562e-02,5.386684453672373196e-03,3.248381024131960504e-02
-2.875047034652927162e-03,-5.286454061463796705e-02,-3.306896072568238885e-03
-1.443992119044019279e-02,1.447479832153786977e-02,1.862467226010846438e-02
-1.004461557291065621e-03,-1.887895232100933809e-02,-6.393008755751400374e-02
-8.358960295535240725e-03,1.821582129032680436e-02,7.235567358559615416e-04
8.274326928678127357e-02,-6.931110056703362887e-02,3.264100798197208230e-03
-5.666171337775101520e-03,9.744464659503628001e-02,-5.058658800981999382e-02
-3.379618503291953284e-03,1.901105850440360651e-02,-9.239438035820305914e-03
2.915539530105659694e-02,4.603019605827885603e-05,-2.810487566727966693e-02
2.066683138833959668e-02,4.009407988422783280e-03,2.499710804359519395e-02
1.639013075833953281e-02,-4.316050768806393295e-02,1.772407725607554399e-02
-1.084346191165147383e-01,-4.396718230430909924e-02,6.732041660905393153e-03
3.141922687120384666e-02,-3.989245392311079053e-02,-2.291216445196964102e-02
4.652983311428863372e-02,-4.416050854723833213e-02,-1.381975065681152227e-02
7.344645328296708952e-04,-7.927779518025847294e-03,-4.304783291442526583e-02
5.531651652928133017e-02,2.893600035336600304e-02,5.609378340339706004e-02
3.404178956509980314e-02,3.182747677654980401e-02,8.343199187710202691e-02
2.508104055882058592e-02,3.870362408156662049e-02,-2.356713352023452265e-02
5.430223678665360709e-02,6.151801806138685463e-02,-2.097961009481818379e-02
-1.641219677027362309e-02,2.774983415928405830e-03,4.125272012624805335e-02
1.965517965595520600e-03,3.811304848670039880e-02,-6.463864798197457850e-02
-9.195545703188203260e-03,3.445197077783122841e-02,1.315330628245974486e-02
-6.870104398989403116e-02,5.827900397458626869e-02,-5.036354205289205604e-02
1.774576269091633976e-02,-6.685092332342332591e-03,-3.947957938329985789e-02
8.858229132500619607e-02,-1.065240271022796226e-01,-4.446657178196750798e-02
-2.748103943059137383e-02,-1.751713661735335376e-03,-1.046057545502755010e-02
-7.394087492653680926e-02,4.162193707067553955e-02,-3.910041659946623949e-02
4.693005008277227087e-03,-6.432030415049411545e-03,-5.767334160877605337e-02
4.905777621636806668e-02,3.874243292266012911e-02,2.956599956798427672e-02
-5.696825436685192673e-02,2.021699434371016652e-02,4.741902087126863286e-02
-9.366855686829826666e-02,4.100551771066889700e-02,2.022579863296115540e-02
9.272492115870475948e-02,-2.654250826544777859e-03,9.300478033970119296e-02
-2.401928989170654463e-02,6.948313080772193853e-03,3.105920333326449290e-02
3.047506791625687050e-02,-4.276808929360744610e-02,4.880657034445266135e-02
2.757969746619224824e-02,-5.255556514008569852e-02,4.271132887432890768e-02
7.382661647419080930e-02,-5.558296387721698394e-03,-7.052458220420208812e-02
-8.476933027346844618e-02,8.355214328277933700e-02,-1.184903778508932491e-02
4.561758224414668578e-02,2.505458426071366720e-02,2.129819471090170502e-02
2.872533282119473647e-02,2.135719817734031689e-02,3.163661552330179760e-02
2.093493085561602685e-02,-5.561428742967235161e-02,3.234987125284765480e-02
-2.573097281261104222e-02,2.559818565161389031e-02,3.732081001473343262e-02
1.371850820476084275e-02,2.131167948358948100e-02,1.727559177600887855e-02
4.256225550808017538e-02,-6.011735375667737191e-02,-4.142044969339384042e-03
8.252406820267382120e-03,-3.010691883556418369e-02,7.856291327766780352e-03
-6.400296655368741677e-03,-5.751327462184157441e-02,-2.166501096829763842e-02
-2.722855447493221018e-02,-3.798006665963314654e-02,-6.674993609228537135e-03
6.635012869957952752e-02,-2.455396323678534637e-02,5.096933966617585993e-02
4.413163224849223770e-02,4.186771825864974567e-02,5.420378966457704839e-02
5.730271800368757357e-02,4.240856241941606819e-02,-3.818711565577609379e-02
-2.632458821510332697e-03,-2.226460392259876908e-02,3.934638925822888517e-02
-3.984123976118587179e-02,8.599094923039337507e-03,-4.624872671700245436e-02
-5.940354080003253101e-02,1.450438722508082777e-02,5.615468595571337235e-03
-6.542318943925361230e-02,6.506854819908645948e-02,-7.068960106043001290e-02
-7.791583652730798594e-03,-3.728491512105966410e-02,-2.944941787709504100e-02
6.819171764166180594e-03,-3.966354524482501587e-02,-8.062848034514813467e-02
7.184529232789302333e-02,9.844441186514085729e-02,1.069127907674060213e-01
-8.048396173960305558e-03,1.374028608933684260e-02,1.594741619057474117e-03
1.303161561294475211e-02,8.867647356638710954e-02,1.205349805316494743e-02
-7.364198742038105538e-02,-8.145082602286374263e-02,-2.926662809149773586e-02
-2.146973314685967846e-02,-3.833119395606591345e-02,2.511628036547565793e-02
-6.479963893793937169e-02,3.057442512408856464e-02,2.131541328637759011e-02
5.202909266508656816e-02,3.131916726021390096e-02,3.879440117059293480e-02
-2.545156990117945772e-02,4.364371887186866208e-03,6.272301660012111202e-02
-2.545109349800696655e-02,-3.936075911559598628e-02,-6.010420855118102368e-02
2.848954134693630277e-02,3.354499116059163344e-02,-3.187228482518617706e-02
-9.016504734941967192e-02,3.888549084562006874e-02,-2.307772542683653519e-02
2.762636564073459727e-02,6.628357321622467546e-02,5.927271656498871860e-02
4.547865051067533776e-03,-7.451301952164011977e-02,1.183499249627185598e-02
8.775391207796885695e-02,-3.087604957757370330e-02,1.296907486007247735e-02
-1.070836569395789729e-02,3.177359340971352974e-03,-4.725333118730963566e-02
-2.657680643201505363e-02,-6.292384525434960990e-03,8.321706877776790384e-03
5.943515000086137604e-03,4.012565262797980481e-02,-1.791548372747364670e-02
-6.483523635240669158e-02,-1.577264270076407168e-02,6.570221754902486229e-03
6.375454629649207616e-02,5.702508711618772819e-03,2.792597500361975252e-02
1.458936862057387887e-02,-5.637170559556797106e-02,-4.411997368945820563e-02
-3.342807035502586704e-02,5.150023875986634025e-02,6.600961255103651726e-02
4.166076686335293960e-02,-3.936433628674313595e-02,-2.096395744947189554e-02
-3.123304643110076315e-02,-2.425591435367878412e-02,-2.261336743577111244e-02
2.693834449220848526e-02,2.187551328689185670e-02,1.233727736415664300e-02
3.933268110468256945e-02,1.500397692009012044e-03,-2.012211977751602113e-02
3.166368884580408188e-02,3.951338911960626532e-02,8.802589787042493230e-03
-9.490320957996377371e-02,2.165537574491016928e-02,1.355198116651373449e-02
-2.611760673637136473e-02,6.280923753506212348e-02,-1.828255368815662196e-02
7.123550634088693378e-02,8.884972273284889865e-02,3.261712387714437583e-02
-4.312376864459124826e-02,2.067488563386498182e-02,-3.016756963584467377e-02
1.217279029776618254e-02,-2.761724436771574327e-03,3.949757174455494763e-02
-4.871380540408653398e-02,1.520135549318617565e-02,-2.063794340132135696e-02
1.793695378889210296e-02,3.849813409895833788e-02,3.653125766969293753e-02
-1.637153432659683300e-02,-3.523262749479184192e-02,-2.995423568000319878e-02
1.673116754429759476e-02,1.471668121505001307e-02,7.143749987351896702e-02
2.350649487408895330e-02,-2.129253018367316397e-02,5.504411113284954186e-03
5.694813256828688830e-02,-6.632670715891431090e-02,7.032981584490861958e-04
-3.672235235607473999e-04,2.854257224330692191e-02,5.946531085615384266e-02
-2.239200721995605881e-02,-3.216251912333072810e-02,-3.827075910088459116e-03
-3.904542168029699611e-02,8.537220858397665327e-03,4.974263497176004134e-02
2.370729365216455928e-02,-3.175699577807073598e-02,-5.887885329340013241e-02
-5.593764154643072854e-03,-1.427943672381689656e-02,-2.008969180659829837e-02
3.016922609541135974e-02,7.894198047413607255e-02,4.814473505948967114e-02
3.109796979032744546e-02,9.380972124876578444e-02,6.564970014501016193e-02
-1.018361112696304083e-01,9.018926143540035786e-03,5.585135204719082064e-02
-4.549791211178520062e-02,3.501558466128336378e-02,-3.883518587915702619e-02
4.162884149460691595e-03,-2.043044898359824835e-03,-1.861741086659809974e-02
-7.675513122699781886e-03,-1.110381094188148988e-02,-5.868189088705228059e-04
-1.871867896528057670e-02,-1.268354558252295095e-02,4.014502169433652179e-02
-1.922245029914898193e-02,-2.438660211355750396e-02,5.201083190732381373e-02
2.001123189075158099e-02,4.348686177569049960e-02,-2.548205435632894603e-02
1.832256668081226614e-02,-1.817445122487701403e-02,-3.378692692322834978e-02
-2.623333514003839406e-02,-4.535195223528503544e-02,-6.810732546229222861e-02
-1.001547564665438428e-01,7.249802842656860591e-02,2.925253488252882450e-02
1.113146259699492914e-02,8.262918303189832614e-02,4.212260076509431045e-02
-1.130421325610400998e-02,-1.796032997066588852e-02,8.010768608896683129e-02
-6.156954185409484887e-02,3.012286440559335671e-02,2.347418876819393208e-02
-1.244423477057158070e-02,6.546906427141307040e-04,8.591453137160470765e-02
-1.560486023795754941e-02,6.776061274011591085e-02,2.455262779130706549e-02
7.065621705051434998e-03,-3.921779888536693071e-02,-3.695516043918448817e-02
-4.033262773714164917e-02,-7.624640275822054669e-02,-5.384996502746406538e-02
-1.244901903250836273e-02,6.750227551609385909e-03,1.061493325419586228e-02
-4.294422495812127288e-02,-2.044851636043096624e-02,-4.342681269921198212e-02
-1.369657081728918591e-02,5.865876646876593686e-02,-2.406222074379606515e-02
5.766280830903338511e-02,5.448800012277221078e-02,-2.238571623092937279e-02
-1.870399691370966400e-02,9.555319033324929240e-03,-2.391552108185628425e-02
1.060947464525402797e-02,-2.661901704005768463e-02,3.086031463082852117e-02
3.084197171964753875e-02,3.754574084107389909e-02,1.095934282499829750e-02
1.609142018087110493e-02,4.979047500310541247e-02,-5.091366029472841649e-03
-2.373767695202338296e-02,1.507519578298180038e-04,3.050601372256787208e-02
2.219309604087424045e-02,-6.903964651575979217e-03,1.991109710721469112e-02
1.802327379206908678e-02,7.380163425345241668e-02,-2.591850926707995814e-02
6.206709825844506506e-02,3.429487942859258537e-02,2.862522653723018062e-02
-1.835152848022822414e-02,2.911917498402018245e-02,1.595043728548885612e-02
-7.222050946699225260e-02,-3.183219755006923279e-02,-4.146931564454017782e-02
-4.678336871644000333e-02,1.060403670199583787e-01,1.064097557420150449e-02
-4.612091397390976483e-02,3.263930680030992931e-02,1.431233337518782699e-02
-1.336379189562462814e-02,-8.375736689120565071e-02,5.245794345397439273e-02
2.365002117085809527e-02,-1.233068517876076582e-02,2.951005009734549572e-02
2.429955267529716398e-02,5.895474280830906300e-02,-7.581103342752186502e-02
-2.370469599278719058e-02,-3.584274229078549673e-02,-3.000113496317814016e-02
-5.931503978553583079e-02,3.243534482440797728e-02,6.111207971171555946e-03
-3.820598103283930763e-02,4.495271889420655170e-02,-2.677501760555249868e-02
-2.807948844008369485e-02,-1.545002310581918697e-02,2.675875309800514190e-02
2.411690519077783548e-02,1.294336992937059408e-02,5.268692880419387908e-02
2.479473826771996445e-02,3.709780127034542629e-02,-1.196055857618454239e-02
-9.047937284783237610e-03,3.973302746926696272e-02,-1.685182118562197299e-03
1.859802182112033769e-02,-6.796147421874959224e-03,-8.696329481403590467e-02
-6.068611649625420268e-02,-4.406156997173469930e-04,-4.566277146059535830e-02
1.528420013448580916e-02,-4.878068313465548818e-03,-3.419991137924402458e-02
5.223874322665472344e-04,-1.331364487066940411e-02,-6.274792118558247811e-02
5.740540257491050236e-02,2.281893525541852513e-02,4.655535350336659217e-02
1.185347347927150075e-02,1.748336403604540401e-02,3.972569712606254660e-02
1.255683492022591566e-02,3.574672260234860316e-02,1.240694052869005916e-03
2.254263116907860576e-02,9.949217967471809046e-03,8.022810136371624073e-03
-4.122097293346903106e-03,-2.265284827336189882e-02,1.942346391687506824e-03
4.581045433301210446e-02,3.211337472264296639e-02,6.660784823433782420e-03
4.314650806667217481e-02,8.695232890650464452e-02,2.167324380274836607e-02
3.741482732160239955e-03,2.478689539743963305e-02,-1.887890101854188332e-02
5.251490628788803988e-02,7.481656238878812981e-02,7.385829213058230092e-02
-5.923158675060257589e-02,-3.849728791928054561e-02,2.335372360585355467e-02
-5.887531356974695651e-02,4.933707216458557698e-02,-7.289465888022989525e-03
2.641983803670436282e-02,2.100416360826171461e-02,-2.420371155392019372e-02
1.600531152615688318e-02,3.626169233738749803e-02,-1.368754854956396802e-02
1.118890618003584581e-02,3.899123810330516748e-02,5.398007759142724182e-03
1.354526778146805666e-02,9.352299107884445850e-03,1.836201081030734705e-02
4.288369828316131865e-02,-9.389716502044155588e-02,-9.746550257881389512e-03
-5.256230371069125357e-02,6.667755096060035830e-03,2.959091888310377144e-02
3.627675592216693563e-04,-3.597120884528508256e-03,1.551448143257887734e-03
2.668686549102619945e-02,-4.435668928096615782e-02,-8.598863339347130597e-02
-7.482812138801396562e-02,3.559141629605120510e-02,5.110170053994072398e-02
6.329191230868906615e-02,-4.834964818453095850e-03,5.572765255936812032e-04
2.653550141839900595e-02,1.110409363886716294e-01,-2.623719314675394126e-02
7.279777850590169776e-03,3.372431520674930294e-02,4.621467768287711164e-02
-1.886025079212777164e-02,1.864153992539118593e-02,1.396793005622441221e-02
3.318443626155075099e-02,6.874205486870134385e-02,2.351868790412905280e-02
-1.028671095635564497e-02,1.410041988681519885e-02,-2.148925933014446399e-02
-4.787047381422943060e-02,6.482499235316996344e-02,-4.499655614540436915e-02
-8.457660922827649891e-03,-2.366698983290803013e-02,-2.374222437123120130e-02
-2.184245892400550268e-02,4.459738533936118132e-02,-4.369362253193710688e-02
1.168135309035553578e-02,2.871304086458777161e-02,4.109625332997717678e-02
9.896177891702080676e-02,-1.767164959600421798e-03,4.527257769052551485e-03
1.944634411231758054e-03,-4.162592302397495614e-02,3.682942732862967000e-02
-4.202273773836910642e-02,6.794229629568810866e-03,-4.364716013493087632e-02
-1.015802748477356333e-02,2.327972371310305794e-02,6.241257661450234917e-03
3.948838469406713847e-02,4.051866486930304906e-02,8.904661085916021346e-02
1.747929180026242327e-02,-1.953779380277760255e-02,-2.130803475454287176e-03
-3.581841533140794898e-02,-5.526137847302967782e-02,-6.272812174998089463e-02
2.226368896949409981e-02,-3.020534670361407770e-02,-3.370095058127197535e-02
2.738890404038441667e-02,1.989385638054040790e-03,2.240271889136615999e-02
3.879532877467685957e-03,7.045748465188478304e-02,-6.675014960423543420e-02
-2.839734048728875457e-02,-1.204893935041675551e-01,-5.096661269080322854e-03
1.325396238934246629e-01,1.262652636942228693e-02,-1.602241682399297221e-02
-1.781677856504878046e-02,7.050453792554370325e-02,6.572679356873336980e-03
-2.437026200326749235e-03,-1.911210031675234303e-02,1.300785401506156409e-02
-2.042563301040932911e-03,1.689907786710862728e-03,4.513961456464877370e-02
3.484107068169352978e-02,3.823906470400764701e-02,-2.691176013540844125e-02
-3.702803774895781219e-02,1.886044991460953529e-02,-3.925471177759671387e-02
3.880181277684452423e-02,-1.099060156388436370e-02,-2.572436826437821816e-02
5.263836578369237434e-02,-7.714166202626242773e-03,-2.891001701749935926e-02
-4.564389280697918327e-02,2.730106619341509180e-02,-1.349061323204167259e-02
-6.193673925864210186e-03,5.230889502979851891e-02,4.414781589000104506e-02
2.373376448103509118e-02,5.722262239033620683e-03,1.570997946546114077e-02
3.654478318122823810e-02,-1.369839804739827376e-03,1.176357441024876438e-02
-4.404192086971132902e-02,2.577233234652655941e-02,1.908157874284106435e-03
-6.394717660487461708e-02,-3.486216160845781453e-02,-4.421897545335398000e-02
-6.357079705739028704e-03,4.985404348771019581e-03,-5.613213601934604301e-03
-1.474695978949934483e-02,4.220472743912529606e-02,8.908962707852349783e-02
-1.808154070719987993e-03,3.358642359489617119e-02,1.633294816995745774e-03
3.488770314987589549e-02,1.708556305335723682e-02,5.544270020136896765e-02
-3.839801612112136303e-02,-6.799145165667441933e-03,5.718698342379600202e-02
3.728243418649254681e-02,3.882780137920825020e-02,-1.048665913468412904e-02
9.884902065219325351e-02,3.286466714538294198e-02,-3.786414945736688714e-02
-6.074568365661747044e-02,4.461752538883405339e-02,4.592626347233513123e-02
5.365522836223229723e-03,-4.217597192678259471e-02,5.179576570097806087e-02
5.399186636695472302e-02,-1.102818547489768479e-02,2.237646505760515145e-02
6.131901779984454126e-02,1.831982460644359517e-02,5.986344473891524326e-02
6.842922173280869234e-03,-6.631595040885235326e-02,2.605564049303785504e-02
-4.421618960686431177e-02,-2.643598586959360064e-03,8.699280568588611817e-02
-4.798807995179020514e-02,5.271184761167992811e-02,-6.868952045566847908e-02
6.932496036463639544e-02,-7.131488082198077227e-02,2.130198499386153771e-02
8.292286136672908509e-03,2.784390187445451303e-02,-1.850158724984980393e-02
-3.482704108861700565e-03,-6.080648418837339420e-02,6.203623745864472044e-02
5.158640111943444545e-02,9.076390512830517787e-03,5.677567208764492356e-03
-6.931065353656254424e-02,4.276878199383497836e-02,-3.298021722482866180e-02
3.518543214165672454e-03,4.031011313364971788e-02,1.578314916033444343e-02
1.201122143898719283e-02,6.548820828610905920e-02,2.704370423482319735e-02
3.186976149224458182e-02,1.043676956083826150e-02,-4.138836774115932371e-02
-3.220610677773768499e-02,-4.492613536639599586e-02,-1.696182729440420811e-02
-1.306759647950572235e-02,3.474872548632061686e-02,1.230422842603738354e-01
3.122293469058794527e-02,-3.966948000117659009e-03,-1.673457713453524801e-02
-8.937108578258749769e-02,1.083314774381068275e-02,7.468658864653828552e-04
2.240063355221401376e-02,1.178623826038869143e-01,3.795144978091931354e-02
1.354419150686713910e-02,-1.073593074735108843e-02,-9.093358157892575053e-03
-1.682175953173871766e-02,-4.524526265520385088e-02,5.136244468298740290e-02
-9.176046491304253039e-02,6.968875705608082449e-02,3.924652918677024732e-02
1.872133330416795444e-02,1.709296320910269618e-02,-6.467116378583261278e-03
-3.989773136238005530e-02,5.217539134343315843e-02,2.091209195765608361e-02
-2.948173346795705460e-02,-1.465120473153525569e-03,7.237195205063087257e-03
-1.105552553651087747e-02,7.388269564549726498e-02,-4.541169671599244034e-02
-3.241885945158175242e-02,7.904113626571536433e-02,-1.851969692335890885e-02
3.071648941538399416e-02,9.224362208614016526e-03,4.444678021885614672e-02
4.088209049423916636e-02,-4.042403650091014322e-02,-4.725074843759437954e-02
-6.395279587223015594e-02,-2.415407565860429751e-03,4.070945702762388679e-02
3.968135901949119276e-02,-4.324222724328412315e-02,-9.604945301407592784e-02
-3.993200464551551615e-02,-6.947716561653667633e-02,-3.353307163596084411e-02
-2.744995157125685453e-02,-2.757463660404175718e-02,-9.754266189763648176e-02
-5.489371519161862639e-02,-1.984173025288147110e-02,1.519900535898103568e-02
-4.335076427499191115e-02,-6.243856883726209978e-02,2.745063752428676066e-03
-2.258665052265759754e-02,-6.743510223723554742e-02,7.629737333528563425e-02
-1.170679784854429875e-02,7.949872244426514634e-02,-3.875957966057581167e-02
-1.405632831133622578e-02,1.434727978586035173e-02,-2.003680094597915309e-02
9.783573948024035238e-02,-4.013818682962135009e-02,5.003918753027074284e-02
7.906518106304405782e-03,-5.431769896492300020e-02,6.781293622171723733e-03
-1.361959435014270178e-02,-1.773307123826896661e-02,-5.326658918834890726e-03
2.822231882120679585e-03,3.372712562866672474e-03,6.353662951834332384e-02
-5.458838367803103830e-02,4.382813415865747381e-02,-4.944604887641366672e-03
-6.081893542895690750e-03,8.819406738842155979e-03,-5.886731366190051801e-02
3.157075469868059897e-02,-5.151716951338994321e-03,1.608248893699863388e-02
3.969796986598158467e-02,6.057797398531843125e-02,-1.168311200384720451e-02
6.276638434186650184e-02,5.689744197012304959e-03,4.489546444561456906e-02
-2.981536638336048511e-02,-5.284643634861022066e-02,-2.743852468871861572e-02
-3.558363484315563846e-02,-6.593566874762299412e-02,-2.085993030913362370e-02
3.546202492067398321e-02,3.122547438718832353e-03,-1.125182041331210074e-02
-4.493460570989241815e-02,-1.373792223204509978e-02,-1.565935329460806796e-02
-1.489285314233519328e-02,-2.731185234749087740e-02,-3.889098799083691438e-02
-5.689932905313798556e-02,-8.466832945484793413e-03,4.893414543229031299e-02
5.091588509628603570e-02,-6.740870664328798070e-03,-8.609403227307514672e-03
1.972469763500200868e-02,2.259734314111664158e-02,-4.752175545457790196e-02
-4.261644960373432017e-02,3.822031885521358363e-02,5.605657099180171021e-02
-8.299119371738689077e-02,-1.536623091622920170e-02,-5.506034944047048796e-02
4.506278054802209665e-02,1.029507600453029303e-02,-2.070129987400691138e-03
2.618213663074489897e-02,3.246404399705507537e-02,3.824317072317302141e-02
-1.542833914514114661e-02,-6.467814382324978129e-02,-3.815159187772932531e-02
2.489915494326542036e-03,-3.329404024986439004e-02,-5.299382336723397480e-03
8.394127308907345375e-02,6.065609505334769273e-03,2.515608759465041283e-02
6.478604944414256828e-02,-8.274187484493619391e-03,-3.745200804391266014e-03
6.302720933128392634e-03,-2.803395459343562077e-03,1.317100437700689276e-02
1.655860430543388412e-02,-2.135070746523685514e-03,7.856714579221184269e-02
-2.820579769298564576e-02,-1.015666226661667698e-02,-1.257990450593809810e-02
-4.342669052905658023e-02,-2.672668733760477297e-02,-1.388126646677794764e-02
-2.941164286003565206e-02,-5.974812346588045942e-03,-6.179299858402854256e-02
1.327455917127687290e-02,5.977475156796901307e-02,-5.387928972099111785e-02
6.504672681079294583e-02,-1.999168379653697494e-02,1.479917097110059442e-02
4.025984010913298550e-02,1.008690742692456253e-02,-4.650150040810013818e-02
-1.908324703154287011e-02,-1.396218251286130557e-02,-4.767630598389074187e-02
-4.111558617282264072e-02,-2.231502147822687909e-02,-3.402481848260135305e-02
-2.356154826667412536e-03,-3.514640446934544360e-02,3.471840889260440627e-02
2.805680613842424787e-02,-8.161745665984324744e-03,-5.282003385136591761e-02
-1.019670721466235941e-01,4.815098569690996755e-02,3.648948440208105853e-02
-4.399177723739376711e-02,-7.913542798183664795e-02,-2.031749271606543908e-02
4.549589524880415931e-02,-3.112820171197582669e-03,-2.095783229140340750e-02
-3.053857962225438663e-02,-2.012903168026951295e-02,-1.215119326539949515e-02
-7.928224205148777515e-02,-5.034708819225953980e-02,-4.642144995302184551e-02
-3.957196605715525978e-02,-1.221703614283463531e-02,5.053752577879581237e-02
-8.728390174657749134e-02,1.594006300306402904e-02,-2.431693084055109623e-03
4.823203929315583727e-02,4.664940019055453108e-02,2.103808460475620895e-02
-5.701987768594133504e-02,3.016104135196556735e-02,-3.526812539133912516e-02
3.357208979183605446e-02,-5.860842480826786161e-02,-1.415414935645508375e-02
5.226335642818687524e-03,2.789434890351270065e-03,-3.591765710188859345e-02
-1.297135317512315700e-02,-1.462652982021847570e-02,4.299158184828627549e-02
7.246441164352267206e-03,-4.607237759430272278e-02,7.686434430589131339e-02
-2.492831667427885395e-02,-3.480027835805249437e-02,-8.584474166246984506e-02
6.362073975441370766e-02,6.890715225472793248e-02,1.211473810941069915e-02
3.171045393781525557e-03,2.551811892710209931e-02,7.338572243765506542e-02
-2.258995215378266190e-03,-3.486957635349442752e-02,3.517578759150615658e-02
-3.735502827208345145e-02,3.239307842207906490e-02,-5.581818313331563669e-02
-3.106177215399682015e-02,1.100117824326465356e-02,7.054755151289351933e-03
1.426026071079131326e-02,2.447451985636284535e-02,6.562197435703084891e-02
-1.098502770132005028e-02,-5.774741933438519437e-02,-6.757912903249096992e-02
-5.277429881264143058e-02,2.049192580703101951e-02,-9.217648534802257154e-02
9.656232444661176639e-02,2.758810386663562361e-02,-9.049710382687815857e-02
6.065229723064922279e-02,5.907841742578444529e-03,1.745693038673010872e-02
2.940837936316491319e-02,-7.327043055804784155e-02,1.521468919316935724e-02
5.439507868384523687e-02,-2.532960225621579825e-02,1.729495290292286033e-02
-4.101887103766672232e-02,-2.912015488730195639e-03,4.326244219072982594e-02
-3.550637061001830908e-03,-7.161745362748159205e-02,5.433362357134138843e-02
-2.832910105921962809e-02,-5.788421022065787236e-02,-2.149291322476908748e-05
6.448111053478873533e-02,-3.850861076862561322e-02,-3.185004964026898200e-02
-4.497064369563918279e-02,3.605590125855084177e-02,2.923138331276050120e-02
-1.832216727185614902e-02,-1.688144629897991855e-02,4.093006958844368215e-02
-8.854382590125640939e-02,-6.988055786937259761e-02,-4.542918137622923430e-02
1.065145527269064675e-02,-4.884394149046927813e-02,-2.998602405582990755e-03
6.169028063338681533e-03,-2.420093778888723901e-02,-3.325766985502014161e-02
-2.075032156763891716e-02,-1.440422392320812872e-02,-2.140940847617059731e-02
-2.061035016542351120e-02,6.235775223869833433e-02,4.287808960653249207e-02
-4.784079075392570074e-02,-6.213171136132776551e-02,-8.787872475718264131e-02
2.053603813006048620e-02,-3.352261282183563451e-02,-1.488808546990235543e-02
1.068210676157185443e-02,-5.609977886379884787e-02,1.633518950588872323e-02
-7.043622550574459018e-02,-5.373752921808960803e-02,-9.898496461120576129e-02
2.770565047369970366e-03,-5.542949807144125114e-03,9.949957371912776776e-04
4.232885443234460018e-03,6.352751126961302119e-02,8.167695165637832433e-03
-2.903746620336217221e-02,3.378188892274914396e-02,2.132643134266664145e-02
-1.110617473676334989e-02,2.717176281577486641e-02,8.005788785830510179e-02
6.593312629433370486e-02,3.919769481436671810e-02,4.748883086218427113e-02
3.853669794950612126e-02,5.445210984464023130e-02,-3.029079838831197011e-02
-2.385990361072153065e-02,-4.357355846801887200e-02,-7.060975562879606704e-02
-3.761237300564355263e-02,-4.214459794910886681e-02,-3.607546123997960180e-02
-1.801997759054958792e-02,-1.742497892621631614e-02,-1.710575498647281048e-02
-6.144540250023605016e-02,2.719552211288570054e-02,-6.734440296678127769e-02
-6.644236798920304110e-02,-8.963765991910378761e-03,5.933561652095162113e-03
-2.838074993110498156e-02,-2.168913675817735892e-02,7.527884449520952370e-02
2.297837153027634458e-02,4.133211266663761735e-03,-4.300850914963164767e-02
2.118196119818030812e-02,-2.832049602829314963e-02,3.376081935016456148e-02
-4.810976578718697758e-03,1.244352367294833568e-02,6.218528500268162562e-02
-5.141215533757048303e-03,-6.402776773657715970e-02,-3.852861288325898359e-02
-3.784362095717563185e-02,3.892302809871017039e-02,3.947170338124234013e-02
-5.304774446569836960e-02,-3.272953098011557177e-02,4.337908448803562411e-02
8.659029500508767796e-02,1.024808050496769408e-02,-1.629365018828678874e-03
-5.705214006924003850e-02,6.664155373746320776e-02,-8.273478639406422683e-03
-9.794975614776658956e-02,-1.536483752158580678e-02,4.211708783429059938e-02
-9.607953488568583833e-03,7.909742121187149366e-02,4.618689601378715009e-02
-1.037123986975464762e-02,2.103599553889740330e-03,-1.833321587361894794e-02
3.133460952853640152e-02,-3.343341983004444185e-02,1.879161519033147043e-02
4.621361711538506979e-03,3.175841345659911885e-02,-2.152879427397560996e-02
-2.858941411984529217e-03,9.409199792078000446e-03,-9.951129843717852752e-02
2.362861264537554143e-03,-2.938601378271757120e-03,4.495794364596968941e-03
-1.102278140847614829e-01,-3.100150370221770209e-03,1.686625380681433615e-03
-4.884094117414058966e-02,5.004816877848597412e-02,-2.861996022649004423e-04
-4.614822114834021827e-02,5.565158069146388525e-02,1.441527745925908280e-02
-5.368702877304216622e-03,-5.183473464090847943e-02,-4.449888378140271633e-02
6.593129443904220677e-02,5.396798828998981834e-02,4.329587935877296859e-03
6.480241276652905225e-02,2.168339153030574354e-02,-5.548971850423518176e-02
-3.783291103945675242e-03,2.894594018839981124e-03,-3.052786717823973220e-02
6.872444632348152782e-02,-5.893532127278207355e-02,-2.032261301687010926e-02
-5.484765517634141579e-02,4.021162211845797502e-02,-7.959528488293383941e-02
-6.886557894580791483e-02,-8.429486676128587069e-03,-3.092118385794176763e-02
-1.072152944251205178e-02,-2.142155608834753547e-02,2.046452895839081382e-02
7.923289793099394518e-02,-2.387445582431607649e-02,5.567493010345492439e-03
1.234614082771091741e-02,-1.822032837271733707e-02,-9.678395535433868477e-03
5.555183467659421254e-02,2.563697876381541146e-02,-4.930850773071319276e-02
8.782543143551287471e-03,-1.284591617085519000e-02,8.035727904120393240e-04
6.027222154594197301e-02,1.077572599706353232e-02,-4.247128663568747013e-03
4.493778058619871119e-02,-6.091669868232562311e-03,3.873164751868948125e-02
8.002506412855627665e-03,-1.542377364406351085e-02,4.172125669061799505e-03
-3.201623167795865105e-03,-4.006407459688722528e-02,-2.043127812242470382e-03
4.668171233660328018e-02,1.391337162730801186e-02,1.356484132373772002e-02
3.543263839745492555e-02,1.445025791953983597e-02,7.878409726986168593e-03
-5.945552063437868455e-03,3.042484899895652947e-02,5.278759831923569151e-02
5.115579153659612771e-02,3.422248399363167493e-02,-7.207688708112998388e-02
4.263973650230690193e-02,5.091532016080257267e-02,3.701538637354395700e-02
4.188235876558041304e-02,-1.174259868899013223e-02,3.384066883027080086e-02
1.329889243990014548e-02,1.652990592923926985e-02,-2.579608727618581607e-02
-9.571459140198690374e-02,3.521600032541358227e-02,2.245401327163680429e-03
-5.185197943606372623e-02,-2.821348414447487699e-02,3.935226877390357592e-02
5.906013884902667349e-02,6.004037721594310262e-02,3.681616441645118448e-02
1.204292602168065621e-02,4.905661523346750014e-03,6.651339293227441496e-02
-2.620142463821147766e-02,8.616457369890766563e-03,-6.732164899700510130e-02
-5.872381940555634894e-02,6.220459238011751685e-02,3.546091293857975280e-02
5.280775052947515175e-02,2.727491777448836849e-02,2.894727822780892787e-02
-2.463491411589188718e-02,-5.321563360467895798e-02,6.311123118715220026e-02
7.005816593132530024e-02,-8.628893674720495080e-03,3.916211771596383312e-03
-4.874662607266765785e-02,7.667413443538041891e-03,3.307985151053290801e-02
-8.674055965614858865e-02,7.087491849674779770e-03,-3.906169399030477718e-02
-2.703518863367665101e-02,-2.071100789034537384e-02,-5.574051364045027462e-02
1.442758234193296761e-02,-3.022066023046916794e-02,-5.319404102150423336e-03
8.362871865349658096e-02,-2.685340554229362353e-02,7.928740377884980345e-03
1.618100897237906288e-02,9.648195614040164236e-02,-2.040084683576767061e-02
-7.070386576728286687e-02,-5.336222628494822345e-02,4.198174982557539847e-02
4.205510443145513838e-02,-3.250970362568691985e-02,-4.476891817699208548e-02
-4.545777919179025406e-03,-7.227292946537729190e-02,-6.650676226020224568e-02
5.324206447035873674e-02,-1.631088907470718691e-02,-1.076266230795969517e-02
7.105462057593688041e-02,6.130017573001798545e-03,-2.892573194669509351e-02
3.603014029029975342e-03,-1.221464155217323773e-02,-2.906274899070971848e-02
3.181542620714167269e-02,-7.011159073822838261e-02,-4.837621567858760296e-02
-7.314328457222919397e-03,-1.132504968712773168e-02,4.171602453391210635e-02
-1.738366048698258490e-02,-7.275545876358288644e-02,-5.208450333724505381e-03
8.150240464791819617e-04,3.142389344162397485e-02,-1.078543307057813912e-04
-3.097749374669233908e-03,1.330123092005956048e-02,7.710419582006669548e-02
4.937429529206596723e-02,-2.170721200880137286e-02,-5.134806724479255846e-02
2.517680412265320411e-02,3.527807182572767486e-02,3.900448263723489684e-02
5.915042152762648581e-03,-2.282142236873507118e-02,-9.720585511123006062e-02
-1.485563164942867442e-01,5.195168793469680940e-02,1.063154181301521201e-02
6.959495759804393451e-03,-2.305887786216619453e-02,-4.902770931667684712e-02
4.953492126612639435e-02,-4.935170468904755310e-03,-1.257373512433556306e-03
1.240771508810241744e-02,-2.796058789400292580e-02,2.835999899023115139e-03
1.654527829432140412e-02,-6.700222700827582201e-02,-5.894539067599326165e-02
-1.181069254554631583e-02,-2.685858086160944347e-02,-2.185604768794820532e-02
3.061066370456195715e-02,-6.555994053906924468e-02,-4.196493384902198059e-02
2.187644383180480448e-02,1.304924897417576897e-02,1.672516774801186294e-03
7.946611253362377558e-02,-9.123944258350582398e-03,3.519967861458535990e-02
-4.126081007945595069e-02,-6.915663995576806821e-04,-3.958537362588353953e-02
-2.951854942093623882e-03,-4.201488408291390725e-02,-3.748104421450054041e-03
-4.088239270243071433e-02,-1.787716607963531559e-02,-5.287163198448606612e-03
9.166963405915580509e-02,3.715892228176804341e-02,3.951601364113672965e-02
-5.804239543327476686e-02,-2.730337296751146614e-02,-4.639198050766842052e-02
6.771224828455008060e-02,-5.220965015326112235e-02,1.418236067145681178e-02
-5.135186340603890842e-02,-2.905148340701095219e-02,1.376149832457837681e-02
2.901291517338326284e-02,-1.876079044861946044e-02,3.616324851521106332e-02
7.726368940656661022e-03,3.401788713221090554e-02,-2.363071961973483084e-02
-2.240425394512089166e-04,-3.371042102111326821e-02,-1.323763685554843646e-02
1.555531727229061967e-02,-2.756614186687467508e-02,5.570794899355436397e-02
8.997330150308534280e-02,-2.302010346566174884e-02,-9.819142654953684490e-02
1.205671606999429366e-02,-4.423001289454539520e-02,-7.243054944494334291e-02
-2.066130240898300338e-04,-1.469102850318902871e-02,1.330422918144167146e-02
3.139550795037567010e-02,-2.476865411044852638e-02,2.384850995247882882e-02
-6.459868642310205578e-02,1.081527325282961513e-02,-1.435290247201230279e-03
-6.203369083098088377e-02,-2.386713007322202942e-02,5.248408514979047840e-02
-1.112406532717729116e-02,-1.494607171725239637e-02,8.613294004998772735e-03
-3.332299219817014962e-02,3.482993614991636289e-02,3.277896998348060059e-02
-1.330428886328660285e-02,-2.500800362334405433e-02,7.370901139819834025e-02
5.347121041228174772e-04,-3.048601073079991106e-02,-3.912783327111613377e-03
2.929935936022703274e-02,-7.525809282531298328e-02,3.714500984925912797e-02
-2.376729257077307353e-02,-4.124908774739385886e-02,1.880463368782093678e-02
8.628451482575237586e-02,-6.518812853856624512e-02,-2.493926499339568781e-02
3.683591913913208254e-02,5.054138666743111102e-02,3.676275049308590226e-02
1.000180737363947324e-02,5.044310215150498572e-02,-2.821442771016134318e-02
3.161277618305282505e-02,1.077535081203704892e-01,-5.208181108727803765e-03
-3.853919804517227238e-02,6.121920192176700214e-03,6.416382134235584789e-02
-1.414211016784582041e-03,-2.543841244144593589e-02,3.498524122565632027e-02
-4.068034335254113593e-02,3.997937643241868122e-02,-4.263911729107461995e-02
-1.866958158195532527e-02,4.448225811522294598e-02,3.743990619036886153e-02
-3.195230433018119917e-03,-4.777627155110238111e-02,5.380292029726397446e-02
-1.370456086028725047e-02,-3.597685789981579490e-03,-7.846442694276413443e-02
-2.958423453909928696e-02,1.071951890373617350e-02,-1.047638804155198722e-02
-7.484248506004666235e-02,7.309442209065572515e-02,1.555233197567157909e-02
-1.721999273926235960e-02,3.957751908528121462e-03,9.721275766227140125e-02
5.253873435158916416e-02,-2.137261754411747330e-02,1.772373864538061630e-02
3.663479516722095014e-02,-5.722412375815905811e-02,-3.993077297917057601e-03
4.638274121772541225e-02,6.578931355768652400e-02,6.887609324903629093e-02
-1.535528415416612807e-02,2.120299153219449770e-02,-2.175190344873285248e-02
-7.611847659303704050e-02,-2.701108201141771969e-02,-6.491624950009244541e-03
3.228010662991032814e-02,-2.292280226370441848e-02,-1.008770082489865091e-02
-2.334052072522996985e-02,2.237641455871553636e-02,-7.982921039711389499e-02
7.203654277490970093e-02,-1.998566694515386752e-02,8.637352150872041473e-03
-3.002759178061695580e-02,8.566742184876048952e-03,-4.695330168396313550e-03
9.532407815723968961e-03,7.040283405459325447e-03,7.581506469783828861e-02
2.339500627489981416e-02,1.063522512367069163e-02,1.794312795257155257e-02
1.366709073490713668e-02,-5.180387399295550283e-02,1.180665578393690421e-02
6.265676423548183910e-03,2.530397986703776872e-02,1.887758861255964260e-02
8.962174434174730725e-03,6.074270019930638059e-02,2.380644681958623762e-02
-4.937835756101248419e-02,1.610647548368781407e-02,2.545644843207836572e-02
4.339813724658792005e-02,-3.354680169743512463e-02,-2.026714240320890564e-03
5.689192419425696812e-02,4.914271131919727836e-02,-2.090854361534428066e-02
3.701767926215825816e-02,4.768875753202710122e-02,1.259341842729213602e-02
6.121573103317682479e-02,-3.010603735316237997e-02,2.148663379551739739e-03
-5.095072168902354745e-03,-6.196610556533172637e-02,-2.442908697682710101e-02
3.940782426644136305e-02,-1.688254207704776091e-02,1.242134407379982299e-02
1.278728938240111107e-02,-6.929240106719639081e-02,-6.225513901497543162e-02
-5.100279880754374218e-02,-8.127159440942068047e-02,-1.125924677462814731e-03
-5.106421631682640794e-02,-2.020237010969107294e-02,-6.304264304145054676e-02
-1.439166819061513461e-02,-3.488314217920694682e-02,-5.191640493643346482e-02
-1.457708845570720654e-02,8.198893892812359266e-03,-3.083870071125634910e-02
2.974619280496226034e-03,3.812879584660214954e-02,-2.570280172067134286e-02
4.686660282673547895e-02,5.518892084520049014e-03,-8.331454698649776169e-02
1.603356777827542531e-02,2.005490661391285193e-02,9.884314484663097797e-03
-2.054975786705794116e-02,3.311849037463922285e-02,4.854243174438323261e-02
-3.348206826591666047e-02,-2.773717062710971334e-02,-1.312118842018967536e-02
-2.298699311479088236e-02,-4.954035445429437468e-02,-7.491478275291431344e-02
4.483952194676983638e-02,2.299387853151042826e-02,1.706553264854082999e-02
-4.479206397501386827e-02,1.344616201394822040e-02,2.869268310089777285e-02
3.449350404743902615e-02,-5.843649300728401275e-02,-1.139461381453809284e-02
-9.470497724478381396e-03,-2.370035031223562821e-02,-1.952744411376419048e-02
6.378117172431210791e-02,1.151014590703395256e-02,4.111941347517342193e-02
-5.576174975574750559e-02,3.194533719910522956e-02,-1.932666314837627741e-02
-5.791531423397112271e-02,-1.911376453071656281e-02,4.463150383800888743e-02
-5.835561848227201892e-02,-2.586708259537591481e-02,3.927103725875553952e-02
-5.810002206526376084e-02,4.412338161040777092e-03,-2.692325205310200018e-02
-5.560169138556706608e-02,4.644358484042471896e-02,-2.324781356933315266e-02
-4.448254351986714872e-02,-8.410367100457115472e-04,3.941154569350528020e-02
2.332685658733540252e-02,4.261277875292779349e-02,2.675594447009736754e-02
-1.243137630345755862e-02,5.679153841642784611e-02,4.679253277754882173e-02
-3.082169184757049818e-02,6.882788383283790223e-02,1.433749862676170390e-02
-2.337907345165898126e-02,-4.935234179494848300e-02,4.733604196242956197e-02
4.693117832060505340e-02,4.580021709134247249e-02,2.576688713161239680e-02
-7.499586925046723695e-02,-4.185403735873077617e-03,-2.960329929771933141e-02
-6.129326193578652632e-02,8.604097202841570757e-02,-3.399502608232512352e-02
-1.618108595257975249e-02,-1.562662723215044874e-02,-3.428679294171043529e-02
-7.105609123499997959e-02,7.758592124590672767e-03,5.592598592131146906e-02
-4.712664285686843368e-02,2.585099628497506546e-02,-1.527003673391596518e-02
-2.517177942429482326e-02,-2.201198177923706714e-02,-8.130120914456588632e-02
-5.970301143079095180e-02,4.482845106275966385e-02,5.779687163004341988e-02
2.750721985022636443e-02,3.007376095029109381e-02,3.125738622781478598e-02
-3.022144751414247710e-02,3.867893389624187800e-02,-4.230259344867599164e-02
2.817808074391213446e-02,-1.480319056115970283e-02,2.924928539343281050e-02
2.976351506789624499e-03,-2.753656386399817857e-02,7.623234783585772223e-02
2.961998355675698677e-02,1.059961051002867582e-01,4.293643611803068388e-02
4.767861075229126028e-02,5.996749072160863225e-03,-6.399806747180297739e-02
1.126015327661320647e-02,4.169683168801654495e-03,-8.345837565336464148e-02
4.966440176833009090e-02,-4.703439281095465191e-02,3.442371233455750884e-02
-5.284294284366240768e-03,-2.003957806181289047e-02,4.177544026815551564e-03
-4.429706155727462097e-02,4.942369287651782878e-03,1.380116644765583094e-02
2.870242850134955420e-02,-2.391407225627674438e-02,4.746166833845527622e-02
-1.882755248397974604e-02,-4.035522848008646357e-02,-4.159272507616912362e-02
-2.446760230317674301e-03,-8.125475482613494366e-03,-1.891297402945839312e-02
-4.749495254412464812e-02,1.044170460114321073e-03,-7.475114637324452478e-03
-6.940352136811295258e-02,-4.671164291674399262e-03,-5.336916687974809642e-03
1.377796048727240527e-02,1.430974253432861290e-02,-5.350954741361978878e-02
4.127771172711437037e-02,-7.174212305014719682e-02,3.543411765602842017e-02
-5.663943203622175127e-02,2.086633852205462686e-02,2.171974528673574836e-02
-3.124458510960752278e-02,-1.157224332521329495e-02,-5.189673932892766711e-02
3.529204064345595193e-02,1.683799830606819495e-02,-2.400468732829244903e-02
6.261303502555026768e-02,4.721799213843692195e-02,-8.638271879914358187e-02
1.014912777789756665e-01,-5.106098224571910954e-02,-1.520740921561165339e-02
-1.916127259614510900e-02,5.241198489989285642e-02,9.802870965063027742e-03
-9.766426506467526525e-02,5.702317672426847339e-02,1.325126381479364325e-02
1.610736312349949836e-02,-5.129179766309380911e-02,2.443363781297789444e-02
-4.827495084209596637e-02,4.791166732260079830e-02,5.487855707145419121e-02
3.353653947946674124e-02,-5.532188692854499851e-02,1.778719404060382162e-02
-1.482829380271975632e-02,4.153146632834940621e-02,-6.541537145670335562e-02
5.534702403753417876e-02,-1.950170215035744448e-02,3.845118321198991249e-03
-4.618807890620298118e-02,-7.061093609248375591e-02,6.101935981207640830e-02
-1.853069840451594219e-05,-3.493016442979855751e-02,7.343832483923166954e-03
-1.804612493256062267e-02,3.393493261621140927e-02,3.967123901047315410e-02
2.094948793077421392e-02,-6.122795561561159006e-02,-6.894436396068582325e-04
-1.194518801711409728e-02,-1.433851912241142581e-04,-1.409160781087819003e-02
1.845011284118052222e-02,-1.572198786285156774e-02,-8.573227423495230481e-02
1.467422444754092059e-02,1.619318310005369785e-02,-7.111380159633779764e-03
1.483251881221508625e-02,-2.953470870641151588e-02,3.256347776569203795e-02
-2.885404198498170772e-02,1.630227961317308114e-02,-4.490462142550249135e-03
6.873595614723415625e-02,4.150990324980640550e-02,2.702564681489851364e-02
6.782330259535690464e-02,4.146219142674091584e-02,1.634086767985126060e-02
2.922464439640921202e-02,-4.367726488003319252e-02,1.685919946743704226e-02
7.182060346549123953e-02,7.523575430163245703e-02,-1.288245107906270739e-02
-1.737649819088198100e-02,-4.653631852428873061e-02,4.240291322699727555e-02
5.985990691868932866e-03,-3.914292305345647149e-02,-4.872980220885834643e-03
-4.307067906722941708e-02,1.673814833620553694e-02,-3.531572915984899225e-02
-2.386484803784735126e-02,7.718238249995111599e-02,3.205991225203214112e-02
-2.343718592997093546e-03,-4.180393350543780764e-03,-5.718349988447431198e-02
6.979435385383529755e-02,4.305630713355248357e-02,6.819594894991071188e-02
5.131686072923967445e-02,-1.458652404628353778e-03,-9.000090204191091292e-02
2.424726761666529465e-02,-6.293205704374472964e-02,7.598652331895429379e-02
1.274888067708463378e-02,2.041234311213840913e-02,-2.296925772298576834e-02
-3.753733981529536450e-03,-8.110327622091892397e-02,1.232814380095425925e-02
-1.643299434692657712e-02,-2.626953886513523975e-02,5.119144990754211089e-02
-3.872909750184076044e-02,-3.035882567421093955e-02,8.954882281876100358e-02
-8.900546659570449104e-02,-1.476313327901533287e-02,1.535930006843017059e-02
5.215541323099114751e-02,1.175473622067187834e-02,-2.087989861406748179e-02
-3.258207344703348968e-02,-4.007670569268014654e-02,6.958996536554398413e-03
4.860356608666251826e-02,-1.415234813216644828e-02,-5.277395448934121130e-02
-2.140652985941097347e-02,-2.807097657239545144e-02,1.850491289647415369e-02
-6.226332878408508131e-02,1.273356355510578668e-03,-4.843913789157264747e-03
1.025594956321589958e-02,3.585865912094282626e-02,1.633536001944969895e-02
5.001612172366816378e-02,-3.487923551316881449e-02,-3.116769525249700121e-02
-1.554043729303608221e-02,-1.665071874913767042e-02,-2.181335039187022942e-03
-2.246886518693651247e-02,5.458281358007115863e-03,2.292513378888507217e-02
-9.767177939353596794e-02,1.334841212017270212e-02,3.885172361419650389e-02
3.601309459068153737e-03,9.252831523622129586e-03,-2.394764206025414358e-02
-5.754801622395872007e-02,-7.821435494587117288e-02,3.906847579399799764e-02
-2.195039735107321994e-03,2.463568495118888257e-02,7.729376551318081941e-03
-4.141541261161709592e-02,-3.494419915555026929e-02,-2.051497729213648188e-02
-3.064908262692392707e-02,-1.467537256232308296e-02,2.445332838838210066e-02
7.200650759891243091e-03,-2.026644704360850563e-02,-1.483617826224165916e-02
4.391783721262583484e-02,2.486469385016604888e-02,-2.280171226178445351e-02
-1.838424301715005718e-02,6.894079546153308868e-02,-1.392117520862324806e-02
-2.744211900688558678e-02,-8.017891440846452999e-02,-9.382543682533942692e-03
-4.182878777500508016e-02,-5.396077385726355362e-03,1.560111777933066365e-02
1.217270702329797054e-04,4.988837781203708105e-02,2.468040935365932789e-02
-1.854123186149241390e-02,3.005323059456885618e-02,2.616046916173651524e-02
-8.873066128758998888e-03,-5.954022358174646846e-03,-1.675516091551116152e-02
5.715495907400225395e-02,5.152514791907052832e-02,-1.015172831208332365e-03
-3.401690038915979736e-02,-3.837454726741062853e-03,3.283208653481936579e-02
2.340543230437763540e-03,-3.743689951670450822e-02,-6.319402702033509456e-02
2.198309844183054911e-03,-2.321601815649693146e-02,7.107681638255955447e-02
1.290124143917161827e-02,-3.734802454001375839e-04,-2.803510687123819678e-02
-2.850213305216948989e-02,2.100138414330169831e-02,3.630804718831725977e-03
-5.910051056735941138e-02,-1.308889003944741988e-02,9.444032861069331930e-02
-3.839484375946624478e-02,2.499280200425094481e-02,7.992065376620292871e-02
-3.835841294840046378e-02,1.010015895543094483e-01,-9.382850337358358828e-02
-4.111958709962718062e-02,4.032340422973746535e-02,4.270421915788501503e-04
7.959572218723090509e-02,5.351816375735080067e-02,-3.834486496966650615e-02
1.481635822391480853e-02,1.523329974885499934e-02,-7.084125786524379798e-02
-5.905796057736774352e-02,-5.991871422107625245e-02,4.209818671715244431e-02
-4.075841214041570071e-02,6.815437934725729341e-02,-3.254038585195147271e-02
-5.638088738328926944e-03,-3.155587894128093068e-02,1.999497535927301922e-02
-1.578459001402863007e-03,-9.314453862104185231e-03,3.076674632318142366e-02
4.680919865552351372e-02,1.242939125688088953e-02,5.008681098385638769e-02
1.497146167058131458e-02,-3.880260168437304341e-02,-6.789809113439684851e-02
4.517089412923388364e-02,1.186913890407047950e-01,5.764861494665320801e-02
-2.737678755763813671e-02,-4.666065880312678799e-02,6.679652824657407451e-02
-2.536814209237467019e-02,-4.357874581465199203e-03,-1.944308342404923312e-02
9.989364209258739385e-03,-2.509254142504026980e-02,-4.386352555834231726e-02
3.675820031232920199e-02,1.145916964076629414e-02,-1.605521805149181386e-02
-3.760599435085119902e-02,1.897312501287880607e-02,-5.955930417960392242e-02
-5.066911499818907427e-02,3.518183627188885970e-02,8.720177454190947142e-02
1.010921577217522155e-01,-3.725090651494027908e-03,1.095716897462881319e-02
-7.268554461521682837e-03,-1.742567512076816788e-02,-7.038676871792962086e-02
2.177483926384417984e-02,9.728475473743748714e-02,-8.424976518910301526e-02
-3.100201247003440269e-02,-8.548120356880911305e-03,1.255838178897500899e-02
7.151281548103465176e-03,-6.312346823073241870e-04,-1.188026813948665945e-02
4.913226149228676343e-02,-2.184065366280886836e-02,2.957451831050311036e-02
3.989598702592426528e-03,-3.207631012834553930e-02,4.891015240191710911e-02
8.305313224270691186e-02,3.041351779018745816e-02,-9.527724232703577156e-02
3.024719794296355097e-02,9.058165175819253567e-02,6.529962115117425581e-02
2.758532562104474423e-02,4.310110811504527101e-02,4.066265046636652336e-03
-4.669374156512627605e-02,7.283672006285792783e-03,-2.454454256746331671e-03
-7.961664382964570019e-02,1.497869213945855933e-02,-2.709341792227627083e-02
1.257059891753657503e-02,4.672669896292518110e-02,2.580827899946577277e-03
-9.778103929406542841e-03,4.700068843279012892e-02,3.953530616608860043e-02
-2.072396854272377104e-02,1.852352607812001589e-02,2.522575125363218929e-02
1.741080257939878542e-03,2.641789358340339983e-02,-2.314558576057933886e-02
3.567172426543801372e-02,1.829678993728667269e-02,1.546903705273511981e-02
-3.002440733423665520e-02,2.632663217491403376e-02,2.537643842812437045e-02
1.337315143361722698e-02,4.960315955873172145e-02,1.929694927713011821e-02
-3.968004126263868780e-02,-1.940905986000465711e-02,1.612957463990320750e-02
-5.570874783945933134e-02,-5.830653256651369132e-02,-1.933352281830576572e-02
6.385664114066386121e-02,-2.794175800282247199e-02,3.481956434941733958e-02
-9.175757078819432588e-02,-6.236261632960774653e-02,-3.845837059379165340e-02
-6.212361003212528432e-02,-1.966990726316214869e-02,3.059676101245896451e-02
1.470714795998766949e-02,7.349331858866604839e-02,5.611190732604925263e-02
3.985407144041568095e-02,-7.792674097769816677e-02,1.380794394261385637e-02
-2.323441673581580144e-02,-3.313426508624398720e-02,-5.810266715895349293e-02
-4.586504761223501869e-02,4.761341323526056823e-02,-2.880826041416217204e-02
-6.410565043641649335e-03,-5.799306501489723958e-02,-1.195511720413582751e-02
-2.065408383401362222e-02,2.598196389846160227e-03,3.627966451353994287e-02
7.545721320428513956e-02,2.008383604102443112e-02,1.727859852553044321e-04
-3.453457878310346035e-02,-8.356477342628438817e-03,-3.072683665334257144e-02
-3.700346739988635142e-02,-1.673634873302758813e-02,2.598457969431051257e-02
5.037620471548007184e-02,4.148174397122743329e-02,-5.066019503503862292e-02
1.503726236306079456e-04,-2.307832996312263879e-02,1.818988602799661864e-03
-4.571812223051677573e-03,7.409453709515239619e-04,-7.554472252186060673e-03
-3.152338990078596553e-02,3.095743704145350814e-02,-6.627328303564995748e-02
-4.347140938105772262e-02,2.186805813645439911e-02,3.682248291254427205e-03
2.779339226924423464e-02,-2.537178556871546101e-02,8.156451256157421989e-03
-2.616564423071776960e-02,-7.494315432425209533e-02,5.284307355408255497e-02
-8.388294966409456932e-02,-2.753787418209058258e-02,-2.636623572030979273e-02
6.767324053621258384e-02,2.729308413859068971e-02,6.339008348659438963e-02
-3.390141255206566978e-02,-7.422627033891421311e-02,1.218893591798465015e-01
2.797818790389353105e-02,-5.408860486239019244e-02,-3.246094064273458840e-02
-2.711311902169222937e-02,2.451578620463114311e-02,-4.502497367483371954e-02
6.728018708013859019e-03,-4.585189204721896311e-02,-2.171290143163119926e-02
-7.201434679623075485e-02,5.118052357669544000e-02,-5.371505844605703461e-02
-1.140872587836221606e-02,-9.456732342699052107e-03,-9.777435399964009080e-03
-3.212117870031399799e-03,-6.699949809498441378e-02,-3.922003761015334378e-02
-5.589930393101666395e-02,-7.839381886960870502e-03,-2.418414297374309185e-02
2.276773571896470449e-02,1.249453554605689043e-03,-6.714786533028149762e-02
-5.294218628939932614e-02,-6.203434446316201389e-02,-6.182710413206390226e-03
5.821267957553682981e-02,7.534210794793567935e-04,-6.922612693038952825e-02
7.482383929795329014e-02,4.846395791134979619e-02,1.116567665295393197e-01
2.853025645461866600e-02,3.624729609995890056e-02,1.496765395938205040e-02
-1.030252459338729804e-01,-2.476143478438893111e-02,-3.233325985907963690e-02
-1.621355548488477225e-02,1.035930224141504152e-02,-3.677802302358620760e-03
1.842378770928586665e-02,-6.524496119375386427e-02,-2.982525928199309187e-02
-3.058167373931961006e-03,7.935181517793471473e-02,6.544480851536385591e-02
3.064212696206107187e-02,4.603809138942908247e-02,-9.395525447174984598e-03
-1.278193001513903450e-02,-1.017855916611301419e-02,1.168109235360614284e-01
-1.423844230492792538e-02,-2.229991796986866698e-02,2.084770615819079003e-03
-6.268139045854099860e-03,6.934408872996369877e-02,-4.872015495718531874e-02
3.737580278453796895e-02,5.837010364695426751e-02,4.016118911404549519e-02
1.836613539916230955e-02,-5.037304199016087725e-02,-2.526847928705969540e-02
-2.671656573234174221e-03,2.264671563377549518e-02,8.502439794535949710e-03
1.212794661578264939e-02,-8.208625657251586438e-02,1.696954831760308022e-02
3.492628038883687641e-02,-2.188331065399385517e-02,-2.079338083006121093e-02
-1.981884524698216202e-02,6.767699209787071679e-02,-2.233836342121474361e-02
2.914442959262567023e-02,1.199395168238275760e-03,-3.054552446432437507e-02
-8.055453384626184987e-02,1.901865105436002096e-02,2.609905094829083338e-02
3.311952226023952284e-02,-5.729311594394130569e-02,-2.274676839609582595e-03
-3.102795958033616186e-02,3.597963216829745681e-02,-7.748653331374472097e-02
6.009217326973299855e-03,2.086433983149300897e-02,1.564585167020394541e-03
-1.378047807303826519e-03,2.520052046036455259e-02,-1.378923202699440693e-02
4.387954010927038601e-02,1.061905516273129423e-02,3.586189144896628767e-02
-4.150698917980165381e-02,7.151358510465904809e-03,-8.014175968626441326e-02
8.726238242689209751e-03,-4.163187164658224693e-02,3.538863110738142692e-02
-4.902051941882755448e-02,-2.983374092857772261e-02,-4.062218436311784003e-02
1.225979922832481778e-01,-1.359667037721858443e-02,2.709246656069937489e-02
2.005698125598385367e-02,2.418849316559374199e-02,-1.184186675589513765e-01
-5.109900873720552017e-02,-4.351962140478689983e-02,2.068937534595146482e-02
1.485260372292348217e-02,2.975486478286299211e-02,2.158439376464323101e-02
1.175711889792882964e-01,4.257071867429119277e-02,-3.418610358171318003e-03
2.168575854105806236e-02,7.904519503890265059e-03,-3.771360248590667485e-02
3.673288892652080279e-02,-3.533583528803087986e-02,-3.587602375780798037e-03
-3.305466955566679216e-02,1.287810286283167481e-02,9.619544579398614861e-03
1.170432267891026966e-02,4.325422889562312995e-02,-2.163510814368474564e-03
-7.522567239594273036e-02,-3.596675544731109397e-02,5.900884146201399415e-03
-1.835725325401281471e-02,-5.340851074313116703e-02,-3.117512796817975551e-02
